SampleTimeFine,Gyr_X,Gyr_Y,Gyr_Z,Roll,Pitch,Yaw,Gyr_Z(rad/sec),Heading (rad) 
108178,0.069135,-0.106102,-0.012213,-12.578278,-84.213164,12.516202,-0.000213153,0.218407725
108278,0.062059,-0.096989,-0.007169,-12.612152,-84.268721,12.585861,-0.000125121,0.219623274
108378,0.050518,-0.088976,-0.006178,-12.648514,-84.319671,12.651372,-0.000107825,0.220766441
108478,0.035198,-0.087277,-0.006513,-12.689971,-84.369701,12.713181,-0.000113671,0.221845008
108578,0.030871,-0.087124,-0.007674,-12.727436,-84.419773,12.768486,-0.000133934,0.222810081
108678,0.024898,-0.08509,-0.004176,-12.786191,-84.468239,12.84174,-7.28837E-05,0.224088363
108778,0.012369,-0.075195,0.002049,-12.87592,-84.510352,12.938895,3.57612E-05,0.225783718
108878,0.005467,-0.051631,0.009182,-12.980584,-84.538357,13.047079,0.000160253,0.227671529
108978,0.002721,-0.033364,0.023202,-13.144657,-84.554308,13.213359,0.000404945,0.230573115
109078,0.000505,-0.013735,0.030597,-13.32651,-84.558287,13.396227,0.000534009,0.233764161
109178,-0.013864,-4.40E-05,0.035392,-13.525018,-84.553943,13.587558,0.000617697,0.237102887
109278,-0.043413,0.002718,0.036049,-13.739336,-84.547911,13.777772,0.000629163,0.240422121
109378,-0.069778,0.005613,0.03442,-13.953928,-84.540422,13.953093,0.000600732,0.243481473
109478,-0.094257,0.010236,0.033558,-14.169516,-84.530413,14.115334,0.000585688,0.246312578
109578,-0.124942,0.017122,0.029744,-14.369109,-84.517055,14.243854,0.000519122,0.248555252
109678,-0.146707,0.020112,0.027324,-14.561477,-84.502338,14.352593,0.000476886,0.250452748
109778,-0.157568,0.020088,0.026705,-14.755408,-84.487685,14.456657,0.000466082,0.252268665
109878,-0.143231,0.008254,0.022921,-14.93651,-84.480105,14.556088,0.00040004,0.254003736
109978,-0.115296,-0.004501,0.017669,-15.090737,-84.480331,14.6446,0.000308377,0.25554827
110078,-0.083175,-0.010175,0.008881,-15.185111,-84.484983,14.691469,0.000155,0.256366134
110178,-0.0514,0.006359,0.001981,-15.196281,-84.481508,14.673036,3.45744E-05,0.256044478
110278,-0.03689,0.046707,-0.001661,-15.116244,-84.456241,14.57132,-2.89894E-05,0.254269534
110378,-0.044172,0.085959,-0.003261,-14.972891,-84.409451,14.401788,-5.69142E-05,0.251311201
110478,-0.061756,0.104289,0.001238,-14.840524,-84.35179,14.233154,2.16068E-05,0.248368537
110578,-0.071837,0.108972,0.012889,-14.774939,-84.28978,14.12581,0.000224952,0.246495385
110678,-0.071395,0.103292,0.0244,-14.782346,-84.229211,14.092069,0.000425853,0.245906604
110778,-0.068191,0.093776,0.029257,-14.828181,-84.173188,14.098797,0.000510622,0.246024008
110878,-0.058581,0.084711,0.024047,-14.852984,-84.122938,14.08992,0.000419692,0.245869104
110978,-0.036695,0.091482,0.014042,-14.802348,-84.070389,14.017807,0.000245075,0.244610732
111078,-0.01341,0.1151,0.002614,-14.646537,-84.006385,13.853354,4.56221E-05,0.241741027
111178,-0.003979,0.157089,-0.006647,-14.384061,-83.920336,13.587054,-0.00011601,0.237094092
111278,-0.010012,0.194658,-0.009255,-14.070507,-83.813632,13.26586,-0.000161528,0.231489257
111378,-0.027709,0.216853,-0.016811,-13.712255,-83.695416,12.889436,-0.000293402,0.224920658
111478,-0.047119,0.218767,-0.012683,-13.396704,-83.575339,12.544706,-0.000221356,0.21890512
111578,-0.062003,0.21632,-0.006256,-13.135725,-83.455586,12.246238,-0.000109186,0.213696853
111678,-0.065283,0.213108,-0.002712,-12.907129,-83.33701,11.97841,-4.73325E-05,0.209023255
111778,-0.063501,0.21689,0.001025,-12.699817,-83.215703,11.732979,1.78893E-05,0.204740484
111878,-0.061374,0.230843,0.005717,-12.506736,-83.085875,11.503046,9.97788E-05,0.200728153
111978,-0.067967,0.259583,0.000925,-12.275201,-82.940417,11.230503,1.6144E-05,0.195972277
112078,-0.075189,0.295878,-0.00858,-11.981697,-82.775591,10.891247,-0.000149747,0.19005226
112178,-0.091511,0.320954,-0.009888,-11.683532,-82.596621,10.537739,-0.000172575,0.183883546
112278,-0.109078,0.330594,-0.010544,-11.399805,-82.412079,10.188499,-0.000184024,0.177789308
112378,-0.11802,0.323127,-0.001825,-11.178254,-82.230551,9.896685,-3.18517E-05,0.172697153
112478,-0.112633,0.313147,0.015249,-11.042114,-82.052629,9.694082,0.000266141,0.169161731
112578,-0.097403,0.285673,0.032959,-10.995728,-81.888177,9.590853,0.000575233,0.167360385
112678,-0.103369,0.256559,0.04275,-11.01568,-81.739043,9.551151,0.000746116,0.166667585
112778,-0.073998,0.232226,0.051369,-11.070417,-81.602665,9.563597,0.000896543,0.166884768
112878,-0.056109,0.200554,0.056608,-11.157186,-81.483522,9.618793,0.000987979,0.167847938
112978,-0.05452,0.170228,0.058506,-11.270741,-81.381211,9.702011,0.001021105,0.169300092
113078,-0.046835,0.138962,0.060615,-11.408742,-81.296215,9.814428,0.001057914,0.171261769
113178,-0.033254,0.122903,0.068363,-11.576981,-81.219322,9.96533,0.001193139,0.173895009
113278,-0.026063,0.126875,0.073801,-11.755296,-81.139519,10.130626,0.001288049,0.176779424
113378,-0.015515,0.127246,0.0807,-11.949185,-81.058634,10.317833,0.001408457,0.180046186
113478,-0.007219,0.11751,0.091432,-12.180541,-80.98183,10.54782,0.001595763,0.184059459
113578,-0.006999,0.091592,0.100064,-12.458361,-80.918349,10.825024,0.001746417,0.188896669
113678,-0.01176,0.054627,0.10394,-12.777866,-80.874858,11.141721,0.001814065,0.194423031
113778,-0.012319,0.004761,0.103739,-13.134428,-80.858979,11.495647,0.001810557,0.20059904
113878,-0.007925,-0.045886,0.098933,-13.512875,-80.871652,11.874288,0.001726678,0.207206326
113978,0.001523,-0.079502,0.092272,-13.892816,-80.903578,12.259898,0.001610423,0.21393522
114078,0.010444,-0.095714,0.080699,-14.244477,-80.945769,12.622004,0.00140844,0.22025397
114178,0.012288,-0.100189,0.068828,-14.561093,-80.991836,12.949647,0.001201255,0.22597134
114278,0.007632,-0.099658,0.058933,-14.848583,-81.038807,13.245055,0.001028558,0.23112621
114378,0.001222,-0.102822,0.051949,-15.121362,-81.08837,13.521812,0.000906666,0.235955619
114478,-0.011761,-0.119918,0.052347,-15.422958,-81.147134,13.820159,0.000913612,0.241161775
114578,-0.029249,-0.131487,0.054852,-15.759336,-81.211665,14.143511,0.000957332,0.246804267
114678,-0.038466,-0.139915,0.058327,-16.127216,-81.280013,14.493331,0.001017981,0.252908626
114778,-0.05094,-0.15634,0.057694,-16.523296,-81.357165,14.864378,0.001006933,0.259383396
114878,-0.066272,-0.165106,0.052073,-16.924398,-81.439692,15.231538,0.00090883,0.265790338
114978,-0.068655,-0.178214,0.044919,-17.323095,-81.530241,15.5948,0.000783971,0.27212926
115078,-0.062358,-0.179092,0.038045,-17.701964,-81.622102,15.941577,0.000663999,0.278180519
115178,-0.044717,-0.154765,0.034693,-18.036616,-81.700974,16.2538,0.000605497,0.28362881
115278,-0.013419,-0.122461,0.035808,-18.323538,-81.761819,16.535854,0.000624957,0.288550652
115378,0.033485,-0.097558,0.038958,-18.568297,-81.808367,16.802414,0.000679934,0.293202124
115478,0.084637,-0.104211,0.049764,-18.836569,-81.856371,17.122296,0.000868531,0.298784065
115578,0.127955,-0.144205,0.063934,-19.190921,-81.923147,17.554143,0.00111584,0.306319795
115678,0.168441,-0.20243,0.08112,-19.674993,-82.017656,18.140322,0.001415787,0.316548619
115778,0.203295,-0.264064,0.098571,-20.308714,-82.141113,18.897585,0.00172036,0.329762858
115878,0.225699,-0.30326,0.112063,-21.064806,-82.28155,19.791064,0.001955836,0.345354067
115978,0.231499,-0.299644,0.121799,-21.881435,-82.416302,20.748676,0.002125758,0.362064396
116078,0.224842,-0.233631,0.124062,-22.631636,-82.51375,21.635168,0.002165254,0.377533682
116178,0.20743,-0.146449,0.119202,-23.241347,-82.564845,22.369755,0.002080433,0.390352225
116278,0.177833,-0.077375,0.108337,-23.710223,-82.581179,22.945156,0.001890806,0.400392972
116378,0.143114,-0.044308,0.097067,-24.096092,-82.582217,23.416779,0.00169411,0.408622794
116478,0.112956,-0.03681,0.082399,-24.426583,-82.582377,23.815135,0.00143811,0.415574106
116578,0.088603,-0.038391,0.069448,-24.721775,-82.586137,24.163826,0.001212076,0.421658764
116678,0.071921,-0.047642,0.055287,-24.98707,-82.597869,24.472729,0.000964924,0.427049121
116778,0.060516,-0.056819,0.043249,-25.228526,-82.617085,24.750998,0.000754825,0.431904915
116878,0.058183,-0.067153,0.028762,-25.433919,-82.645031,24.991547,0.000501983,0.436102495
116978,0.06426,-0.070968,0.014891,-25.588758,-82.678235,25.18462,0.000259893,0.439471619
117078,0.07316,-0.073859,0.003006,-25.697404,-82.715781,25.336252,5.24637E-05,0.442117597
117178,0.076584,-0.073122,-0.008906,-25.755412,-82.75584,25.438803,-0.000155436,0.443907112
117278,0.06894,-0.080533,-0.020145,-25.787295,-82.802473,25.510596,-0.000351591,0.4451599
117378,0.057723,-0.087959,-0.023634,-25.826651,-82.853764,25.583435,-0.000412484,0.446430941
117478,0.051747,-0.091719,-0.020431,-25.891053,-82.906151,25.678055,-0.000356582,0.44808206
117578,0.047541,-0.098287,-0.011642,-26.009103,-82.959668,25.824293,-0.000203188,0.450633913
117678,0.037886,-0.104595,-0.002069,-26.187977,-83.013943,26.02622,-3.61103E-05,0.454157539
117778,0.027543,-0.114147,0.002141,-26.413654,-83.071935,26.269301,3.73669E-05,0.458399302
117878,0.015243,-0.11923,-0.00212,-26.643092,-83.133468,26.509039,-3.70004E-05,0.462582731
117978,0.002094,-0.112958,-0.0089,-26.841652,-83.193391,26.710059,-0.000155332,0.46609053
118078,-0.013521,-0.095788,-0.017818,-26.976464,-83.246745,26.837849,-0.000310978,0.468320465
118178,-0.026472,-0.080773,-0.027656,-27.044741,-83.294936,26.891155,-0.00048268,0.469250655
118278,-0.014711,-0.061539,-0.035243,-27.031071,-83.335266,26.868733,-0.000615096,0.468859391
118378,-0.000232,-0.057815,-0.043157,-26.96583,-83.375741,26.802742,-0.000753219,0.467707848
118478,0.016872,-0.070329,-0.049056,-26.892106,-83.424127,26.738082,-0.000856174,0.466579531
118578,0.043362,-0.102693,-0.050014,-26.871266,-83.489291,26.741934,-0.000872894,0.466646748
118678,0.061759,-0.150647,-0.053408,-26.934637,-83.579823,26.841142,-0.00093213,0.468377928
118778,0.067397,-0.186916,-0.057447,-27.063815,-83.689879,27.009795,-0.001002622,0.471320923
118878,0.074359,-0.212054,-0.061779,-27.234588,-83.813802,27.224263,-0.001078229,0.475063389
118978,0.078789,-0.211313,-0.067873,-27.37946,-83.938844,27.415185,-0.001184587,0.478394978
119078,0.075819,-0.188324,-0.076722,-27.431256,-84.05445,27.510763,-0.001339029,0.480062814
119178,0.073318,-0.163951,-0.082517,-27.395378,-84.159148,27.51674,-0.001440169,0.480167113
119278,0.077955,-0.147194,-0.084772,-27.30076,-84.25587,27.466346,-0.001479526,0.479287738
119378,0.083995,-0.141902,-0.086542,-27.176764,-84.350309,27.389913,-0.001510418,0.477953982
119478,0.087614,-0.153784,-0.089041,-27.065786,-84.451408,27.328657,-0.001554033,0.476885065
119578,0.09449,-0.183294,-0.087899,-27.034132,-84.567222,27.351057,-0.001534101,0.477275945
119678,0.098896,-0.217483,-0.085793,-27.106978,-84.699887,27.48095,-0.001497345,0.479542578
119778,0.102231,-0.238129,-0.083787,-27.254022,-84.842479,27.687238,-0.001462335,0.483142303
119878,0.095974,-0.241338,-0.083956,-27.423048,-84.986642,27.911948,-0.001465284,0.487063493
119978,0.086554,-0.231576,-0.084817,-27.573253,-85.125956,28.112299,-0.001480311,0.490559618
120078,0.068302,-0.225601,-0.085429,-27.720965,-85.262293,28.299611,-0.001490992,0.493828212
120178,0.050251,-0.214812,-0.087491,-27.839778,-85.393606,28.447514,-0.00152698,0.496409119
120278,0.038318,-0.204462,-0.088375,-27.931632,-85.519815,28.561485,-0.001542409,0.498397913
120378,0.035624,-0.189945,-0.086171,-27.993872,-85.637988,28.644185,-0.001503942,0.499841028
120478,0.040974,-0.169884,-0.082999,-28.005444,-85.745063,28.679131,-0.001448582,0.500450836
120578,0.039054,-0.1489,-0.07868,-27.971237,-85.840258,28.667065,-0.001373202,0.500240284
120678,0.027102,-0.124227,-0.079773,-27.84173,-85.923146,28.552585,-0.001392278,0.498242608
120778,0.009973,-0.097407,-0.080125,-27.61206,-85.992384,28.327862,-0.001398422,0.494321192
120878,0.0022,-0.076528,-0.081938,-27.285182,-86.05128,28.001246,-0.001430064,0.488621743
120978,-0.020481,-0.046013,-0.086987,-26.806788,-86.095628,27.509749,-0.001518184,0.48004512
121078,-0.034796,-0.014734,-0.09324,-26.1599,-86.125069,26.841168,-0.001627318,0.468378382
121178,-0.038239,0.00647,-0.097374,-25.394758,-86.14391,26.052102,-0.001699468,0.45460918
121278,-0.021693,0.011628,-0.102779,-24.551434,-86.160505,25.194192,-0.001793802,0.43963865
121378,0.009429,0.002381,-0.109646,-23.660191,-86.182548,24.306142,-0.001913652,0.424142178
121478,0.043884,-0.017357,-0.115865,-22.754853,-86.215333,23.423776,-0.002022192,0.408744891
121578,0.083019,-0.041015,-0.118069,-21.870403,-86.260103,22.584848,-0.002060658,0.394105598
121678,0.113579,-0.058161,-0.121253,-20.975617,-86.313708,21.753149,-0.002116229,0.37959245
121778,0.131256,-0.078106,-0.119407,-20.122936,-86.376702,20.973837,-0.00208401,0.365993456
121878,0.136552,-0.107739,-0.1159,-19.359525,-86.454175,20.287065,-0.002022803,0.354009284
121978,0.136766,-0.135715,-0.112066,-18.682801,-86.545414,19.68732,-0.001955888,0.343543734
122078,0.134817,-0.148151,-0.105227,-18.073457,-86.641622,19.154008,-0.001836527,0.33423744
122178,0.129989,-0.145707,-0.098774,-17.487236,-86.73488,18.641131,-0.001723903,0.325287736
122278,0.10702,-0.132851,-0.09258,-16.903999,-86.819594,18.1181,-0.001615799,0.316160845
122378,0.077562,-0.122839,-0.089011,-16.313528,-86.897769,17.570955,-0.001553509,0.306613165
122478,0.053155,-0.118993,-0.085465,-15.732916,-86.972811,17.019712,-0.001491621,0.296993974
122578,0.040472,-0.094625,-0.091878,-14.991503,-87.034874,16.300199,-0.001603547,0.284438473
122678,0.049896,-0.05986,-0.094219,-14.091868,-87.07732,15.427688,-0.001644404,0.269213156
122778,0.072074,-0.036497,-0.095484,-13.07933,-87.106063,14.454872,-0.001666482,0.252237516
122878,0.100229,-0.039594,-0.093668,-12.059337,-87.135361,13.490762,-0.001634788,0.235413797
122978,0.12584,-0.088665,-0.085003,-11.214535,-87.190363,12.716778,-0.001483557,0.221907776
123078,0.165566,-0.166651,-0.075882,-10.593948,-87.28773,12.190103,-0.001324369,0.212717297
123178,0.215382,-0.22699,-0.076518,-10.027431,-87.418881,11.746174,-0.001335469,0.204970736
123278,0.257113,-0.238235,-0.086971,-9.269714,-87.557116,11.134836,-0.001517905,0.194302888
123378,0.27862,-0.232937,-0.104479,-8.161092,-87.693399,10.184683,-0.001823472,0.177722718
123478,0.288406,-0.236085,-0.115491,-6.759601,-87.831384,8.947134,-0.002015664,0.156127488
123578,0.28425,-0.247681,-0.120676,-5.116717,-87.974929,7.465758,-0.002106158,0.130277477
123678,0.256406,-0.227918,-0.121396,-3.221614,-88.105419,5.71617,-0.002118724,0.099747167
123778,0.200341,-0.16329,-0.113434,-1.213518,-88.196532,3.821497,-0.001979764,0.066685123
123878,0.121591,-0.076293,-0.110698,0.87731,-88.23546,1.798968,-0.001932012,0.031391992
123978,0.032206,-0.004899,-0.107059,2.870776,-88.231228,-0.177379,-0.001868501,-0.003095264
124078,-0.063173,0.043496,-0.100718,4.61008,-88.197528,-1.954141,-0.001757831,-0.03409976
124178,-0.148647,0.067562,-0.108853,6.333182,-88.147982,-3.763738,-0.001899811,-0.065677228
124278,-0.23758,0.08818,-0.107183,7.836897,-88.085252,-5.404874,-0.001870665,-0.094315051
124378,-0.311116,0.062607,-0.104177,9.220092,-88.035997,-6.967632,-0.001818201,-0.121585178
124478,-0.372087,-0.00661,-0.093919,10.542732,-88.025686,-8.504781,-0.001639168,-0.148408428
124578,-0.425344,-0.093304,-0.08353,11.954304,-88.064119,-10.161432,-0.001457849,-0.177316988
124678,-0.449871,-0.183563,-0.078186,13.699629,-88.152216,-12.166012,-0.00136458,-0.212296909
124778,-0.431216,-0.247991,-0.077871,15.972846,-88.273796,-14.687926,-0.001359083,-0.256304309
124878,-0.399834,-0.272631,-0.08237,18.87809,-88.404507,-17.823973,-0.001437604,-0.311028329
124978,-0.35842,-0.270241,-0.08531,22.380602,-88.528146,-21.533572,-0.001488915,-0.375760831
125078,-0.283012,-0.252631,-0.078624,26.239185,-88.637589,-25.555937,-0.001372225,-0.445951101
125178,-0.189234,-0.220454,-0.066437,30.123774,-88.727128,-29.550406,-0.001159525,-0.515654585
125278,-0.113969,-0.179458,-0.0582,33.80886,-88.792981,-33.302071,-0.001015765,-0.581121139
125378,-0.069907,-0.134733,-0.050891,36.993839,-88.835383,-36.528199,-0.000888201,-0.637417073
125478,-0.05543,-0.104287,-0.040391,39.617618,-88.86439,-39.184678,-0.000704944,-0.683772631
125578,-0.070428,-0.118481,-0.022275,42.252132,-88.903887,-41.860458,-0.000388766,-0.730464992
125678,-0.139203,-0.182718,0.000743,45.977013,-88.97609,-45.666151,1.29676E-05,-0.796874335
125778,-0.222327,-0.253907,0.019375,51.726975,-89.077213,-51.544747,0.000338152,-0.899455835
125878,-0.273748,-0.299586,0.027263,60.189828,-89.183753,-60.165838,0.000475821,-1.049893873
125978,-0.296765,-0.305867,0.031218,71.083672,-89.270408,-71.231124,0.000544848,-1.242983114
126078,-0.30718,-0.285863,0.023398,83.361921,-89.318281,-83.686725,0.000408365,-1.460333351
126178,-0.308527,-0.244788,0.015913,94.730355,-89.328804,-95.233151,0.00027773,-1.661818485
126278,-0.294739,-0.190852,0.002845,103.350046,-89.312869,-104.022755,4.96538E-05,-1.815197075
126378,-0.264187,-0.141963,-0.008297,109.131486,-89.285703,-109.956436,-0.000144808,-1.918739808
126478,-0.23698,-0.106795,-0.010804,112.980843,-89.258451,-113.942328,-0.000188562,-1.988293624
126578,-0.232288,-0.074168,-0.005831,115.374257,-89.238748,-116.469489,-0.000101768,-2.032392583
126678,-0.240097,-0.046291,0.000321,116.703809,-89.228158,-117.937179,5.60241E-06,-2.058003774
126778,-0.255412,-0.038561,0.007706,117.841404,-89.22293,-119.221674,0.000134493,-2.080418211
126878,-0.264186,-0.044201,0.012828,119.265787,-89.218332,-120.798015,0.000223887,-2.107925362
126978,-0.25897,-0.058303,0.017858,121.283429,-89.21149,-122.964687,0.000311676,-2.145733788
127078,-0.247784,-0.073202,0.023779,123.911413,-89.201696,-125.735355,0.000415015,-2.194081945
127178,-0.22747,-0.07149,0.030789,126.590655,-89.193972,-128.545654,0.00053736,-2.243121662
127278,-0.200788,-0.042393,0.040673,128.556663,-89.199306,-130.627362,0.000709866,-2.279447467
127378,-0.161114,0.011303,0.051272,129.126147,-89.22801,-131.289673,0.00089485,-2.291004794
127478,-0.106175,0.075086,0.054736,127.634818,-89.281021,-129.85951,0.000955307,-2.26604845
127578,-0.047733,0.11822,0.054598,124.182011,-89.347624,-126.434258,0.000952899,-2.206277802
127678,-0.002102,0.145192,0.054134,118.657177,-89.418691,-120.910758,0.000944801,-2.109892727
127778,0.01232,0.173538,0.059503,110.110761,-89.491561,-112.357346,0.001038506,-1.960635688
127878,0.0032,0.21159,0.072888,96.390648,-89.560097,-98.63538,0.001272114,-1.721187381
127978,-0.006175,0.257245,0.088477,75.115346,-89.598506,-77.363495,0.001544189,-1.349992988
128078,0.004538,0.294354,0.094403,50.511335,-89.565214,-52.756683,0.001647616,-0.920604118
128178,0.038576,0.318411,0.096129,31.336866,-89.457242,-33.559861,0.001677739,-0.585619574
128278,0.085591,0.333879,0.096029,19.183358,-89.301725,-21.357034,0.001675994,-0.372680243
128378,0.120196,0.352158,0.101845,11.348454,-89.116796,-13.452935,0.001777501,-0.234753716
128478,0.12365,0.379041,0.113048,5.882471,-88.906333,-7.915696,0.001973027,-0.138128895
128578,0.098449,0.414538,0.127016,1.82758,-88.66894,-3.803881,0.00221681,-0.066377723
128678,0.041628,0.456044,0.133799,-1.13231,-88.402906,-0.819554,0.002335194,-0.014301217
128778,-0.029763,0.502506,0.143288,-3.392821,-88.10682,1.424571,0.002500805,0.024858764
128878,-0.085071,0.547006,0.15771,-5.224049,-87.782372,3.207848,0.002752513,0.055976948
128978,-0.096139,0.584563,0.177469,-6.792901,-87.433509,4.722599,0.003097366,0.082409353
129078,-0.063645,0.62959,0.200135,-8.153817,-87.055798,6.048268,0.003492956,0.105542277
129178,-0.013121,0.696043,0.216619,-9.236029,-86.637692,7.124302,0.003780651,0.12431907
129278,0.055939,0.770461,0.224024,-9.992882,-86.175934,7.9145,0.003909891,0.138108025
129378,0.137893,0.799556,0.21917,-10.461898,-85.697832,8.463676,0.003825174,0.147691146
129478,0.188675,0.735779,0.192195,-10.701858,-85.258407,8.812632,0.003354379,0.153780428
129578,0.158571,0.621378,0.156866,-10.825763,-84.887292,9.028024,0.002737782,0.157539019
129678,0.044473,0.484594,0.101966,-10.821538,-84.599319,9.049234,0.001779613,0.157909133
129778,-0.104624,0.329485,0.044776,-10.742384,-84.405061,8.909378,0.000781476,0.155468646
129878,-0.188117,0.151918,-0.001018,-10.647953,-84.31589,8.70608,-1.77672E-05,0.151921096
129978,-0.169332,-0.03661,-0.022899,-10.621941,-84.335391,8.582348,-0.000399656,0.149761973
130078,-0.085058,-0.176705,-0.04621,-10.563109,-84.436392,8.474168,-0.000806503,0.147874232
130178,0.025736,-0.274005,-0.067125,-10.419926,-84.594464,8.345038,-0.001171533,0.145620913
130278,0.129682,-0.324466,-0.072907,-10.229379,-84.781575,8.228177,-0.001272446,0.143581689
130378,0.209011,-0.280607,-0.084661,-9.85728,-84.945059,7.974688,-0.001477588,0.139158306
130478,0.273812,-0.155804,-0.104927,-9.159165,-85.039704,7.431242,-0.001831291,0.129675173
130578,0.315456,0.036521,-0.124617,-8.09802,-85.026355,6.547372,-0.002174941,0.114251641
130678,0.329496,0.231494,-0.142939,-6.76276,-84.902029,5.396306,-0.002494714,0.09416554
130778,0.34426,0.355492,-0.164177,-5.274139,-84.70594,4.099452,-0.002865381,0.071535437
130878,0.347886,0.395684,-0.181378,-3.765615,-84.484755,2.784258,-0.00316559,0.048585302
130978,0.353191,0.366526,-0.189942,-2.322169,-84.277485,1.537037,-0.003315058,0.026821296
131078,0.33961,0.314434,-0.182693,-1.026795,-84.097143,0.430409,-0.003188541,0.007510637
131178,0.284429,0.275104,-0.15588,0.021253,-83.937005,-0.459669,-0.002720574,-0.008021224
131278,0.192672,0.257217,-0.104109,0.696153,-83.785982,-1.027581,-0.001817014,-0.017931288
131378,0.082971,0.252436,-0.050742,1.005508,-83.637697,-1.291128,-0.0008856,-0.022530184
131478,-0.011791,0.233608,-0.024671,1.118915,-83.500439,-1.412196,-0.000430583,-0.02464282
131578,-0.066172,0.181374,-0.025179,1.204465,-83.39315,-1.53661,-0.000439449,-0.026813845
131678,-0.056764,0.120921,-0.036429,1.353606,-83.320391,-1.719639,-0.000635795,-0.030007701
131778,-0.010858,0.045517,-0.051085,1.606303,-83.290593,-1.980469,-0.000891587,-0.034559184
131878,0.043909,-0.035385,-0.06069,1.947691,-83.306839,-2.299012,-0.001059223,-0.040117759
131978,0.088734,-0.110616,-0.06907,2.372346,-83.365745,-2.675509,-0.001205479,-0.046687632
132078,0.118912,-0.160263,-0.074813,2.862087,-83.452568,-3.100068,-0.001305711,-0.054096187
132178,0.141464,-0.181572,-0.075145,3.384939,-83.551136,-3.544876,-0.001311506,-0.061858086
132278,0.162386,-0.172092,-0.07164,3.913434,-83.643942,-3.983221,-0.001250333,-0.069507206
132378,0.177199,-0.140664,-0.065609,4.420736,-83.718595,-4.39164,-0.001145074,-0.076634118
132478,0.187982,-0.112376,-0.060157,4.903835,-83.776964,-4.769449,-0.00104992,-0.083226885
132578,0.1879,-0.114708,-0.046324,5.322929,-83.837057,-5.082885,-0.000808493,-0.088696343
132678,0.168489,-0.144156,-0.031403,5.673785,-83.914553,-5.338842,-0.000548077,-0.093162793
132778,0.137648,-0.189045,-0.012289,5.936061,-84.018616,-5.523454,-0.00021448,-0.096384272
132878,0.098455,-0.233102,0.003264,6.123209,-84.148655,-5.65508,5.69666E-05,-0.098681146
132978,0.07307,-0.274381,0.014372,6.26493,-84.302857,-5.75564,0.000250835,-0.100435918
133078,0.056289,-0.295784,0.020715,6.379803,-84.469612,-5.838864,0.000361539,-0.101888177
133178,0.047224,-0.284579,0.023325,6.47129,-84.630106,-5.903801,0.000407091,-0.103021327
133278,0.045125,-0.24288,0.024928,6.525843,-84.766907,-5.932848,0.000435068,-0.103528198
133378,0.03368,-0.186442,0.027364,6.518571,-84.87167,-5.906404,0.000477584,-0.10306675
133478,0.013726,-0.13079,0.029057,6.446668,-84.944784,-5.826563,0.000507132,-0.101673524
133578,-0.009536,-0.088862,0.031306,6.313516,-84.994081,-5.698631,0.000546384,-0.099441111
133678,-0.024708,-0.074464,0.031432,6.157566,-85.035091,-5.556555,0.000548583,-0.096961885
133778,-0.023954,-0.076887,0.029224,6.015528,-85.077249,-5.428022,0.000510046,-0.094718984
133878,-0.014503,-0.087238,0.023891,5.919045,-85.124905,-5.339789,0.00041697,-0.093179318
133978,0.012013,-0.087976,0.01559,5.892193,-85.172434,-5.306201,0.000272092,-0.092593207
134078,0.040754,-0.084473,0.011041,5.90939,-85.217653,-5.300297,0.000192699,-0.092490183
134178,0.059562,-0.072917,0.003181,5.982745,-85.255781,-5.339939,5.5518E-05,-0.093181936
134278,0.064227,-0.063824,-0.002871,6.09435,-85.288318,-5.415283,-5.01076E-05,-0.094496688
134378,0.054059,-0.055349,-0.006265,6.218122,-85.315767,-5.508681,-0.000109343,-0.096126483
134478,0.03263,-0.064114,-0.010231,6.364985,-85.347907,-5.637567,-0.000178562,-0.098375544
134578,0.015261,-0.084361,-0.011294,6.527169,-85.391451,-5.791804,-0.000197114,-0.10106698
134678,0.029764,-0.11285,-0.013067,6.736837,-85.451029,-5.985335,-0.000228058,-0.104444096
134778,0.073472,-0.118227,-0.018239,7.018665,-85.513227,-6.226119,-0.000318325,-0.108645777
134878,0.136274,-0.094575,-0.02239,7.351448,-85.561567,-6.481909,-0.000390773,-0.113109312
134978,0.201014,-0.045731,-0.026388,7.70816,-85.581726,-6.724489,-0.00046055,-0.117342333
135078,0.239213,0.023179,-0.034105,8.074069,-85.562013,-6.954348,-0.000595235,-0.121353373
135178,0.229932,0.085443,-0.044261,8.43839,-85.505961,-7.187969,-0.000772487,-0.125430059
135278,0.171064,0.132555,-0.055497,8.789472,-85.422,-7.442177,-0.000968589,-0.129865989
135378,0.059695,0.172567,-0.070575,9.125896,-85.313732,-7.745747,-0.001231745,-0.135163285
135478,-0.059503,0.235527,-0.097246,9.488701,-85.167008,-8.14439,-0.001697234,-0.142119606
135578,-0.143409,0.361763,-0.134704,9.881388,-84.9449,-8.621401,-0.002350989,-0.150443447
135678,-0.206811,0.561012,-0.168838,10.1909,-84.606464,-9.051586,-0.00294673,-0.157950176
135778,-0.255207,0.704514,-0.205195,10.484279,-84.182993,-9.493701,-0.003581268,-0.165665082
135878,-0.258781,0.742953,-0.232216,10.826711,-83.734683,-9.987553,-0.004052866,-0.1742828
135978,-0.189142,0.705554,-0.216489,11.111488,-83.308863,-10.383647,-0.003778383,-0.18119464
136078,-0.083833,0.653036,-0.161242,11.211525,-82.918657,-10.533223,-0.002814157,-0.183804741
136178,0.027789,0.570838,-0.08154,11.087066,-82.583705,-10.392151,-0.001423118,-0.181343035
136278,0.15409,0.395046,-0.028255,10.963886,-82.353758,-10.179283,-0.000493135,-0.177628488
136378,0.165228,0.199724,0.015611,10.829231,-82.238788,-9.9483,0.000272459,-0.173597835
136478,0.123016,0.013172,0.028486,10.767488,-82.230503,-9.815261,0.000497166,-0.171276304
136578,0.144976,-0.190939,0.013041,10.944801,-82.335706,-9.910757,0.000227605,-0.17294271
136678,0.171638,-0.358111,-0.02309,11.437994,-82.530936,-10.309438,-0.00040299,-0.179899693
136778,0.150339,-0.440446,-0.072228,12.237934,-82.766006,-11.029492,-0.001260595,-0.192464635
136878,0.056071,-0.419715,-0.120764,13.233881,-82.981856,-12.001132,-0.002107694,-0.209419753
136978,-0.108007,-0.287092,-0.151146,14.183066,-83.117607,-13.01999,-0.002637951,-0.227198826
137078,-0.280957,-0.051928,-0.143891,14.747365,-83.122216,-13.750821,-0.00251133,-0.239951826
137178,-0.388569,0.199996,-0.101923,14.751739,-82.992925,-13.979789,-0.001778862,-0.243947318
137278,-0.386423,0.352438,-0.047951,14.340288,-82.787057,-13.78854,-0.000836889,-0.240610023
137378,-0.304756,0.347449,-0.00648,13.82015,-82.589744,-13.440434,-0.000113095,-0.234535573
137478,-0.21086,0.227347,0.008743,13.432586,-82.461247,-13.171631,0.000152592,-0.229844961
137578,-0.115929,0.093271,0.021946,13.185779,-82.409271,-12.989883,0.000383024,-0.226673458
137678,-0.068072,0.003573,0.027945,13.030591,-82.408218,-12.872883,0.000487724,-0.224631808
137778,-0.055666,-0.053276,0.028167,12.936104,-82.439038,-12.809949,0.000491599,-0.22353361
137878,-0.047519,-0.08146,0.025336,12.884608,-82.485336,-12.785677,0.000442189,-0.223110064
137978,-0.016673,-0.094999,0.017573,12.896469,-82.538289,-12.807484,0.000306702,-0.223490596
138078,0.039525,-0.121181,0.019654,12.957761,-82.606192,-12.846664,0.000343021,-0.224174287
138178,0.05923,-0.145465,0.027427,13.022001,-82.688685,-12.877424,0.000478683,-0.224711049
138278,0.036328,-0.146229,0.036606,13.034642,-82.772803,-12.869387,0.000638885,-0.224570803
138378,-0.017595,-0.132474,0.049119,12.946574,-82.850857,-12.790982,0.000857274,-0.223202636
138478,-0.078121,-0.114391,0.062591,12.742767,-82.92051,-12.6309,0.001092401,-0.220409205
138578,-0.118796,-0.09391,0.072055,12.448234,-82.979828,-12.402904,0.001257576,-0.216430675
138678,-0.120235,-0.082452,0.08804,12.06368,-83.03454,-12.085071,0.001536562,-0.210884489
138778,-0.103911,-0.078377,0.108874,11.58247,-83.089155,-11.660485,0.001900178,-0.203475463
138878,-0.091306,-0.076614,0.128082,11.009801,-83.144504,-11.136547,0.002235415,-0.194332745
138978,-0.074727,-0.085824,0.137692,10.400344,-83.20546,-10.566054,0.002403138,-0.184377642
139078,-0.044985,-0.107765,0.143707,9.786779,-83.278726,-9.974339,0.002508118,-0.174052216
139178,-0.007813,-0.15184,0.141458,9.227136,-83.376023,-9.41557,0.002468866,-0.164301697
139278,0.023913,-0.200814,0.14193,8.704043,-83.500507,-8.875416,0.002477104,-0.154876009
139378,0.057996,-0.235606,0.140318,8.213712,-83.644049,-8.348722,0.00244897,-0.145685199
139478,0.083638,-0.237793,0.135979,7.739142,-83.787995,-7.823248,0.002373241,-0.136515678
139578,0.094524,-0.211132,0.129511,7.263911,-83.915829,-7.29097,0.002260355,-0.127227427
139678,0.09388,-0.164946,0.125734,6.757879,-84.016634,-6.728202,0.002194436,-0.117407125
139778,0.094947,-0.12736,0.122525,6.229676,-84.095293,-6.142619,0.002138429,-0.107188702
139878,0.095133,-0.111487,0.122981,5.675644,-84.164363,-5.531037,0.002146387,-0.096516596
139978,0.099323,-0.12384,0.125544,5.102284,-84.240006,-4.89769,0.002191119,-0.085464691
140078,0.105803,-0.137912,0.123711,4.534089,-84.322954,-4.265886,0.002159128,-0.074439711
140178,0.111152,-0.127424,0.119164,3.97417,-84.399092,-3.639402,0.002079769,-0.063507565
140278,0.129751,-0.092932,0.118124,3.403345,-84.454856,-2.991319,0.002061618,-0.052198517
140378,0.158496,-0.049894,0.12441,2.787343,-84.48554,-2.281346,0.002171328,-0.039809488
140478,0.182788,-0.003564,0.135229,2.103654,-84.48919,-1.489407,0.002360152,-0.025990152
140578,0.20283,0.032207,0.145724,1.363385,-84.471584,-0.629079,0.002543321,-0.010977429
140678,0.213823,0.045335,0.15353,0.587811,-84.445421,0.27308,0.002679559,0.004765246
140778,0.211841,0.051159,0.155198,-0.190547,-84.414706,1.176939,0.002708671,0.020537586
140878,0.194542,0.061322,0.154788,-0.96599,-84.376922,2.067962,0.002701515,0.036085937
140978,0.157573,0.07645,0.159113,-1.773288,-84.329145,2.969777,0.002776999,0.051822609
141078,0.094483,0.111967,0.165179,-2.626952,-84.259551,3.881956,0.002882869,0.067740132
141178,0.015256,0.172881,0.167029,-3.493308,-84.153644,4.761411,0.002915157,0.083086622
141278,-0.049302,0.21757,0.166811,-4.344779,-84.02085,5.588911,0.002911352,0.097526497
141378,-0.085176,0.206595,0.159375,-5.145021,-83.893444,6.344432,0.002781572,0.110710338
141478,-0.086461,0.178955,0.147568,-5.866713,-83.781391,7.020385,0.002575504,0.122505718
141578,-0.060491,0.149159,0.137465,-6.513905,-83.686051,7.6365,0.002399177,0.133256925
141678,-0.018763,0.155735,0.12647,-7.058268,-83.586978,8.173329,0.002207281,0.142624591
141778,0.029352,0.186914,0.116075,-7.486337,-83.470388,8.620982,0.002025857,0.150436136
141878,0.08421,0.239018,0.118071,-7.842394,-83.323664,9.027904,0.002060693,0.157536925
141978,0.129354,0.298696,0.130945,-8.176643,-83.141728,9.439053,0.002285383,0.164711475
142078,0.160108,0.352351,0.146882,-8.51045,-82.927747,9.867684,0.002563532,0.172191086
142178,0.1714,0.374203,0.154264,-8.833347,-82.700482,10.292049,0.00269237,0.179596255
142278,0.138814,0.335465,0.148515,-9.154635,-82.495441,10.696174,0.002592032,0.186648236
142378,0.06132,0.24355,0.126698,-9.473727,-82.344246,11.053466,0.00221126,0.192882982
142478,-0.087078,0.145117,0.081228,-9.746035,-82.252945,11.277863,0.001417672,0.196798709
142578,-0.267054,0.078087,0.031159,-9.957444,-82.204448,11.336773,0.000543818,0.197826689
142678,-0.41326,0.025716,-0.020384,-10.077,-82.190776,11.218433,-0.000355762,0.195761656
142778,-0.512155,-0.027373,-0.07448,-10.069003,-82.21264,10.914168,-0.001299899,0.190452232
142878,-0.515783,-0.124532,-0.095766,-10.044391,-82.291575,10.591076,-0.001671404,0.184814276
142978,-0.460497,-0.247219,-0.082785,-10.130389,-82.438556,10.411625,-0.001444847,0.181682856
143078,-0.383752,-0.381112,-0.075106,-10.308122,-82.6604,10.369109,-0.001310825,0.180940952
143178,-0.289369,-0.536126,-0.087684,-10.507622,-82.970989,10.40305,-0.001530349,0.181533223
143278,-0.117686,-0.662405,-0.112117,-10.614047,-83.355306,10.44228,-0.001956778,0.182217786
143378,0.167059,-0.686845,-0.134499,-10.4707,-83.755766,10.394286,-0.002347411,0.181380291
143478,0.466516,-0.63839,-0.154652,-9.979424,-84.130964,10.168969,-0.002699141,0.177448509
143578,0.692124,-0.564299,-0.161172,-9.196768,-84.464708,9.78086,-0.002812935,0.170676007
143678,0.783533,-0.448088,-0.144459,-8.282538,-84.730652,9.313383,-0.002521243,0.162518533
143778,0.764601,-0.321051,-0.117949,-7.369861,-84.921739,8.836734,-0.002058564,0.154201008
143878,0.634513,-0.23805,-0.096509,-6.55765,-85.063499,8.386232,-0.001684372,0.146339748
143978,0.450437,-0.201009,-0.064075,-6.009386,-85.181668,8.094868,-0.001118301,0.141255447
144078,0.265081,-0.160679,-0.008179,-5.906184,-85.273386,8.143585,-0.000142748,0.142105558
144178,0.093856,-0.086113,0.058909,-6.313951,-85.318524,8.606556,0.001028139,0.150184402
144278,-0.015096,0.000422,0.102253,-7.021744,-85.3112,9.307915,0.001784622,0.162423117
144378,-0.081227,0.028154,0.073632,-7.541485,-85.289653,9.78259,0.001285099,0.170706196
144478,-0.117803,-0.051867,0.013232,-7.737257,-85.317985,9.91118,0.000230938,0.172950091
144578,-0.115049,-0.184201,-0.025763,-7.787021,-85.424502,9.894858,-0.000449642,0.172665272
144678,-0.072034,-0.275117,-0.055392,-7.686274,-85.58496,9.752285,-0.000966757,0.170177373
144778,-0.003165,-0.298739,-0.087368,-7.315205,-85.761187,9.378221,-0.001524834,0.163649956
144878,0.063647,-0.277709,-0.116884,-6.616895,-85.927211,8.714515,-0.002039976,0.152068287
144978,0.122776,-0.258563,-0.144301,-5.581954,-86.083221,7.747449,-0.002518485,0.135192985
145078,0.152686,-0.25302,-0.151943,-4.377109,-86.235074,6.627447,-0.002651861,0.11564895
145178,0.145397,-0.265479,-0.131787,-3.268866,-86.39172,5.600257,-0.002300079,0.097724485
145278,0.132584,-0.289804,-0.083763,-2.53808,-86.559809,4.944066,-0.001461916,0.086273952
145378,0.122313,-0.315929,-0.027602,-2.315613,-86.741151,4.791287,-0.000481738,0.083607958
145478,0.100727,-0.330004,0.01641,-2.559284,-86.929477,5.092995,0.000286404,0.088872763
145578,0.062665,-0.340524,0.042925,-3.169137,-87.122929,5.739487,0.00074917,0.100154048
145678,0.007234,-0.352811,0.051064,-4.01213,-87.322657,6.58748,0.00089122,0.114951526
145778,-0.047103,-0.356134,0.046352,-4.965256,-87.523804,7.514412,0.000808981,0.131126489
145878,-0.082988,-0.347043,0.033727,-5.911329,-87.719714,8.413565,0.000588637,0.146816709
145978,-0.087055,-0.342943,0.020394,-6.817457,-87.913502,9.270288,0.000355936,0.161766526
146078,-0.060877,-0.344001,0.013585,-7.774638,-88.107832,10.192995,0.000237099,0.177867763
146178,-0.034915,-0.341585,0.011444,-8.884473,-88.30036,11.283209,0.000199732,0.196891997
146278,-0.0143,-0.345106,0.014552,-10.344471,-88.493759,12.735427,0.000253976,0.222233201
146378,-0.00316,-0.354084,0.017173,-12.33876,-88.690585,14.72835,0.00029972,0.257009708
146478,0.001573,-0.35391,0.020501,-15.125423,-88.884636,17.516377,0.000357804,0.305660779
146578,-0.000431,-0.330988,0.021631,-18.849052,-89.062266,21.240193,0.000377526,0.370641368
146678,-0.012808,-0.270702,0.013866,-22.969501,-89.204187,25.353608,0.000242003,0.44242046
146778,-0.029461,-0.170385,0.00771,-26.350478,-89.290876,28.71783,0.000134563,0.501126134
146878,-0.017988,-0.081166,-0.005875,-27.82842,-89.333586,30.185407,-0.000102536,0.526735352
146978,-0.000879,-0.036238,-0.012673,-28.07164,-89.355084,30.427975,-0.000221182,0.530968164
147078,0.007807,0.001783,-0.015377,-27.285187,-89.357997,29.645781,-0.000268375,0.517318878
147178,0.012458,0.023971,-0.014009,-26.054431,-89.349015,28.42192,-0.000244499,0.495962504
147278,0.012283,0.040919,-0.018305,-24.317726,-89.331906,26.691972,-0.000319477,0.465774911
147378,-0.003986,0.062778,-0.033271,-21.626906,-89.305818,23.998511,-0.000580679,0.418774017
147478,-0.018961,0.092378,-0.059465,-17.601191,-89.266909,19.961452,-0.001037843,0.348327337
147578,-0.005337,0.132361,-0.088415,-12.428127,-89.206193,14.7847,-0.001543107,0.257993015
147678,0.046688,0.168153,-0.116876,-6.753009,-89.121652,9.135562,-0.002039837,0.159415557
147778,0.126332,0.228055,-0.138601,-1.285067,-88.996072,3.739105,-0.002419003,0.065247382
147878,0.207844,0.321113,-0.158311,3.399814,-88.809576,-0.827696,-0.002763002,-0.014443295
147978,0.247563,0.432722,-0.17702,6.958541,-88.552611,-4.245657,-0.00308953,-0.074086715
148078,0.203266,0.557278,-0.182111,9.152894,-88.220956,-6.324547,-0.003178383,-0.110363345
148178,0.080121,0.673077,-0.17574,10.193975,-87.822986,-7.320499,-0.00306719,-0.127742708
148278,-0.061074,0.731428,-0.161861,10.535806,-87.393165,-7.697841,-0.00282496,-0.134327325
148378,-0.157196,0.740117,-0.148074,10.561755,-86.959856,-7.814189,-0.002584336,-0.136357598
148478,-0.205806,0.695834,-0.137784,10.526201,-86.552609,-7.896873,-0.002404744,-0.137800434
148578,-0.230115,0.602281,-0.122917,10.49506,-86.199696,-7.997962,-0.00214527,-0.139564437
148678,-0.217805,0.492972,-0.117155,10.580106,-85.909071,-8.208471,-0.002044706,-0.143237819
148778,-0.173453,0.34379,-0.127809,10.961773,-85.70137,-8.690972,-0.00223065,-0.151657461
148878,-0.128251,0.156322,-0.138965,11.685253,-85.597573,-9.490391,-0.002425356,-0.165607323
148978,-0.085725,-0.009409,-0.133954,12.625868,-85.586476,-10.483205,-0.002337899,-0.182931927
149078,-0.017164,-0.14012,-0.126549,13.777825,-85.647946,-11.648545,-0.00220866,-0.20326711
149178,0.017342,-0.213642,-0.123069,15.102927,-85.748787,-12.967566,-0.002147923,-0.226284027
149278,-0.011432,-0.20502,-0.120034,16.432689,-85.842995,-14.307622,-0.002094953,-0.249668004
149378,-0.098486,-0.124011,-0.107747,17.482389,-85.892733,-15.416775,-0.001880508,-0.269022724
149478,-0.238967,0.041024,-0.091819,17.943304,-85.854041,-16.016305,-0.001602517,-0.279484522
149578,-0.388205,0.233694,-0.085542,17.799308,-85.711228,-16.095088,-0.001492965,-0.280859286
149678,-0.514563,0.363626,-0.086113,17.303199,-85.49737,-15.893341,-0.00150293,-0.2773388
149778,-0.568136,0.405209,-0.073825,16.644609,-85.262688,-15.559307,-0.001288468,-0.271509907
149878,-0.524318,0.373048,-0.051395,15.975167,-85.049084,-15.189065,-0.000896997,-0.265049184
149978,-0.410931,0.332179,-0.026538,15.330005,-84.861601,-14.777857,-0.000463168,-0.257873605
150078,-0.269224,0.304318,-0.004059,14.712131,-84.692555,-14.312398,-7.08417E-05,-0.249751345
150178,-0.134197,0.267766,0.014879,14.147635,-84.546133,-13.822724,0.000259683,-0.241206534
150278,-0.041807,0.220659,0.019063,13.704279,-84.426154,-13.40146,0.000332707,-0.233855477
150378,-0.013256,0.180207,0.011982,13.388574,-84.327553,-13.091946,0.000209122,-0.228454458
150478,-0.030931,0.148113,-0.00077,13.185335,-84.245084,-12.905586,-1.34388E-05,-0.225202476
150578,-0.030624,0.091708,-0.002213,13.067174,-84.193883,-12.804539,-3.86235E-05,-0.223439206
150678,-0.013733,0.031659,0.007709,12.982035,-84.177484,-12.726947,0.000134545,-0.222085225
150778,-0.01342,-0.026553,0.022718,12.888493,-84.195503,-12.640728,0.000396497,-0.220580704
150878,-0.047083,-0.070428,0.033756,12.769352,-84.239403,-12.54817,0.000589143,-0.218965567
150978,-0.11389,-0.091961,0.040933,12.597312,-84.296187,-12.440923,0.000714404,-0.217094106
151078,-0.185739,-0.08417,0.043207,12.358861,-84.348817,-12.308319,0.000754092,-0.214780167
151178,-0.246519,-0.055054,0.037626,12.078377,-84.384368,-12.16848,0.000656687,-0.212339976
151278,-0.278872,-0.033265,0.03369,11.773338,-84.407136,-12.0226,0.000587992,-0.20979437
151378,-0.295784,-0.034661,0.030142,11.479112,-84.430182,-11.897327,0.000526068,-0.207608356
151478,-0.295505,-0.053979,0.024425,11.238985,-84.463369,-11.826251,0.00042629,-0.20636808
151578,-0.282975,-0.085979,0.015465,11.093556,-84.513522,-11.843105,0.000269911,-0.206662182
151678,-0.251957,-0.12515,0.004493,11.07547,-84.584489,-11.970024,7.84163E-05,-0.208876919
151778,-0.210035,-0.166103,-0.009067,11.213824,-84.676954,-12.229928,-0.000158246,-0.213412244
151878,-0.166231,-0.197632,-0.027548,11.537829,-84.784924,-12.651025,-0.000480795,-0.220760386
151978,-0.130191,-0.213387,-0.035651,11.970602,-84.900504,-13.160522,-0.000622217,-0.229651109
152078,-0.115812,-0.217889,-0.036411,12.445114,-85.018118,-13.703558,-0.000635481,-0.239127087
152178,-0.115705,-0.215877,-0.029873,12.898617,-85.135004,-14.225349,-0.000521373,-0.24823234
152278,-0.116349,-0.18323,-0.018624,13.248709,-85.234772,-14.643651,-0.000325045,-0.25553171
152378,-0.12016,-0.122833,-0.005231,13.423095,-85.302438,-14.887788,-9.12966E-05,-0.259791901
152478,-0.124219,-0.047804,0.00952,13.376777,-85.330187,-14.9128,0.000166153,-0.26022836
152578,-0.113527,0.003693,0.02804,13.126614,-85.331617,-14.727144,0.000489382,-0.256988663
152678,-0.102446,0.033827,0.04746,12.703188,-85.318583,-14.361275,0.000828319,-0.250604249
152778,-0.096492,0.064621,0.059393,12.15873,-85.289512,-13.870535,0.001036586,-0.242040836
152878,-0.089338,0.095985,0.06464,11.545927,-85.243044,-13.307077,0.001128162,-0.232208494
152978,-0.087224,0.13248,0.065279,10.894542,-85.175602,-12.703638,0.001139314,-0.221678483
153078,-0.085031,0.154141,0.068598,10.21434,-85.095702,-12.069951,0.001197241,-0.210620645
153178,-0.058991,0.151978,0.079947,9.499066,-85.017459,-11.386011,0.001395315,-0.198685892
153278,-0.014274,0.128796,0.089033,8.79597,-84.952403,-10.688502,0.001553893,-0.18651436
153378,0.0318,0.102152,0.095535,8.120121,-84.902232,-9.991781,0.001667372,-0.174356578
153478,0.053279,0.115427,0.099357,7.435343,-84.844052,-9.273681,0.001734078,-0.161825733
153578,0.044161,0.178799,0.100517,6.708019,-84.749083,-8.518017,0.001754323,-0.148639397
153678,-0.000843,0.282787,0.094787,5.951115,-84.593597,-7.758386,0.001654318,-0.135383836
153778,-0.061927,0.396275,0.092732,5.154703,-84.372283,-6.993984,0.001618452,-0.122045021
153878,-0.093178,0.49357,0.098931,4.324596,-84.094633,-6.213377,0.001726643,-0.108423429
153978,-0.071254,0.574604,0.110004,3.494851,-83.769951,-5.420071,0.0019199,-0.094580239
154078,-0.004431,0.639526,0.113159,2.751974,-83.407096,-4.67512,0.001974964,-0.081580844
154178,0.106605,0.656624,0.087477,2.266261,-83.032957,-4.124513,0.001526736,-0.071972752
154278,0.197616,0.660848,0.056735,2.020265,-82.655364,-3.762496,0.000990196,-0.065655555
154378,0.236547,0.642706,0.037554,1.909283,-82.287692,-3.513854,0.00065543,-0.061316752
154478,0.208658,0.579818,0.034097,1.820775,-81.955995,-3.303813,0.000595095,-0.057651537
154578,0.111565,0.457962,0.028518,1.725201,-81.694066,-3.142669,0.000497725,-0.054839574
154678,-0.018186,0.276114,0.0141,1.638827,-81.536174,-3.065871,0.000246087,-0.053499449
154778,-0.087845,0.035802,0.017314,1.528216,-81.516115,-3.004896,0.000302181,-0.052435435
154878,-0.080713,-0.18144,0.037941,1.363003,-81.620897,-2.884594,0.000662184,-0.050336165
154978,-0.014115,-0.341101,0.060907,1.154582,-81.817472,-2.682119,0.00106301,-0.046802977
155078,0.091577,-0.471433,0.067858,0.97748,-82.088755,-2.45024,0.001184326,-0.042756688
155178,0.215424,-0.54879,0.060877,0.89226,-82.404255,-2.239652,0.001062486,-0.039081927
155278,0.356329,-0.548258,0.049282,0.928218,-82.719337,-2.070019,0.000860119,-0.036121832
155378,0.49452,-0.465472,0.033551,1.105876,-82.986862,-1.963518,0.000585566,-0.034263389
155478,0.622184,-0.320868,0.011577,1.451348,-83.171323,-1.95244,0.000202053,-0.034070078
155578,0.719678,-0.153795,-0.009877,1.942832,-83.259745,-2.03216,-0.000172383,-0.035461192
155678,0.761178,0.01591,-0.0213,2.488455,-83.250677,-2.142449,-0.000371749,-0.037385735
155778,0.735104,0.182441,-0.032304,3.031469,-83.145891,-2.265171,-0.000563802,-0.039527234
155878,0.654668,0.304151,-0.044604,3.54272,-82.970965,-2.402358,-0.000778474,-0.041921147
155978,0.526518,0.351637,-0.037029,3.917157,-82.76907,-2.475714,-0.000646267,-0.043201209
156078,0.352866,0.357153,-0.004857,4.038615,-82.565292,-2.394351,-8.47692E-05,-0.041781425
156178,0.166633,0.351509,0.041381,3.858262,-82.366594,-2.116139,0.000722223,-0.036926626
156278,0.024192,0.318765,0.068906,3.502953,-82.187511,-1.743599,0.001202616,-0.030425803
156378,-0.055492,0.252395,0.064391,3.152294,-82.046001,-1.421696,0.001123816,-0.024808595
156478,-0.07363,0.138423,0.039084,2.928587,-81.968785,-1.238393,0.000682133,-0.021609958
156578,-0.041488,0.015666,0.020087,2.827825,-81.961262,-1.160632,0.000350578,-0.020253028
156678,0.014359,-0.083105,0.010353,2.818196,-82.010022,-1.142592,0.000180691,-0.01993823
156778,0.073784,-0.16802,-0.002886,2.914349,-82.107022,-1.196987,-5.03694E-05,-0.020887423
156878,0.120593,-0.233122,-0.013558,3.098398,-82.240933,-1.313019,-0.000236628,-0.022912182
156978,0.14579,-0.270232,-0.017445,3.327862,-82.395869,-1.460274,-0.000304468,-0.025481781
157078,0.158707,-0.284651,-0.017184,3.57525,-82.558944,-1.618095,-0.000299912,-0.028235758
157178,0.155817,-0.286326,-0.005379,3.777548,-82.723289,-1.732067,-9.38797E-05,-0.030224569
157278,0.148014,-0.260059,0.015424,3.879126,-82.873333,-1.74899,0.000269195,-0.030519876
157378,0.147161,-0.201032,0.030847,3.892014,-82.990192,-1.677038,0.000538373,-0.029264313
157478,0.151959,-0.138726,0.049953,3.796819,-83.072131,-1.493449,0.00087183,-0.026060685
157578,0.144152,-0.102652,0.07328,3.571857,-83.134228,-1.183686,0.001278956,-0.020655321
157678,0.117029,-0.117433,0.091422,3.24312,-83.205217,-0.785107,0.001595588,-0.013700117
157778,0.085616,-0.171543,0.104643,2.837033,-83.307266,-0.326838,0.001826334,-0.005703323
157878,0.063792,-0.225143,0.116732,2.355595,-83.439893,0.194583,0.002037324,0.003395473
157978,0.052836,-0.265214,0.119617,1.838688,-83.59499,0.745228,0.002087676,0.013004229
158078,0.037288,-0.257746,0.112605,1.321817,-83.745118,1.286703,0.001965295,0.022452967
158178,0.027948,-0.245067,0.09777,0.851712,-83.887268,1.775598,0.00170638,0.030984185
158278,-0.001607,-0.245745,0.084591,0.413559,-84.029243,2.215196,0.001476367,0.03865517
158378,-0.035694,-0.239829,0.071264,0.008738,-84.167383,2.60153,0.001243771,0.045396699
158478,-0.058723,-0.232383,0.064763,-0.39126,-84.300913,2.969652,0.001130309,0.051820427
158578,-0.074068,-0.191242,0.057849,-0.774967,-84.410588,3.312484,0.001009639,0.057802846
158678,-0.083494,-0.129446,0.05425,-1.150123,-84.484622,3.641241,0.000946825,0.063539655
158778,-0.094329,-0.098684,0.049709,-1.509225,-84.540856,3.947593,0.000867571,0.068885498
158878,-0.085001,-0.11009,0.045166,-1.84479,-84.603492,4.235636,0.000788282,0.073911848
158978,-0.060669,-0.144805,0.042357,-2.16467,-84.685879,4.52189,0.000739257,0.078906981
159078,-0.029802,-0.191064,0.035668,-2.44709,-84.794737,4.788239,0.000622514,0.083554771
159178,0.014522,-0.236446,0.026667,-2.671815,-84.929664,5.022101,0.000465419,0.087635662
159278,0.075474,-0.265931,0.024375,-2.868895,-85.081413,5.263213,0.000425417,0.091843067
159378,0.144125,-0.285856,0.025824,-3.057948,-85.244414,5.535682,0.000450706,0.096597651
159478,0.207098,-0.286215,0.024655,-3.219238,-85.407554,5.816428,0.000430304,0.101496669
159578,0.281834,-0.255295,0.019312,-3.301146,-85.553112,6.060435,0.000337052,0.105754591
159678,0.365413,-0.217844,0.008374,-3.246604,-85.677596,6.215571,0.000146151,0.108461714
159778,0.451904,-0.178532,0.000366,-3.066405,-85.779869,6.294368,6.3878E-06,0.109836722
159878,0.519847,-0.12175,-0.014435,-2.705151,-85.850092,6.230648,-0.000251934,0.108724808
159978,0.512419,-0.065572,-0.040006,-2.118323,-85.888697,5.936502,-0.000698225,0.10359196
160078,0.415301,-0.041454,-0.062902,-1.389744,-85.91357,5.444462,-0.001097829,0.095005862
160178,0.256773,-0.035447,-0.083045,-0.581304,-85.934598,4.781308,-0.001449384,0.083433825
160278,0.066107,-0.004328,-0.108279,0.329183,-85.936948,3.906334,-0.001889793,0.068165528
160378,-0.129352,0.10043,-0.151822,1.459083,-85.877601,2.699071,-0.002649749,0.047098789
160478,-0.258372,0.253027,-0.219103,2.946911,-85.727282,1.058633,-0.003824005,0.018473146
160578,-0.296887,0.382316,-0.283407,4.70168,-85.49714,-0.872071,-0.004946302,-0.015217639
160678,-0.28383,0.432498,-0.330507,6.567536,-85.231138,-2.907377,-0.005768339,-0.050733729
160778,-0.283179,0.435346,-0.335521,8.256208,-84.958199,-4.765267,-0.005855848,-0.083153909
160878,-0.282507,0.414481,-0.32729,9.733905,-84.693619,-6.411697,-0.005712192,-0.111884113
160978,-0.240266,0.330061,-0.282402,10.921172,-84.478067,-7.742718,-0.004928762,-0.135110429
161078,-0.197882,0.174908,-0.219223,11.866821,-84.35482,-8.806936,-0.003826099,-0.153681033
161178,-0.178593,-0.024455,-0.17576,12.790774,-84.347144,-9.838348,-0.003067539,-0.171679173
161278,-0.139567,-0.215014,-0.147695,13.84099,-84.447964,-10.97406,-0.002577721,-0.191497347
161378,-0.0825,-0.352729,-0.145102,15.166449,-84.623432,-12.353139,-0.002532465,-0.215562276
161478,-0.033494,-0.433768,-0.154388,16.815549,-84.838683,-14.028575,-0.002694534,-0.244798634
161578,-0.060178,-0.466068,-0.186473,18.863458,-85.060804,-16.119134,-0.003254513,-0.281278888
161678,-0.176015,-0.412274,-0.227108,21.163975,-85.238715,-18.529185,-0.003963716,-0.323334278
161778,-0.337803,-0.193088,-0.189008,22.692809,-85.301165,-20.257516,-0.003298757,-0.353493654
161878,-0.461508,0.094521,-0.117144,22.931393,-85.225347,-20.762316,-0.002044514,-0.362302414
161978,-0.485728,0.280286,-0.060083,22.310393,-85.063989,-20.418445,-0.001048629,-0.356301865
162078,-0.454314,0.306606,-0.010157,21.378133,-84.898993,-19.74395,-0.00017727,-0.344531928
162178,-0.393564,0.212352,0.027119,20.520837,-84.791332,-19.109615,0.000473308,-0.333462782
162278,-0.306654,0.085439,0.048872,19.884421,-84.755654,-18.646992,0.000852963,-0.32539001
162378,-0.222016,0.003471,0.06734,19.364767,-84.76747,-18.252908,0.001175285,-0.318513245
162478,-0.179876,-0.049911,0.072822,18.943444,-84.809006,-17.933331,0.001270962,-0.312936626
162578,-0.174436,-0.090504,0.063919,18.655487,-84.870802,-17.744558,0.001115578,-0.309642537
162678,-0.161403,-0.135085,0.049079,18.552047,-84.954082,-17.733555,0.000856576,-0.309450535
162778,-0.11809,-0.161471,0.031006,18.640769,-85.048416,-17.890534,0.000541148,-0.312189818
162878,-0.052389,-0.165436,0.012283,18.900899,-85.141413,-18.181745,0.000214375,-0.31727145
162978,-0.025822,-0.162955,2.20E-05,19.261742,-85.230626,-18.558708,3.83966E-07,-0.323849455
163078,-0.078094,-0.151792,-0.002043,19.594488,-85.313203,-18.937481,-3.56565E-05,-0.330459043
163178,-0.175921,-0.130258,0.012356,19.735817,-85.386783,-19.180397,0.000215649,-0.334697928
163278,-0.281132,-0.096695,0.032054,19.60775,-85.446026,-19.213507,0.000559438,-0.335275697
163378,-0.348983,-0.071586,0.047779,19.270923,-85.494691,-19.076197,0.000833887,-0.332879638
163478,-0.370597,-0.0606,0.066141,18.762885,-85.540738,-18.779585,0.001154359,-0.327703758
163578,-0.361829,-0.060993,0.073403,18.201429,-85.588088,-18.424375,0.001281103,-0.321505344
163678,-0.341983,-0.069867,0.077645,17.631582,-85.640738,-18.049371,0.001355138,-0.314961524
163778,-0.305868,-0.058845,0.077789,17.04551,-85.687075,-17.637371,0.001357651,-0.307772124
163878,-0.274768,-0.024867,0.071607,16.438325,-85.713399,-17.186351,0.001249757,-0.299901825
163978,-0.258379,0.001763,0.055038,15.900756,-85.722071,-16.795735,0.000960578,-0.293085576
164078,-0.233698,-0.00234,0.043295,15.471324,-85.730923,-16.499382,0.000755628,-0.287914216
164178,-0.203524,-0.011119,0.036789,15.12416,-85.743468,-16.268194,0.000642078,-0.283879985
164278,-0.163615,-0.033705,0.029141,14.900517,-85.767251,-16.137945,0.000508598,-0.28160714
164378,-0.126088,-0.050097,0.030648,14.71779,-85.800248,-16.027173,0.0005349,-0.279674169
164478,-0.103548,-0.052551,0.04421,14.447362,-85.836474,-15.815527,0.000771597,-0.275980946
164578,-0.096998,-0.050499,0.061514,14.03928,-85.87386,-15.462116,0.001073604,-0.269813924
164678,-0.083112,-0.03816,0.076042,13.495856,-85.906106,-14.96506,0.001327161,-0.261140297
164778,-0.050418,-0.01297,0.0825,12.866944,-85.924737,-14.363536,0.001439873,-0.250643703
164878,-0.020659,0.005966,0.086676,12.184369,-85.932768,-13.691134,0.001512756,-0.238910288
164978,0.001953,0.006093,0.091647,11.47276,-85.940688,-12.976647,0.001599515,-0.22644249
165078,0.020135,-0.000509,0.10717,10.655399,-85.953297,-12.145714,0.001870438,-0.211942709
165178,0.01587,-0.002125,0.124314,9.69551,-85.967567,-11.174369,0.002169652,-0.194992739
165278,-0.007215,0.02579,0.145237,8.513346,-85.966569,-9.993471,0.002534821,-0.174386069
165378,-0.044875,0.081241,0.166344,7.085123,-85.933744,-8.587514,0.002903202,-0.149852119
165478,-0.079245,0.158185,0.175707,5.527232,-85.855012,-7.071207,0.003066614,-0.123392562
165578,-0.103581,0.215306,0.178596,3.961141,-85.740788,-5.560478,0.003117036,-0.097030341
165678,-0.116124,0.227502,0.172545,2.510924,-85.616456,-4.172928,0.003011428,-0.072817594
165778,-0.103781,0.207968,0.160554,1.237327,-85.500586,-2.955215,0.002802149,-0.051568502
165878,-0.085206,0.1919,0.138772,0.192739,-85.391838,-1.956372,0.002421988,-0.034138691
165978,-0.068005,0.192015,0.11619,-0.637425,-85.28175,-1.162622,0.002027864,-0.020287754
166078,-0.059997,0.20351,0.0943,-1.275234,-85.164421,-0.557163,0.001645818,-0.009722494
166178,-0.06513,0.215231,0.07334,-1.745094,-85.040154,-0.123111,0.001280003,-0.002148287
166278,-0.084474,0.217382,0.054054,-2.078674,-84.914693,0.16309,0.000943404,0.002845921
166378,-0.105495,0.227348,0.038615,-2.309348,-84.783646,0.333931,0.000673948,0.005827096
166478,-0.118387,0.263908,0.022289,-2.427847,-84.631906,0.384736,0.00038901,0.006713643
166578,-0.089792,0.307659,0.016318,-2.478717,-84.455157,0.384075,0.000284798,0.006702109
166678,-0.019268,0.360505,0.017788,-2.483366,-84.24802,0.377571,0.000310454,0.006588614
166778,0.068757,0.43615,0.023172,-2.450086,-83.997361,0.383638,0.000404421,0.006694483
166878,0.137735,0.516253,0.04247,-2.461795,-83.700307,0.474709,0.000741229,0.008283672
166978,0.177444,0.591093,0.077252,-2.601867,-83.359493,0.717923,0.001348279,0.012527756
167078,0.203788,0.628577,0.100076,-2.806673,-82.996547,1.041715,0.001746626,0.018177927
167178,0.203619,0.614197,0.097225,-2.976394,-82.641861,1.330308,0.001696868,0.023213875
167278,0.1362,0.539205,0.074736,-3.08495,-82.330797,1.518475,0.001304367,0.026497389
167378,-0.001136,0.421825,0.021161,-3.065777,-82.088681,1.498445,0.000369323,0.026147865
167478,-0.198179,0.291406,-0.040502,-2.938543,-81.923228,1.255298,-0.000706881,0.02190495
167578,-0.380638,0.161112,-0.084454,-2.772155,-81.833695,0.866942,-0.001473976,0.015128138
167678,-0.450324,-0.006666,-0.121765,-2.531728,-81.84114,0.363428,-0.002125165,0.006341819
167778,-0.400413,-0.183155,-0.128079,-2.263113,-81.949569,-0.139592,-0.002235363,-0.00243588
167878,-0.293127,-0.358825,-0.118766,-1.984386,-82.15813,-0.590561,-0.002072823,-0.010305289
167978,-0.14883,-0.509037,-0.106138,-1.67463,-82.452216,-0.98915,-0.001852427,-0.017260668
168078,0.045942,-0.58562,-0.091684,-1.295979,-82.789645,-1.344404,-0.001600161,-0.02345985
168178,0.271894,-0.535994,-0.080763,-0.798004,-83.098154,-1.689208,-0.001409557,-0.02947668
168278,0.481621,-0.383828,-0.066684,-0.204129,-83.318973,-2.009398,-0.001163836,-0.035063995
168378,0.612138,-0.188697,-0.038044,0.347923,-83.427621,-2.212104,-0.000663982,-0.038601215
168478,0.664306,-0.003741,-0.004771,0.764086,-83.430312,-2.247919,-8.32683E-05,-0.039226187
168578,0.656219,0.145503,0.018106,1.049949,-83.347723,-2.157234,0.000316004,-0.037643733
168678,0.600356,0.239014,0.02643,1.25214,-83.211753,-2.014506,0.000461283,-0.03515313
168778,0.492311,0.27175,0.031123,1.366121,-83.057191,-1.845238,0.00054319,-0.032199403
168878,0.344989,0.252908,0.046431,1.329118,-82.913699,-1.608837,0.00081036,-0.028074206
168978,0.192292,0.225152,0.072121,1.097185,-82.786406,-1.264078,0.001258728,-0.022058161
169078,0.07366,0.215876,0.098785,0.689826,-82.664483,-0.810893,0.001724095,-0.014150083
169178,-0.011408,0.232847,0.10365,0.226663,-82.532481,-0.350452,0.001809003,-0.006115387
169278,-0.063623,0.241578,0.080798,-0.151928,-82.395093,-0.005354,0.001410167,-9.34273E-05
169378,-0.075762,0.195971,0.054526,-0.415278,-82.283713,0.216551,0.000951642,0.003778815
169478,-0.048398,0.129311,0.037862,-0.589626,-82.210536,0.364507,0.000660805,0.006360647
169578,0.005181,0.07251,0.014711,-0.637077,-82.170022,0.415383,0.000256751,0.007248433
169678,0.072514,0.017106,-0.012164,-0.536458,-82.16141,0.355738,-0.000212298,0.006207628
169778,0.141091,-0.045034,-0.030253,-0.323289,-82.188439,0.222146,-0.000528006,0.003876448
169878,0.186419,-0.082015,-0.030976,-0.080372,-82.236551,0.08475,-0.000540624,0.001478888
169978,0.207272,-0.078577,-0.01272,0.099484,-82.282577,0.023063,-0.000222002,0.000402449
170078,0.202811,-0.027816,0.021167,0.133575,-82.299487,0.10589,0.000369428,0.001847781
170178,0.162063,0.046116,0.045783,0.039513,-82.27401,0.294475,0.000799051,0.005138589
170278,0.120558,0.088291,0.059619,-0.135219,-82.224275,0.540487,0.00104053,0.009431498
170378,0.080563,0.091938,0.06396,-0.348255,-82.172307,0.802059,0.001116294,0.01399593
170478,0.047859,0.07047,0.061215,-0.566503,-82.132499,1.050003,0.001068385,0.018322552
170578,0.026165,0.057052,0.059957,-0.790493,-82.10024,1.291212,0.00104643,0.022531649
170678,0.005462,0.049095,0.058971,-1.021081,-82.072406,1.527124,0.001029221,0.026648314
170778,-0.008775,0.031329,0.057633,-1.254468,-82.054621,1.757634,0.001005869,0.030670713
170878,-0.019821,0.011754,0.055396,-1.486286,-82.047927,1.980173,0.000966826,0.034554019
170978,-0.023817,-0.005994,0.052659,-1.711233,-82.051283,2.193457,0.000919058,0.038275825
171078,-0.030522,-0.019093,0.050638,-1.934014,-82.062016,2.400665,0.000883785,0.041891604
171178,-0.041623,-0.017682,0.047106,-2.149274,-82.071847,2.593845,0.000822141,0.045262595
171278,-0.042615,0.005471,0.043444,-2.346882,-82.068347,2.76862,0.000758228,0.048312419
171378,-0.040827,0.045255,0.037191,-2.510667,-82.042084,2.910279,0.000649095,0.050784369
171478,-0.048308,0.095957,0.022289,-2.60762,-81.987078,2.980134,0.00038901,0.052003338
171578,-0.048256,0.119092,0.00626,-2.634453,-81.919188,2.979208,0.000109256,0.05198718
171678,-0.051472,0.103957,-0.008258,-2.607654,-81.860295,2.922244,-0.000144127,0.050993158
171778,-0.041937,0.053032,-0.021408,-2.532732,-81.830843,2.822175,-0.000373634,0.049246954
171878,-0.003833,-0.017083,-0.028834,-2.418981,-81.841644,2.70493,-0.00050324,0.047201029
171978,0.049496,-0.066349,-0.033974,-2.261752,-81.880683,2.574633,-0.000592948,0.044927346
172078,0.100002,-0.087632,-0.03527,-2.072219,-81.931835,2.440947,-0.000615567,0.042594525
172178,0.145659,-0.093982,-0.035916,-1.852816,-81.986529,2.303527,-0.000626842,0.040196546
172278,0.184431,-0.095839,-0.036404,-1.607114,-82.04219,2.161997,-0.000635359,0.037726848
172378,0.223054,-0.120028,-0.040695,-1.321437,-82.111656,2.002468,-0.00071025,0.034943067
172478,0.249044,-0.170454,-0.051144,-0.977378,-82.209982,1.799067,-0.000892616,0.031393719
172578,0.256367,-0.219767,-0.060065,-0.586925,-82.336409,1.553131,-0.001048314,0.027102136
172678,0.257836,-0.244666,-0.068223,-0.150288,-82.476825,1.261524,-0.001190696,0.022013594
172778,0.263752,-0.251836,-0.068323,0.303996,-82.620959,0.955627,-0.001192441,0.016675691
172878,0.270599,-0.216057,-0.067457,0.77135,-82.744175,0.640595,-0.001177327,0.011178383
172978,0.267159,-0.150282,-0.065531,1.235156,-82.829309,0.327218,-0.001143713,0.005709954
173078,0.248551,-0.091597,-0.072696,1.722638,-82.880313,-0.020723,-0.001268763,-0.000361616
173178,0.221364,-0.057583,-0.080838,2.231998,-82.911221,-0.406384,-0.001410866,-0.007091401
173278,0.174102,-0.022385,-0.095294,2.777083,-82.921094,-0.85532,-0.001663166,-0.014925334
173378,0.113253,0.034948,-0.119221,3.383513,-82.896772,-1.40122,-0.002080764,-0.024451289
173478,0.06715,0.08868,-0.146719,4.068003,-82.83983,-2.052464,-0.002560687,-0.035815497
173578,0.031477,0.109162,-0.178358,4.856575,-82.768606,-2.829318,-0.003112882,-0.049371599
173678,0.001514,0.116728,-0.216879,5.780884,-82.689415,-3.760452,-0.003785189,-0.065619887
173778,-0.013708,0.134965,-0.259372,6.853356,-82.594947,-4.849967,-0.00452682,-0.084631924
173878,-0.017704,0.18577,-0.293467,8.012091,-82.46621,-6.029081,-0.00512188,-0.105207463
173978,-0.023119,0.272955,-0.314497,9.157149,-82.283054,-7.197967,-0.005488916,-0.125604524
174078,-0.036906,0.391477,-0.312117,10.144049,-82.030183,-8.215795,-0.005447378,-0.143365623
174178,-0.093255,0.504502,-0.290034,10.866115,-81.713811,-8.99944,-0.005061963,-0.157040228
174278,-0.128012,0.558538,-0.248969,11.319741,-81.370439,-9.532501,-0.004345256,-0.166342142
174378,-0.070661,0.545661,-0.188965,11.563238,-81.040695,-9.820168,-0.003298006,-0.171361932
174478,0.046043,0.514976,-0.108906,11.599759,-80.737384,-9.830751,-0.001900736,-0.171546605
174578,0.216963,0.468111,-0.025125,11.482889,-80.470147,-9.586603,-0.000438507,-0.167286222
174678,0.362354,0.376284,0.023155,11.359998,-80.260095,-9.251674,0.000404124,-0.161441711
174778,0.369445,0.256031,0.056786,11.218615,-80.12151,-8.893665,0.000991086,-0.155194454
174878,0.334094,0.082128,0.077386,11.106332,-80.083071,-8.585639,0.001350618,-0.149819401
174978,0.370333,-0.122247,0.069081,11.171481,-80.158777,-8.436634,0.001205671,-0.147219263
175078,0.445497,-0.298188,0.051726,11.451432,-80.331581,-8.461919,0.000902774,-0.147660487
175178,0.446423,-0.404228,0.02759,11.893074,-80.561108,-8.650597,0.000481528,-0.150952918
175278,0.318839,-0.405061,0.000976,12.369502,-80.787639,-8.948469,1.70341E-05,-0.156150784
175378,0.104793,-0.268369,0.000169,12.636597,-80.937267,-9.158366,2.94956E-06,-0.159813487
175478,-0.102935,-0.059294,0.008919,12.59421,-80.971011,-9.175339,0.000155663,-0.160109666
175578,-0.248377,0.102291,0.038879,12.238281,-80.918079,-8.959185,0.000678555,-0.156337778
175678,-0.343484,0.143228,0.088481,11.62929,-80.847901,-8.541863,0.001544259,-0.149055509
175778,-0.386114,0.086309,0.11948,10.935545,-80.812599,-8.063349,0.002085284,-0.14070544
175878,-0.357089,0.008949,0.12459,10.294998,-80.820701,-7.621837,0.002174469,-0.133001056
175978,-0.265212,-0.056545,0.103838,9.819077,-80.863176,-7.293769,0.001812285,-0.127276269
176078,-0.131221,-0.109386,0.06725,9.57727,-80.931807,-7.125086,0.001173714,-0.124332751
176178,-0.003069,-0.175608,0.049385,9.509347,-81.036224,-7.05815,0.000861916,-0.123164718
176278,0.083778,-0.246579,0.049392,9.532819,-81.180845,-7.033375,0.000862039,-0.122732394
176378,0.108945,-0.286278,0.057322,9.565976,-81.348725,-7.003817,0.001000441,-0.122216607
176478,0.091002,-0.315915,0.0802,9.520773,-81.535567,-6.905429,0.001399731,-0.120499736
176578,0.034947,-0.311477,0.108222,9.328013,-81.722518,-6.690407,0.001888799,-0.116747602
176678,-0.046957,-0.273021,0.136856,8.940194,-81.890165,-6.325825,0.002388548,-0.110385646
176778,-0.1398,-0.219606,0.162471,8.346744,-82.029313,-5.807436,0.002835606,-0.101339758
176878,-0.219822,-0.172926,0.186602,7.562033,-82.143005,-5.142399,0.003256765,-0.089734863
176978,-0.264881,-0.143144,0.207203,6.629473,-82.239834,-4.354359,0.003616314,-0.075983565
177078,-0.265413,-0.134244,0.224031,5.600244,-82.330772,-3.469253,0.003910013,-0.060538465
177178,-0.243737,-0.135746,0.233353,4.521586,-82.420832,-2.521935,0.00407271,-0.044007766
177278,-0.215755,-0.134629,0.23051,3.447407,-82.507755,-1.563161,0.004023091,-0.027277159
177378,-0.195065,-0.125392,0.210403,2.448744,-82.5865,-0.668774,0.003672164,-0.011670106
177478,-0.181212,-0.108298,0.179972,1.571621,-82.652924,0.110913,0.003141051,0.001935432
177578,-0.171245,-0.099431,0.148918,0.8243,-82.712466,0.765379,0.002599066,0.013355864
177678,-0.16627,-0.107154,0.117605,0.210345,-82.77528,1.288186,0.00205256,0.022478846
177778,-0.157625,-0.129676,0.087103,-0.269563,-82.850377,1.680799,0.001520209,0.029329943
177878,-0.141224,-0.149426,0.064587,-0.645997,-82.936513,1.978536,0.001127237,0.034525453
177978,-0.124079,-0.151708,0.053866,-0.970581,-83.023791,2.233872,0.000940123,0.038981066
178078,-0.119008,-0.139097,0.059181,-1.323184,-83.103565,2.520313,0.001032886,0.043979462
178178,-0.122228,-0.105075,0.082031,-1.789354,-83.163212,2.919237,0.001431687,0.050940686
178278,-0.13195,-0.068769,0.104792,-2.370963,-83.201122,3.42877,0.001828935,0.059832037
178378,-0.152164,-0.046861,0.126749,-3.070327,-83.225188,4.04519,0.00221215,0.070588566
178478,-0.184228,-0.038327,0.135878,-3.833693,-83.243098,4.707532,0.002371479,0.082146433
178578,-0.211782,-0.041873,0.128731,-4.582932,-83.262278,5.339726,0.002246742,0.093178219
178678,-0.221411,-0.049131,0.116148,-5.283384,-83.285257,5.917209,0.002027131,0.103255297
178778,-0.209386,-0.051737,0.113291,-5.968314,-83.309036,6.485973,0.001977268,0.113180229
178878,-0.185268,-0.032577,0.114072,-6.63655,-83.32104,7.051818,0.001990899,0.123054224
178978,-0.152716,-0.004216,0.118233,-7.290777,-83.315829,7.622331,0.002063521,0.133009676
179078,-0.118726,0.012513,0.125021,-7.946064,-83.2998,8.213528,0.002181992,0.143326064
179178,-0.081204,0.00846,0.13041,-8.605698,-83.284781,8.830764,0.002276046,0.154096832
179278,-0.045528,0.009103,0.142936,-9.301504,-83.267363,9.505022,0.002494662,0.165862634
179378,-0.020758,0.026391,0.149706,-9.997259,-83.238497,10.193546,0.002612819,0.177877378
179478,-0.002031,0.04773,0.153816,-10.676712,-83.196138,10.876507,0.002684551,0.189795047
179578,0.002657,0.078793,0.159038,-11.340135,-83.134724,11.546097,0.00277569,0.201479393
179678,-0.019673,0.121334,0.157851,-11.957146,-83.04863,12.156151,0.002754974,0.212124835
179778,-0.06582,0.157111,0.149487,-12.511257,-82.942729,12.676318,0.002608997,0.221201749
179878,-0.117145,0.176287,0.137212,-13.004166,-82.827057,13.105297,0.002394761,0.228687433
179978,-0.148957,0.171347,0.123352,-13.444867,-82.715496,13.463385,0.002152862,0.234936068
180078,-0.137724,0.159441,0.111237,-13.827306,-82.611839,13.769306,0.001941419,0.24027439
180178,-0.083643,0.172623,0.09201,-14.073824,-82.503236,13.969476,0.001605851,0.243767356
180278,0.000451,0.238332,0.068559,-14.099392,-82.361245,13.995419,0.00119656,0.244220062
180378,0.094859,0.349318,0.051119,-13.887154,-82.15988,13.835969,0.00089218,0.241437659
180478,0.192556,0.471476,0.053019,-13.519973,-81.890059,13.576499,0.000925341,0.236909908
180578,0.296619,0.561659,0.079486,-13.13439,-81.56617,13.358492,0.001387269,0.233105685
180678,0.389712,0.591408,0.100078,-12.769022,-81.222808,13.214691,0.001746661,0.230596358
180778,0.421684,0.57705,0.104456,-12.431472,-80.886838,13.117465,0.001823071,0.228899764
180878,0.376977,0.512446,0.108848,-12.196895,-80.586521,13.098538,0.001899724,0.228569488
180978,0.252613,0.377927,0.082273,-12.047941,-80.364933,13.094175,0.001435911,0.228493354
181078,0.014277,0.193266,0.018384,-11.957586,-80.254722,13.010737,0.000320856,0.227037361
181178,-0.213238,0.006294,-0.051139,-11.901035,-80.25781,12.829329,-0.000892529,0.223871791
181278,-0.303313,-0.138126,-0.118453,-11.773816,-80.349961,12.523904,-0.00206736,0.218542125
181378,-0.31058,-0.242331,-0.126728,-11.690596,-80.501591,12.25899,-0.002211784,0.213919376
181478,-0.24828,-0.376523,-0.093664,-11.77354,-80.724773,12.198818,-0.001634718,0.212869374
181578,-0.175579,-0.555851,-0.069305,-12.034954,-81.045743,12.361626,-0.00120958,0.215710374
181678,-0.030012,-0.706509,-0.066262,-12.360656,-81.450637,12.673694,-0.001156471,0.22115596
181778,0.241538,-0.779662,-0.065704,-12.625995,-81.896138,13.081642,-0.001146732,0.228274653
181878,0.55097,-0.704115,-0.066417,-12.674582,-82.299285,13.44931,-0.001159176,0.23469046
181978,0.737654,-0.481661,-0.068217,-12.411795,-82.578265,13.610471,-0.001190591,0.237502719
182078,0.745681,-0.20822,-0.077291,-11.839396,-82.705244,13.464005,-0.00134896,0.234946887
182178,0.639394,-0.019598,-0.079981,-11.13538,-82.726357,13.12348,-0.001395908,0.229004726
182278,0.469886,0.053188,-0.094288,-10.402413,-82.707466,12.65586,-0.001645608,0.220844757
182378,0.335981,0.059712,-0.10764,-9.685409,-82.685487,12.126964,-0.001878641,0.211615522
182478,0.252707,0.05535,-0.10676,-9.026545,-82.665116,11.60856,-0.001863282,0.202569372
182578,0.195151,0.04912,-0.097178,-8.449813,-82.646775,11.1397,-0.001696048,0.194387765
182678,0.151389,0.021545,-0.093353,-7.934338,-82.643252,10.707317,-0.00162929,0.186842682
182778,0.095843,-0.019721,-0.101846,-7.437599,-82.663377,10.261747,-0.001777518,0.179067485
182878,0.027272,-0.084935,-0.110038,-6.976875,-82.720727,9.812918,-0.001920493,0.171235419
182978,-0.016135,-0.160528,-0.099997,-6.618617,-82.820019,9.442388,-0.001745248,0.164769671
183078,-0.024342,-0.203581,-0.081941,-6.359957,-82.942407,9.16758,-0.001430116,0.159974271
183178,0.00011,-0.200903,-0.061865,-6.170749,-83.061873,8.97693,-0.00107973,0.156647429
183278,0.031937,-0.156454,-0.050373,-5.98928,-83.155224,8.812486,-0.00087916,0.153777881
183378,0.051994,-0.09906,-0.044903,-5.789932,-83.215457,8.641635,-0.000783692,0.150796531
183478,0.068482,-0.063556,-0.0343,-5.612336,-83.254761,8.502217,-0.000598638,0.148363687
183578,0.070258,-0.057529,-0.014098,-5.527213,-83.289447,8.456948,-0.000246052,0.147573743
183678,0.06776,-0.071915,0.004189,-5.538949,-83.331303,8.507763,7.31106E-05,0.148460464
183778,0.048742,-0.101562,0.019781,-5.653114,-83.389162,8.650722,0.000345238,0.150955099
183878,0.014932,-0.126532,0.023978,-5.822548,-83.460944,8.829794,0.000418488,0.154079905
183978,-0.016947,-0.143346,0.022524,-6.015829,-83.542297,9.014455,0.000393111,0.15730224
184078,-0.033861,-0.155813,0.017629,-6.20563,-83.630946,9.185829,0.000307679,0.160292716
184178,-0.040878,-0.169967,0.01576,-6.403084,-83.727679,9.360824,0.000275059,0.163346379
184278,-0.0373,-0.190253,0.01448,-6.609916,-83.835947,9.54728,0.000252719,0.166600036
184378,-0.03013,-0.201219,0.012667,-6.816975,-83.950473,9.738054,0.000221077,0.169929042
184478,-0.030085,-0.201173,0.002027,-6.973536,-84.065606,9.878037,3.53772E-05,0.172371746
184578,-0.029241,-0.19078,-0.008877,-7.067614,-84.175522,9.955661,-0.00015493,0.173726284
184678,-0.014498,-0.195944,-0.017468,-7.111499,-84.288933,9.991311,-0.000304869,0.174348377
184778,-0.001734,-0.206782,-0.019995,-7.143002,-84.40864,10.021857,-0.000348973,0.174881405
184878,0.00412,-0.208857,-0.023491,-7.153429,-84.529727,10.034591,-0.000409988,0.175103613
184978,0.015032,-0.197184,-0.028502,-7.118922,-84.644482,10.008465,-0.000497445,0.174647714
185078,0.027719,-0.170624,-0.029997,-7.046228,-84.744184,9.95129,-0.000523538,0.173650011
185178,0.038465,-0.129566,-0.038336,-6.881085,-84.82105,9.80747,-0.000669078,0.171140352
185278,0.034831,-0.086243,-0.050165,-6.606064,-84.873962,9.55125,-0.00087553,0.166669313
185378,0.030393,-0.056415,-0.062133,-6.230506,-84.910486,9.191554,-0.001084407,0.160392617
185478,0.047392,-0.022673,-0.07432,-5.739599,-84.928233,8.725848,-0.001297107,0.152266048
185578,0.086388,0.023385,-0.084721,-5.129339,-84.919849,8.162753,-0.001478636,0.14244004
185678,0.131062,0.071096,-0.093535,-4.415451,-84.884042,7.521296,-0.001632466,0.131246615
185778,0.157572,0.120691,-0.104311,-3.607862,-84.819539,6.800957,-0.00182054,0.1186767
185878,0.152596,0.149003,-0.118049,-2.728189,-84.7383,6.005288,-0.002060309,0.104792276
185978,0.145996,0.153407,-0.12687,-1.823365,-84.653601,5.180455,-0.002214262,0.09039894
186078,0.1678,0.154947,-0.138193,-0.865294,-84.566926,4.314569,-0.002411882,0.075289229
186178,0.222748,0.180553,-0.154896,0.193487,-84.464205,3.379003,-0.0027034,0.058963602
186278,0.293336,0.254018,-0.182476,1.405558,-84.317401,2.329849,-0.003184754,0.040655865
186378,0.338508,0.37336,-0.217819,2.752714,-84.099226,1.170595,-0.003801595,0.020426883
186478,0.316298,0.524067,-0.266619,4.1999,-83.790291,-0.102603,-0.004653301,-0.001790422
186578,0.235868,0.684222,-0.319543,5.658604,-83.383899,-1.434637,-0.005576984,-0.025034416
186678,0.116215,0.816418,-0.356014,6.98295,-82.896308,-2.70161,-0.006213512,-0.047143095
186778,-0.0171,0.880351,-0.373127,8.100968,-82.367908,-3.838967,-0.006512186,-0.066989974
186878,-0.122142,0.882275,-0.375669,9.023623,-81.835642,-4.841269,-0.006556551,-0.084480144
186978,-0.17426,0.866181,-0.346454,9.701881,-81.313336,-5.628022,-0.006046662,-0.098208984
187078,-0.167546,0.833994,-0.299666,10.158126,-80.812779,-6.187215,-0.005230071,-0.107966902
187178,-0.169483,0.775107,-0.202941,10.276613,-80.354977,-6.405914,-0.003541929,-0.111783199
187278,-0.177961,0.618537,-0.155964,10.316882,-79.990414,-6.550418,-0.00272204,-0.114304794
187378,-0.175667,0.288864,-0.14941,10.521133,-79.812496,-6.860255,-0.002607653,-0.11971145
187478,-0.148422,-0.111692,-0.150922,10.97692,-79.859786,-7.409826,-0.002634042,-0.129301464
187578,-0.046106,-0.431136,-0.166332,11.754994,-80.083854,-8.2269,-0.002902992,-0.143559405
187678,0.105044,-0.620691,-0.181227,12.84771,-80.409899,-9.274656,-0.003162955,-0.161842747
187778,0.186079,-0.736576,-0.210941,14.264083,-80.792503,-10.602304,-0.003681553,-0.185010205
187878,0.095817,-0.721461,-0.229929,15.798218,-81.158114,-12.100145,-0.004012951,-0.21114753
187978,-0.122716,-0.483739,-0.204971,16.975397,-81.391284,-13.362313,-0.003577359,-0.233172362
188078,-0.322116,-0.134902,-0.160179,17.527608,-81.43816,-14.107509,-0.002795604,-0.246176032
188178,-0.425537,0.138916,-0.133364,17.611003,-81.339455,-14.438522,-0.002327602,-0.251952209
188278,-0.448315,0.252245,-0.096152,17.418078,-81.185326,-14.503278,-0.001678141,-0.253082201
188378,-0.411781,0.230763,-0.049694,17.110228,-81.050973,-14.430545,-0.000867309,-0.25181301
188478,-0.352643,0.149587,-0.006318,16.777256,-80.968392,-14.298042,-0.000110268,-0.249500833
188578,-0.310373,0.04783,0.036397,16.429445,-80.948659,-14.125965,0.000635237,-0.246498089
188678,-0.265696,-0.071198,0.056317,16.158878,-80.99754,-14.006185,0.000982901,-0.244407928
188778,-0.185281,-0.188602,0.045713,16.087961,-81.10937,-14.041896,0.000797829,-0.245031085
188878,-0.102202,-0.283708,0.02068,16.252505,-81.269581,-14.267695,0.000360928,-0.248971278
188978,-0.037751,-0.334139,0.003259,16.579802,-81.454557,-14.620658,5.68793E-05,-0.255130482
189078,0.010848,-0.357813,0.006931,16.963567,-81.652791,-15.00238,0.000120967,-0.261791531
189178,0.019155,-0.360707,0.024868,17.305851,-81.855258,-15.337181,0.000434021,-0.267633808
189278,-0.031448,-0.339102,0.042949,17.538782,-82.048736,-15.59066,0.000749589,-0.272057017
189378,-0.107127,-0.289954,0.052385,17.639784,-82.216848,-15.75462,0.000914275,-0.274918119
189478,-0.193846,-0.225647,0.052379,17.613187,-82.349769,-15.839898,0.000914171,-0.27640622
189578,-0.259126,-0.156422,0.053513,17.454988,-82.44503,-15.830122,0.000933962,-0.276235629
189678,-0.288899,-0.102844,0.061942,17.17291,-82.512379,-15.712603,0.001081074,-0.274184922
189778,-0.305284,-0.083077,0.070149,16.818062,-82.570163,-15.53118,0.00122431,-0.271019091
189878,-0.312111,-0.094909,0.068123,16.478689,-82.633953,-15.369335,0.001188951,-0.268194896
189978,-0.311511,-0.132182,0.059695,16.218323,-82.716754,-15.286826,0.001041857,-0.266755114
190078,-0.306729,-0.169246,0.047097,16.058512,-82.817891,-15.302939,0.000821984,-0.267036286
190178,-0.297058,-0.183854,0.041508,15.9458,-82.92617,-15.360929,0.000724439,-0.268048211
190278,-0.26961,-0.175474,0.040852,15.840507,-83.029714,-15.410539,0.00071299,-0.268913906
190378,-0.218509,-0.157536,0.039834,15.745523,-83.123192,-15.441031,0.000695223,-0.269445991
190478,-0.14897,-0.137695,0.032365,15.698667,-83.204543,-15.479864,0.000564866,-0.270123627
190578,-0.075193,-0.130876,0.031046,15.691539,-83.281899,-15.516133,0.000541846,-0.270756521
190678,-0.014224,-0.110368,0.033347,15.681695,-83.348267,-15.514495,0.000582005,-0.270727938
190778,0.039375,-0.077679,0.04374,15.609231,-83.398175,-15.418902,0.000763394,-0.26905984
190878,0.078612,-0.04167,0.056884,15.446983,-83.430165,-15.21031,0.000992796,-0.26541991
190978,0.11116,-0.011915,0.064622,15.225212,-83.446775,-14.923044,0.001127848,-0.260407118
191078,0.11959,0.014817,0.073938,14.927548,-83.449808,-14.554535,0.00129044,-0.253976636
191178,0.091837,0.052026,0.085806,14.509834,-83.433667,-14.081189,0.001497572,-0.245716748
191278,0.044401,0.110359,0.097997,13.938771,-83.38636,-13.480804,0.001710342,-0.23524003
191378,0.007554,0.176643,0.109987,13.223508,-83.30296,-12.756417,0.001919603,-0.222599477
191478,-0.005028,0.23585,0.129132,12.36781,-83.187744,-11.897727,0.002253741,-0.207615336
191578,-0.001248,0.266438,0.152895,11.40477,-83.05657,-10.928516,0.002668476,-0.190702604
191678,-0.002535,0.265296,0.168962,10.405309,-82.925785,-9.923083,0.002948894,-0.173157798
191778,-0.009912,0.248026,0.172957,9.433564,-82.803017,-8.949567,0.003018619,-0.156169944
191878,-0.038925,0.249621,0.166157,8.50749,-82.676707,-8.038581,0.002899938,-0.140273238
191978,-0.110392,0.295163,0.142773,7.647477,-82.520837,-7.235215,0.002491817,-0.126254502
192078,-0.200061,0.377908,0.107586,6.877802,-82.313861,-6.574481,0.001877698,-0.114724693
192178,-0.272468,0.469604,0.077317,6.188253,-82.051542,-6.036133,0.001349414,-0.105330521
192278,-0.278678,0.553668,0.061404,5.564927,-81.739473,-5.567888,0.001071684,-0.097159646
192378,-0.203126,0.638005,0.069745,4.964441,-81.378954,-5.078572,0.001217259,-0.088621081
192478,-0.073322,0.749703,0.102327,4.332138,-80.955331,-4.48128,0.001785913,-0.078198336
192578,0.079681,0.850536,0.134951,3.706319,-80.474362,-3.800976,0.0023553,-0.066327031
192678,0.245999,0.899029,0.159554,3.147772,-79.965385,-3.091244,0.002784696,-0.053942208
192778,0.373066,0.916563,0.187183,2.63379,-79.446108,-2.351677,0.003266905,-0.041036764
192878,0.376861,0.815084,0.226378,2.075743,-78.984744,-1.563851,0.003950975,-0.0272892
192978,0.247699,0.544372,0.234279,1.495468,-78.677306,-0.827762,0.004088871,-0.014444447
193078,0.086159,0.242593,0.218379,0.915505,-78.541348,-0.185828,0.003811369,-0.003242699
193178,0.013154,-0.041135,0.190458,0.391247,-78.566757,0.356725,0.003324063,0.006224851
193278,0.029292,-0.269951,0.178521,-0.093679,-78.722457,0.86842,0.003115727,0.015153929
193378,0.058377,-0.440242,0.19732,-0.636454,-78.974861,1.455695,0.003443826,0.025401878
193478,0.106463,-0.595849,0.214708,-1.240797,-79.31518,2.133116,0.003747299,0.037222874
193578,0.194955,-0.734247,0.209595,-1.834261,-79.733542,2.850181,0.003658062,0.049735658
193678,0.323444,-0.786119,0.188846,-2.347232,-80.180762,3.559275,0.003295929,0.062109349
193778,0.495129,-0.697001,0.166851,-2.726186,-80.576521,4.231301,0.002912051,0.073836202
193878,0.643906,-0.494881,0.153351,-2.975357,-80.856339,4.857531,0.002676435,0.084763916
193978,0.667351,-0.230022,0.136916,-3.121946,-80.98473,5.393117,0.002389595,0.094109892
194078,0.592693,0.031507,0.116672,-3.191158,-80.963955,5.80696,0.002036276,0.101331452
194178,0.490326,0.202804,0.089348,-3.183982,-80.846005,6.084123,0.001559391,0.106167946
194278,0.389289,0.289537,0.067896,-3.138375,-80.679133,6.263812,0.001184989,0.109303519
194378,0.307442,0.322403,0.05586,-3.089409,-80.49386,6.392653,0.000974925,0.111551795
194478,0.2321,0.301923,0.062787,-3.108716,-80.320108,6.547023,0.001095822,0.114245551
194578,0.170988,0.252438,0.093521,-3.270448,-80.173674,6.810453,0.001632222,0.118842405
194678,0.110453,0.188574,0.12634,-3.580379,-80.062511,7.189211,0.002205012,0.125451732
194778,0.043026,0.108423,0.134352,-3.965125,-79.996542,7.604806,0.002344845,0.132703865
194878,-0.017823,-0.008015,0.128525,-4.389558,-79.996902,8.025342,0.002243147,0.140042218
194978,-0.056608,-0.125421,0.133383,-4.884514,-80.06353,8.494872,0.002327933,0.148235516
195078,-0.070193,-0.172496,0.130307,-5.398323,-80.156467,8.97552,0.002274248,0.156622824
195178,-0.06553,-0.17283,0.114942,-5.868125,-80.249741,9.414082,0.002006083,0.164275731
195278,-0.044499,-0.153678,0.100458,-6.279121,-80.332389,9.80509,0.001753293,0.171098821
195378,-0.028158,-0.136884,0.088068,-6.639344,-80.405802,10.154,0.001537051,0.1771873
195478,-0.019187,-0.114024,0.080554,-6.964973,-80.466335,10.47297,0.001405909,0.182753327
195578,-0.025647,-0.083498,0.075508,-7.26802,-80.50954,10.765238,0.001317841,0.187853403
195678,-0.034387,-0.054397,0.073164,-7.55764,-80.536091,11.038783,0.001276931,0.192626763
195778,-0.046062,-0.033691,0.072399,-7.843175,-80.550676,11.301387,0.00126358,0.197209203
195878,-0.058083,-0.04078,0.069818,-8.131035,-80.569239,11.559352,0.001218534,0.201710692
195978,-0.061315,-0.072032,0.061625,-8.409527,-80.605959,11.805922,0.001075541,0.206013339
196078,-0.069412,-0.115636,0.056575,-8.700226,-80.66759,12.060124,0.000987403,0.210449164
196178,-0.085551,-0.151632,0.050486,-9.002442,-80.749897,12.316573,0.000881132,0.214924199
196278,-0.097503,-0.167131,0.041552,-9.294156,-80.841546,12.55538,0.000725207,0.219091381
196378,-0.093557,-0.17498,0.033882,-9.566554,-80.938129,12.776848,0.000591343,0.222955998
196478,-0.087872,-0.165961,0.030979,-9.825141,-81.029691,12.987569,0.000540676,0.226633079
196578,-0.075306,-0.142565,0.02013,-10.027381,-81.108937,13.148486,0.000351329,0.229441081
196678,-0.064107,-0.129326,0.012626,-10.190651,-81.18134,13.27642,0.000220362,0.231673529
196778,-0.065041,-0.147711,0.006972,-10.348576,-81.264582,13.398376,0.000121682,0.233801661
196878,-0.071227,-0.1929,0.002844,-10.528634,-81.373611,13.539102,4.96363E-05,0.23625733
196978,-0.08727,-0.258741,-0.004117,-10.7428,-81.520326,13.704974,-7.1854E-05,0.239151796
197078,-0.112055,-0.315361,-0.013976,-10.982224,-81.699811,13.88195,-0.000243923,0.242240028
197178,-0.115695,-0.334186,-0.033995,-11.168711,-81.89193,14.00325,-0.000593315,0.244356713
197278,-0.088261,-0.316132,-0.053827,-11.252161,-82.076017,14.036312,-0.000939443,0.244933644
197378,-0.027671,-0.293043,-0.063433,-11.244657,-82.248152,14.012589,-0.001107096,0.244519678
197478,0.053418,-0.280815,-0.07188,-11.14371,-82.414312,13.941468,-0.001254522,0.243278617
197578,0.115863,-0.290956,-0.084631,-10.956303,-82.587515,13.819256,-0.001477065,0.241146017
197678,0.156364,-0.327618,-0.080012,-10.789686,-82.780755,13.74145,-0.001396449,0.239788303
197778,0.176948,-0.367798,-0.0552,-10.752783,-82.99388,13.806284,-0.000963406,0.240919656
197878,0.181375,-0.343335,-0.0395,-10.766286,-83.191493,13.924416,-0.000689394,0.242981059
197978,0.175059,-0.277042,-0.058325,-10.635176,-83.35373,13.893244,-0.001017946,0.242437108
198078,0.157642,-0.229345,-0.101331,-10.2538,-83.493467,13.600111,-0.00176853,0.237321937
198178,0.140335,-0.230677,-0.136011,-9.693289,-83.63705,13.11681,-0.0023738,0.228888335
198278,0.148791,-0.249466,-0.161414,-8.987502,-83.792957,12.492367,-0.002817159,0.217991804
198378,0.19368,-0.244636,-0.170105,-8.171468,-83.945914,11.783095,-0.002968843,0.205615008
198478,0.246431,-0.167391,-0.160229,-7.285207,-84.053086,11.033769,-0.002796477,0.192539269
198578,0.280522,-0.036402,-0.145913,-6.347208,-84.08347,10.252157,-0.00254662,0.17890014
198678,0.25253,0.065041,-0.137341,-5.410218,-84.054155,9.455434,-0.002397012,0.164997323
198778,0.142756,0.102054,-0.144712,-4.488236,-84.002658,8.610499,-0.002525659,0.150253208
198878,-0.020281,0.122926,-0.15755,-3.597663,-83.938244,7.70312,-0.00274972,0.134419444
198978,-0.194042,0.18578,-0.195482,-2.607292,-83.837344,6.595099,-0.003411747,0.115084478
199078,-0.350464,0.300464,-0.259622,-1.390989,-83.669657,5.169352,-0.004531183,0.090205192
199178,-0.421227,0.430827,-0.333824,0.087898,-83.424047,3.437968,-0.00582623,0.059992542
199278,-0.395885,0.536722,-0.394208,1.737309,-83.11194,1.548522,-0.006880112,0.027021709
199378,-0.291035,0.572116,-0.383973,3.235136,-82.773898,-0.128947,-0.006701481,-0.002250125
199478,-0.150103,0.533714,-0.299197,4.316682,-82.456582,-1.306449,-0.005221885,-0.022797535
199578,-0.003532,0.389388,-0.193086,5.00187,-82.224523,-2.000032,-0.00336993,-0.034900558
199678,0.056238,0.157571,-0.096183,5.375131,-82.129149,-2.344454,-0.001678682,-0.040910722
199778,0.065283,-0.05122,-0.012768,5.485535,-82.157408,-2.418318,-0.00022284,-0.042199649
199878,0.083225,-0.182648,0.02651,5.495485,-82.262931,-2.380397,0.000462679,-0.041537928
199978,0.121397,-0.251363,0.008892,5.630634,-82.406754,-2.44674,0.000155192,-0.042695613
200078,0.13837,-0.297745,-0.042722,6.025969,-82.573987,-2.765683,-0.000745627,-0.048261168
200178,0.057606,-0.312551,-0.11278,6.712318,-82.744755,-3.424577,-0.001968349,-0.059758869
200278,-0.137315,-0.233292,-0.155068,7.464318,-82.866327,-4.261996,-0.002706402,-0.07437183
200378,-0.36191,-0.035963,-0.139398,7.914447,-82.875891,-4.924756,-0.002432913,-0.085936992
200478,-0.539565,0.136562,-0.102969,7.987598,-82.790074,-5.31021,-0.001797118,-0.092663165
200578,-0.618221,0.191442,-0.070077,7.83147,-82.675821,-5.510037,-0.001223054,-0.096150146
200678,-0.55804,0.126119,-0.036469,7.602119,-82.601456,-5.601294,-0.000636493,-0.09774258
200778,-0.41061,0.007786,-0.010223,7.412657,-82.596451,-5.647592,-0.000178422,-0.09855048
200878,-0.244302,-0.055855,-0.002482,7.320881,-82.628296,-5.696301,-4.33183E-05,-0.099400452
200978,-0.113879,-0.052582,-0.001194,7.29605,-82.658452,-5.737156,-2.08389E-05,-0.100113372
201078,-0.020676,-0.04985,-0.00922,7.358339,-82.686529,-5.812003,-0.000160917,-0.101419452
201178,0.025892,-0.090654,-0.018266,7.511507,-82.737164,-5.951561,-0.000318796,-0.103854739
201278,0.006771,-0.14157,-0.015303,7.672859,-82.816949,-6.110391,-0.000267083,-0.106626323
201378,0.002233,-0.200727,-0.005159,7.825854,-82.931093,-6.263382,-9.004E-05,-0.109296016
201478,0.017834,-0.257821,0.014395,7.938942,-83.079163,-6.367116,0.000251236,-0.111106174
201578,0.003994,-0.280616,0.02649,8.006474,-83.241116,-6.432918,0.00046233,-0.112254419
201678,-0.032869,-0.273068,0.045683,7.956863,-83.400299,-6.402022,0.000797305,-0.111715284
201778,-0.102523,-0.242645,0.058311,7.780777,-83.543171,-6.284005,0.001017702,-0.109655887
201878,-0.180554,-0.19365,0.05986,7.511893,-83.65825,-6.117629,0.001044737,-0.106752626
201978,-0.239311,-0.127541,0.05717,7.17162,-83.735432,-5.913333,0.000997788,-0.103187661
202078,-0.250628,-0.070215,0.065584,6.738222,-83.780418,-5.621904,0.001144638,-0.098102225
202178,-0.241863,-0.039359,0.075992,6.232098,-83.808237,-5.252292,0.001326288,-0.091652495
202278,-0.223533,-0.023047,0.071093,5.749842,-83.826121,-4.89614,0.001240786,-0.085437643
202378,-0.201134,-0.024083,0.059401,5.340562,-83.843655,-4.600491,0.001036726,-0.080278568
202478,-0.186469,-0.043695,0.044513,5.026138,-83.871416,-4.391808,0.000776885,-0.07663705
202578,-0.169928,-0.073325,0.028619,4.817398,-83.915212,-4.279895,0.000499487,-0.074684168
202678,-0.13646,-0.101779,0.013713,4.718973,-83.974511,-4.259643,0.000239333,-0.07433077
202778,-0.094764,-0.122563,0.00836,4.682174,-84.045422,-4.277337,0.000145907,-0.074639531
202878,-0.050679,-0.123984,0.003684,4.697287,-84.116916,-4.321826,6.42969E-05,-0.075415864
202978,-0.006335,-0.114628,0.004696,4.728822,-84.183097,-4.357277,8.19593E-05,-0.076034484
203078,0.035376,-0.091923,0.018604,4.69586,-84.236945,-4.303879,0.000324696,-0.075102689
203178,0.070301,-0.06443,0.038763,4.554627,-84.275989,-4.121557,0.000676531,-0.07192117
203278,0.093223,-0.041286,0.058036,4.303884,-84.302573,-3.815994,0.001012902,-0.066589095
203378,0.105291,-0.025848,0.069341,3.986399,-84.320626,-3.436423,0.001210208,-0.059965581
203478,0.109246,-0.017764,0.073962,3.639597,-84.333994,-3.025127,0.001290859,-0.052788466
203578,0.095302,-0.022553,0.070099,3.307231,-84.349707,-2.636377,0.001223438,-0.046004779
203678,0.078911,-0.026329,0.06363,3.002473,-84.367138,-2.28482,0.001110534,-0.039870109
203778,0.088364,-0.016963,0.061927,2.708816,-84.378946,-1.938986,0.001080812,-0.033835306
203878,0.107013,0.028947,0.063755,2.403099,-84.364299,-1.570299,0.001112716,-0.027401718
203978,0.12845,0.101623,0.074063,2.037325,-84.308013,-1.128898,0.001292622,-0.01969927
204078,0.138822,0.159683,0.082418,1.628859,-84.218296,-0.638563,0.001438441,-0.011142924
204178,0.146211,0.176032,0.090292,1.192744,-84.118933,-0.116099,0.001575866,-0.002025928
204278,0.149638,0.16975,0.097862,0.733583,-84.022798,0.4316,0.001707985,0.00753142
204378,0.151901,0.178537,0.109563,0.228598,-83.921176,1.026779,0.001912203,0.017917294
204478,0.151103,0.222267,0.122503,-0.325515,-83.79388,1.671036,0.002138045,0.029159578
204578,0.155109,0.29924,0.130223,-0.886337,-83.621735,2.324534,0.002272782,0.040563118
204678,0.165697,0.378039,0.130577,-1.400672,-83.403744,2.937602,0.00227896,0.051261155
204778,0.190127,0.443946,0.116582,-1.787498,-83.147651,3.436666,0.002034706,0.059969822
204878,0.220192,0.473319,0.093862,-2.015852,-82.874811,3.793706,0.001638173,0.06620017
204978,0.25592,0.479035,0.071741,-2.103643,-82.598976,4.029899,0.001252096,0.070321738
205078,0.278197,0.499186,0.053076,-2.084358,-82.311901,4.171109,0.000926335,0.072785852
205178,0.262576,0.584484,0.048483,-2.037501,-81.976004,4.275557,0.000846174,0.07460847
205278,0.232429,0.741297,0.063657,-2.041664,-81.549917,4.414205,0.001111006,0.077027877
205378,0.222463,0.930091,0.093273,-2.126582,-81.015018,4.628952,0.001627894,0.080775212
205478,0.254661,1.078684,0.131177,-2.285304,-80.394092,4.937527,0.002289432,0.086159846
205578,0.304188,1.136428,0.157962,-2.465088,-79.739334,5.296885,0.002756911,0.092430643
205678,0.359782,1.047719,0.18617,-2.678353,-79.134494,5.723431,0.003249225,0.099873871
205778,0.401567,0.815533,0.194596,-2.892969,-78.662152,6.176533,0.003396284,0.107780501
205878,0.356238,0.530556,0.164548,-3.067497,-78.353679,6.562853,0.002871856,0.114521785
205978,0.203104,0.228832,0.099169,-3.183867,-78.219921,6.800491,0.001730797,0.118668568
206078,0.026769,-0.056893,0.020238,-3.226584,-78.252288,6.859745,0.000353214,0.11970255
206178,-0.120602,-0.267596,-0.031692,-3.243434,-78.40699,6.806352,-0.00055312,0.118770842
206278,-0.181021,-0.39423,-0.038769,-3.294878,-78.634444,6.752971,-0.000676635,0.117839344
206378,-0.128754,-0.49733,-0.01103,-3.414299,-78.920003,6.799468,-0.000192507,0.118650717
206478,-0.006334,-0.573605,0.017736,-3.567705,-79.248185,6.951954,0.000309546,0.121311597
206578,0.164925,-0.56435,0.034954,-3.682995,-79.570395,7.165315,0.000610052,0.125034747
206678,0.388698,-0.457586,0.047652,-3.696887,-79.831049,7.40572,0.00083167,0.129229814
206778,0.60566,-0.282879,0.057124,-3.585478,-79.991506,7.644951,0.000996985,0.133404395
206878,0.718464,-0.105408,0.05846,-3.379285,-80.050573,7.853479,0.001020302,0.137043209
206978,0.742283,-0.014269,0.055781,-3.133636,-80.05779,8.035779,0.000973546,0.140224344
207078,0.670668,-0.042989,0.04231,-2.890448,-80.082039,8.17891,0.000738436,0.14272198
207178,0.519702,-0.127183,0.028387,-2.701992,-80.155001,8.289774,0.000495438,0.144656556
207278,0.35503,-0.192669,0.023384,-2.601474,-80.265653,8.394099,0.000408121,0.146477028
207378,0.224566,-0.207893,0.031898,-2.607315,-80.38482,8.530453,0.000556716,0.148856405
207478,0.128741,-0.162394,0.049899,-2.72413,-80.477446,8.723626,0.000870887,0.152227274
207578,0.057478,-0.091044,0.05774,-2.899353,-80.528952,8.93458,0.001007736,0.155908421
207678,0.00767,-0.04124,0.043256,-3.046111,-80.55232,9.087725,0.000754947,0.158580801
207778,-0.030849,-0.047253,0.018894,-3.132838,-80.57986,9.157633,0.000329757,0.159800696
207878,-0.060965,-0.094262,0.007922,-3.208464,-80.634656,9.198791,0.000138263,0.160518903
207978,-0.061222,-0.129513,0.003318,-3.27598,-80.709779,9.231572,5.79091E-05,0.161090931
208078,-0.033168,-0.157331,-0.008061,-3.293854,-80.801196,9.230334,-0.000140689,0.161069328
208178,-0.001503,-0.186059,-0.024471,-3.241095,-80.909583,9.175928,-0.000427092,0.160119944
208278,0.024345,-0.211226,-0.032342,-3.148861,-81.032596,9.096564,-0.000564465,0.158735042
208378,0.046282,-0.232983,-0.016702,-3.103626,-81.167534,9.077519,-0.0002915,0.158402707
208478,0.060756,-0.233838,0.019048,-3.183092,-81.301808,9.193043,0.000332445,0.1604186
208578,0.056661,-0.217603,0.051665,-3.388333,-81.425652,9.433369,0.000901709,0.164612289
208678,0.025068,-0.183947,0.075365,-3.701237,-81.529221,9.764182,0.001315345,0.170384976
208778,-0.009092,-0.160028,0.081031,-4.057282,-81.618591,10.118735,0.001414234,0.176571926
208878,-0.040311,-0.158985,0.077572,-4.425119,-81.707165,10.467045,0.001353864,0.182649935
208978,-0.060355,-0.177256,0.068627,-4.782851,-81.80625,10.793456,0.001197747,0.188345807
209078,-0.066587,-0.210173,0.063792,-5.145038,-81.924055,11.120668,0.001113362,0.194055657
209178,-0.067966,-0.249875,0.067605,-5.549569,-82.06398,11.489739,0.00117991,0.200495946
209278,-0.056571,-0.277077,0.071314,-5.988845,-82.218798,11.900338,0.001244643,0.207660898
209378,-0.040406,-0.278857,0.074198,-6.449341,-82.37398,12.341543,0.001294978,0.215359925
209478,-0.033877,-0.252098,0.075555,-6.916832,-82.513326,12.793423,0.001318661,0.223245231
209578,-0.041863,-0.199597,0.084869,-7.417518,-82.621615,13.274034,0.001481219,0.231631893
209678,-0.060833,-0.145728,0.095907,-7.959537,-82.697866,13.785258,0.001673865,0.240552752
209778,-0.089002,-0.105839,0.106236,-8.548364,-82.74997,14.327325,0.001854137,0.250011821
209878,-0.129505,-0.0811,0.116215,-9.195478,-82.786424,14.904697,0.0020283,0.260086963
209978,-0.160265,-0.07023,0.122221,-9.884925,-82.815302,15.506933,0.002133123,0.270595981
210078,-0.16342,-0.061526,0.123967,-10.581978,-82.838169,16.114976,0.002163596,0.281206331
210178,-0.136019,-0.049919,0.12332,-11.25436,-82.853663,16.71395,0.002152304,0.291658428
210278,-0.103501,-0.042039,0.115315,-11.867755,-82.864808,17.272234,0.002012593,0.301400483
210378,-0.076425,-0.046665,0.106748,-12.433943,-82.878853,17.79856,0.001863073,0.310584872
210478,-0.063177,-0.06932,0.096201,-12.971124,-82.906244,18.303278,0.001678996,0.319392201
210578,-0.068225,-0.079395,0.088538,-13.491941,-82.939655,18.788558,0.001545254,0.327860337
210678,-0.091373,-0.058195,0.083735,-13.985605,-82.961354,19.233082,0.001461427,0.335617281
210778,-0.110895,-0.01233,0.079592,-14.421775,-82.957678,19.608397,0.001389119,0.342166528
210878,-0.12502,0.04911,0.074542,-14.770634,-82.92032,19.887593,0.001300982,0.347038498
210978,-0.122994,0.091592,0.066185,-15.027659,-82.860473,20.07544,0.001155127,0.350316428
211078,-0.094805,0.093507,0.05021,-15.192793,-82.801853,20.186974,0.000876315,0.352262696
211178,-0.053711,0.10211,0.02312,-15.204557,-82.742503,20.167656,0.000403513,0.351925597
211278,-0.014853,0.127548,-0.006206,-15.038463,-82.673438,19.991472,-0.000108313,0.348851186
211378,0.008696,0.174884,-0.031436,-14.701419,-82.581741,19.656485,-0.000548653,0.343005663
211478,-0.000271,0.258598,-0.05348,-14.195559,-82.446391,19.145961,-0.000933386,0.334097019
211578,-0.051017,0.351735,-0.069075,-13.57927,-82.260683,18.49449,-0.001205566,0.322728851
211678,-0.137238,0.425483,-0.084205,-12.913039,-82.034821,17.742416,-0.00146963,0.309605159
211778,-0.229076,0.462259,-0.101902,-12.237909,-81.789379,16.927772,-0.001778496,0.295389621
211878,-0.293285,0.474205,-0.122495,-11.555132,-81.538324,16.067706,-0.002137905,0.28038147
211978,-0.302745,0.44496,-0.149159,-10.844456,-81.305205,15.173406,-0.002603272,0.264775935
212078,-0.269487,0.356422,-0.181303,-10.09757,-81.12371,14.261253,-0.003164281,0.248858865
212178,-0.232796,0.192261,-0.208338,-9.36259,-81.03584,13.382098,-0.003636123,0.23351761
212278,-0.204525,-0.019657,-0.222233,-8.692229,-81.067559,12.58469,-0.003878633,0.219602841
212378,-0.170211,-0.208029,-0.229313,-8.067453,-81.205309,11.853506,-0.0040022,0.20684368
212478,-0.152581,-0.331536,-0.232044,-7.460706,-81.41222,11.151124,-0.004049864,0.194587114
212578,-0.169907,-0.379848,-0.236,-6.838542,-81.645773,10.423531,-0.004118908,0.181890616
212678,-0.216035,-0.377898,-0.23767,-6.196754,-81.877163,9.649845,-0.004148055,0.168389795
212778,-0.264011,-0.341779,-0.230994,-5.554461,-82.086349,8.848318,-0.004031538,0.154403149
212878,-0.333316,-0.268089,-0.219028,-4.937237,-82.251646,8.032383,-0.003822696,0.140165083
212978,-0.424837,-0.151345,-0.201764,-4.378406,-82.348343,7.222716,-0.003521387,0.126036394
213078,-0.517418,-0.037682,-0.189364,-3.876754,-82.378595,6.417346,-0.00330497,0.111982688
213178,-0.564563,0.027692,-0.165966,-3.480885,-82.369809,5.691473,-0.002896605,0.099316204
213278,-0.55662,0.049653,-0.13696,-3.200325,-82.346974,5.086512,-0.002390363,0.088759634
213378,-0.502916,0.044682,-0.121346,-2.958901,-82.32619,4.552061,-0.002117852,0.079433464
213478,-0.419974,0.002492,-0.118816,-2.690835,-82.329215,4.03867,-0.002073696,0.070474792
213578,-0.328561,-0.047972,-0.127801,-2.340374,-82.361031,3.495014,-0.002230511,0.060987994
213678,-0.240022,-0.095794,-0.146037,-1.863768,-82.420133,2.875333,-0.002548784,0.050174561
213778,-0.167087,-0.142247,-0.157604,-1.29104,-82.505298,2.200951,-0.002750663,0.038406595
213878,-0.111616,-0.18753,-0.155028,-0.685898,-82.615474,1.526085,-0.002705704,0.026630183
213978,-0.092636,-0.231052,-0.138943,-0.123108,-82.749621,0.905069,-0.002424972,0.015793454
214078,-0.112868,-0.281591,-0.114389,0.339076,-82.912026,0.373976,-0.001996431,0.006525881
214178,-0.168124,-0.330732,-0.09027,0.681803,-83.102219,-0.068458,-0.001575482,-0.001194592
214278,-0.236017,-0.356449,-0.069151,0.906778,-83.307016,-0.431298,-0.001206892,-0.00752615
214378,-0.30437,-0.357757,-0.050493,1.016916,-83.512581,-0.717809,-0.000881254,-0.012525767
214478,-0.351528,-0.345005,-0.038566,1.049411,-83.710888,-0.953267,-0.000673092,-0.016634509
214578,-0.373536,-0.326933,-0.027678,1.017697,-83.898926,-1.136735,-0.000483064,-0.019836026
214678,-0.367778,-0.29806,-0.026601,0.985368,-84.070424,-1.316207,-0.000464267,-0.022967812
214778,-0.339386,-0.278592,-0.032691,1.006572,-84.230698,-1.533085,-0.000570556,-0.026752333
214878,-0.293011,-0.268427,-0.047455,1.146529,-84.384951,-1.842544,-0.000828232,-0.032152393
214978,-0.241467,-0.267204,-0.069,1.458177,-84.538093,-2.294745,-0.001204257,-0.0400433
215078,-0.211043,-0.270486,-0.085268,1.910654,-84.692533,-2.870774,-0.001488182,-0.050095006
215178,-0.193964,-0.275241,-0.095562,2.470735,-84.848968,-3.544886,-0.001667844,-0.061858261
215278,-0.189801,-0.273638,-0.095762,3.072811,-85.00383,-4.2586,-0.001671334,-0.07431257
215378,-0.191558,-0.26489,-0.089043,3.666964,-85.153224,-4.965206,-0.001554067,-0.086642845
215478,-0.18612,-0.242204,-0.078996,4.224196,-85.289407,-5.631487,-0.001378717,-0.098269448
215578,-0.167169,-0.219024,-0.06746,4.732885,-85.412318,-6.238049,-0.001177379,-0.108853955
215678,-0.128208,-0.200789,-0.053007,5.177232,-85.525096,-6.757576,-0.000925131,-0.117919701
215778,-0.07681,-0.191511,-0.043218,5.596404,-85.632763,-7.22224,-0.000754284,-0.126028088
215878,-0.02575,-0.173099,-0.034272,5.984357,-85.73016,-7.626196,-0.000598149,-0.13307712
215978,0.017126,-0.152182,-0.024264,6.319495,-85.816024,-7.952514,-0.00042348,-0.138771369
216078,0.031654,-0.129883,-0.014311,6.577508,-85.889671,-8.193128,-0.00024977,-0.142970084
216178,0.013218,-0.090287,-0.005,6.72141,-85.941301,-8.329915,-0.000087265,-0.145357017
216278,-0.01427,-0.039397,0.003381,6.736387,-85.964484,-8.35324,5.90086E-05,-0.145764038
216378,-0.038621,0.013802,0.017557,6.573081,-85.958296,-8.211828,0.000306422,-0.143296399
216478,-0.040591,0.068779,0.035858,6.213902,-85.921891,-7.87518,0.00062583,-0.137421891
216578,0.000397,0.089337,0.053515,5.728336,-85.874611,-7.388262,0.000933997,-0.128925172
216678,0.059071,0.114381,0.066909,5.165132,-85.813417,-6.789763,0.001167763,-0.118481364
216778,0.122378,0.186396,0.083044,4.487758,-85.711373,-6.040351,0.001449367,-0.105404125
216878,0.156998,0.280479,0.106335,3.64598,-85.555742,-5.106037,0.001855865,-0.089100346
216978,0.142097,0.384994,0.124702,2.691447,-85.339767,-4.066943,0.002176424,-0.070968155
217078,0.087693,0.462371,0.133292,1.722511,-85.078288,-3.044324,0.002326345,-0.053123454
217178,0.032851,0.512863,0.131753,0.829529,-84.786446,-2.129078,0.002299485,-0.037152411
217278,0.015881,0.576596,0.127339,0.049823,-84.456819,-1.336924,0.002222448,-0.023329324
217378,0.060394,0.651294,0.119425,-0.567666,-84.08344,-0.681698,0.002084325,-0.01189563
217478,0.118155,0.697242,0.09805,-0.961494,-83.683302,-0.217664,0.001711267,-0.003798237
217578,0.181541,0.663627,0.062812,-1.100246,-83.302583,0.026552,0.001096258,0.000463332
217678,0.209441,0.574193,0.034642,-1.080594,-82.973448,0.127512,0.000604607,0.002225084
217778,0.175765,0.440277,0.004395,-0.951932,-82.721479,0.099233,7.67059E-05,0.001731616
217878,0.075783,0.281325,-0.026438,-0.760516,-82.561014,-0.050081,-0.000461422,-0.000873913
217978,-0.026954,0.135984,-0.054734,-0.518883,-82.484117,-0.309444,-0.000955273,-0.005399798
218078,-0.043907,0.012148,-0.056461,-0.287679,-82.478184,-0.568103,-0.000985414,-0.009913397
218178,-0.033143,-0.07077,-0.01884,-0.215712,-82.519668,-0.659919,-0.000328815,-0.011515587
218278,-0.000336,-0.152891,0.024154,-0.315198,-82.608159,-0.559859,0.00042156,-0.00976954
218378,0.08804,-0.26204,0.054245,-0.505741,-82.75908,-0.316971,0.000946738,-0.005531144
218478,0.22257,-0.35294,0.065726,-0.68647,-82.96193,-0.006391,0.001147116,-0.000111523
218578,0.393707,-0.380984,0.056139,-0.738845,-83.180832,0.273521,0.000979794,0.004772941
218678,0.573109,-0.355885,0.027025,-0.55245,-83.385581,0.416386,0.000471667,0.007265936
218778,0.728946,-0.290709,0.000916,-0.139245,-83.553186,0.420776,1.59869E-05,0.007342541
218878,0.815538,-0.1824,-0.004915,0.363759,-83.65877,0.384727,-8.57815E-05,0.006713486
218978,0.813259,-0.058785,-0.007562,0.880691,-83.693522,0.333358,-0.00013198,0.005817097
219078,0.721149,0.034943,-0.01503,1.37647,-83.674486,0.250174,-0.000262319,0.004365536
219178,0.547372,0.076339,-0.026657,1.824582,-83.631502,0.114767,-0.000465245,0.002002684
219278,0.360413,0.101318,-0.029301,2.17091,-83.574072,-0.026021,-0.00051139,-0.000454066
219378,0.194102,0.140222,-0.013097,2.328969,-83.494672,-0.073251,-0.000228582,-0.00127823
219478,0.070255,0.174648,0.001471,2.335441,-83.395911,-0.039329,2.56734E-05,-0.000686291
219578,-0.009905,0.160063,-0.000326,2.309048,-83.305497,-0.018548,-5.68968E-06,-0.000323663
219678,-0.076736,0.083067,-0.028297,2.396172,-83.258572,-0.150617,-0.000493868,-0.002628267
219778,-0.123121,-0.054112,-0.047845,2.579919,-83.289718,-0.406737,-0.000835039,-0.007097561
219878,-0.126649,-0.185841,-0.060923,2.860473,-83.395832,-0.762316,-0.001063289,-0.013302414
219978,-0.091758,-0.2624,-0.079946,3.289472,-83.544937,-1.247095,-0.001395298,-0.021761808
220078,-0.020898,-0.287295,-0.098098,3.883636,-83.70713,-1.857066,-0.001712104,-0.032405802
220178,0.056497,-0.26947,-0.110874,4.614448,-83.857777,-2.559705,-0.001935084,-0.044666852
220278,0.129524,-0.226757,-0.111061,5.402204,-83.982971,-3.277352,-0.001938348,-0.057189792
220378,0.171247,-0.167573,-0.09275,6.109492,-84.074425,-3.889917,-0.001618766,-0.067879052
220478,0.184166,-0.104062,-0.046666,6.547099,-84.131941,-4.223845,-0.000814462,-0.073706095
220578,0.175109,-0.057647,0.003168,6.677653,-84.16613,-4.254303,5.52911E-05,-0.074237587
220678,0.135092,-0.032442,0.041888,6.552621,-84.188517,-4.050897,0.000731071,-0.070688153
220778,0.08098,-0.042048,0.063572,6.279121,-84.217691,-3.729432,0.001109522,-0.065078588
220878,0.032357,-0.077294,0.076256,5.923487,-84.267542,-3.353441,0.001330896,-0.058517545
220978,-0.008021,-0.115347,0.08026,5.53644,-84.339069,-2.969172,0.001400778,-0.051812051
221078,-0.023971,-0.157755,0.071869,5.201837,-84.434092,-2.646841,0.00125433,-0.046187375
221178,-0.021334,-0.206087,0.05939,4.956676,-84.555899,-2.412909,0.001036534,-0.042105262
221278,-0.000689,-0.240418,0.045727,4.813717,-84.696543,-2.269802,0.000798073,-0.039608045
221378,0.033212,-0.256903,0.031501,4.780814,-84.845858,-2.217743,0.000549787,-0.038699615
221478,0.065699,-0.2534,0.023696,4.812614,-84.99274,-2.21197,0.000413566,-0.038598877
221578,0.087286,-0.242435,0.021361,4.866462,-85.133178,-2.215918,0.000372814,-0.038667769
221678,0.095,-0.218447,0.024991,4.886635,-85.260013,-2.181641,0.000436168,-0.038069635
221778,0.09752,-0.160203,0.027545,4.854343,-85.353632,-2.093282,0.000480743,-0.036527771
221878,0.096387,-0.089875,0.030264,4.757123,-85.407131,-1.940449,0.000528198,-0.033860835
221978,0.090451,-0.031291,0.034435,4.589441,-85.427269,-1.72035,0.000600994,-0.030020108
222078,0.083533,-0.013816,0.031239,4.428931,-85.437172,-1.51143,0.000545214,-0.026374454
222178,0.083842,-0.030138,0.026363,4.311073,-85.456092,-1.345125,0.000460113,-0.023472431
222278,0.078903,-0.044877,0.020495,4.238881,-85.483111,-1.227476,0.000357699,-0.021419456
222378,0.077432,-0.041399,0.016376,4.192337,-85.507909,-1.136405,0.00028581,-0.019830267
222478,0.083526,-0.007843,0.009133,4.183188,-85.513188,-1.079345,0.000159398,-0.01883457
222578,0.105763,0.019696,0.006757,4.188925,-85.502611,-1.024435,0.00011793,-0.017876391
222678,0.14308,0.010435,-0.00444,4.301675,-85.496855,-1.055422,-7.74913E-05,-0.018417114
222778,0.204839,-0.028073,-0.017972,4.568788,-85.512495,-1.205752,-0.000313665,-0.021040372
222878,0.278124,-0.051511,-0.032222,4.997003,-85.54076,-1.475553,-0.000562371,-0.0257484
222978,0.342769,-0.012914,-0.037892,5.480297,-85.546514,-1.763441,-0.000661329,-0.030772045
223078,0.386394,0.095073,-0.035895,5.893301,-85.490589,-1.955761,-0.000626475,-0.034128029
223178,0.391771,0.229409,-0.030161,6.158318,-85.358283,-1.996559,-0.0005264,-0.034839955
223278,0.330389,0.35103,-0.038345,6.344554,-85.156039,-1.993613,-0.000669235,-0.034788547
223378,0.202838,0.498889,-0.053711,6.444588,-84.868425,-1.977509,-0.000937418,-0.034507532
223478,0.02963,0.682685,-0.091211,6.543498,-84.47355,-2.059952,-0.001591906,-0.035946162
223578,-0.119337,0.856631,-0.139754,6.702997,-83.976321,-2.289151,-0.002439127,-0.039945685
223678,-0.161889,0.959832,-0.17856,6.940963,-83.41765,-2.622048,-0.003116408,-0.045754738
223778,-0.104552,0.940252,-0.188991,7.225432,-82.869349,-2.969059,-0.00329846,-0.05181008
223878,-0.012105,0.735114,-0.190331,7.63796,-82.437534,-3.392138,-0.003321847,-0.059192808
223978,0.066554,0.37108,-0.163444,8.150917,-82.214369,-3.871383,-0.002852588,-0.067555633
224078,0.09536,-0.001604,-0.119997,8.706834,-82.205806,-4.377446,-0.002094308,-0.076386433
224178,0.077539,-0.257861,-0.071654,9.223485,-82.346149,-4.854094,-0.001250577,-0.08470394
224278,0.069485,-0.393431,-0.045128,9.740271,-82.565134,-5.335325,-0.000787619,-0.093101421
224378,0.034722,-0.419569,-0.04103,10.270375,-82.798721,-5.849812,-0.000716097,-0.102079219
224478,-0.039374,-0.344915,-0.041562,10.730072,-82.989594,-6.335887,-0.000725382,-0.110561228
224578,-0.13899,-0.206221,-0.022702,10.943787,-83.104045,-6.631496,-0.000396218,-0.115719605
224678,-0.24817,-0.028276,0.001436,10.827602,-83.120935,-6.657775,2.50625E-05,-0.116178174
224778,-0.3446,0.128304,0.018705,10.439629,-83.051539,-6.465926,0.000326458,-0.112830409
224878,-0.375178,0.183561,0.034754,9.922377,-82.952564,-6.161435,0.000606562,-0.107517041
224978,-0.340381,0.126706,0.061093,9.360801,-82.888089,-5.792123,0.001066256,-0.101072546
225078,-0.277535,0.030237,0.080411,8.824784,-82.879715,-5.412239,0.001403413,-0.094443571
225178,-0.207047,-0.041022,0.089968,8.334507,-82.912283,-5.037754,0.001570212,-0.087908807
225278,-0.166888,-0.063003,0.089818,7.877799,-82.957073,-4.673936,0.001567594,-0.081560183
225378,-0.177112,-0.065015,0.078873,7.461585,-83.001958,-4.356851,0.00137657,-0.07602705
225478,-0.190916,-0.092258,0.068858,7.095118,-83.061447,-4.097884,0.001201779,-0.071508076
225578,-0.188249,-0.15484,0.064311,6.781567,-83.156109,-3.890719,0.00112242,-0.067893047
225678,-0.183363,-0.206716,0.065281,6.487726,-83.280262,-3.70063,0.001139349,-0.064575994
225778,-0.184865,-0.230694,0.069797,6.175082,-83.418232,-3.492532,0.001218167,-0.060944683
225878,-0.190616,-0.22975,0.072418,5.835021,-83.555659,-3.260212,0.001263911,-0.056890699
225978,-0.201449,-0.209708,0.070089,5.479082,-83.68134,-3.018225,0.001223263,-0.052668026
226078,-0.21013,-0.164452,0.055318,5.162731,-83.780231,-2.821122,0.000965465,-0.049228579
226178,-0.22036,-0.113442,0.036948,4.906986,-83.848953,-2.69091,0.000644853,-0.04695638
226278,-0.230819,-0.06612,0.024364,4.687631,-83.889985,-2.60334,0.000425225,-0.045428283
226378,-0.243929,-0.03608,0.020236,4.468303,-83.91364,-2.523355,0.000353179,-0.044032545
226478,-0.256914,-0.032021,0.015785,4.262791,-83.934766,-2.46475,0.000275496,-0.043009888
226578,-0.261823,-0.054074,0.013308,4.07567,-83.96839,-2.42747,0.000232265,-0.042359352
226678,-0.254759,-0.091516,0.009514,3.926469,-84.023269,-2.424252,0.000166048,-0.042303197
226778,-0.240588,-0.131344,0.002518,3.83799,-84.100638,-2.473922,4.39467E-05,-0.043169939
226878,-0.213597,-0.158209,-0.011695,3.855119,-84.192794,-2.614202,-0.000204113,-0.045617825
226978,-0.172272,-0.161197,-0.028693,3.9975,-84.28593,-2.856552,-0.000500779,-0.049846832
227078,-0.118018,-0.151536,-0.043313,4.258705,-84.372804,-3.187037,-0.000755942,-0.055613796
227178,-0.052623,-0.124928,-0.052923,4.611086,-84.443818,-3.571443,-0.000923665,-0.06232168
227278,0.011105,-0.084967,-0.053095,4.990098,-84.491702,-3.945887,-0.000926667,-0.068855728
227378,0.057467,-0.018238,-0.042478,5.302158,-84.501768,-4.226365,-0.000741369,-0.073750069
227478,0.069815,0.062242,-0.025512,5.476054,-84.466661,-4.360938,-0.000445261,-0.076098368
227578,0.065663,0.137578,-0.003638,5.475667,-84.38971,-4.322804,-6.3494E-05,-0.07543293
227678,0.060431,0.182819,0.021768,5.3035,-84.288272,-4.115056,0.000379917,-0.071807727
227778,0.039038,0.19429,0.050597,4.958858,-84.181632,-3.746239,0.000883069,-0.065371871
227878,0.014169,0.197555,0.076898,4.467103,-84.074055,-3.243788,0.001342101,-0.056604101
227978,-0.001658,0.216261,0.100129,3.852045,-83.956207,-2.626376,0.001747551,-0.045830261
228078,0.015712,0.242942,0.115278,3.182731,-83.822851,-1.944246,0.002011947,-0.033927093
228178,0.059863,0.26507,0.128065,2.496224,-83.676263,-1.219195,0.002235118,-0.021274953
228278,0.125409,0.277235,0.135095,1.841743,-83.52186,-0.488371,0.002357813,-0.008522074
228378,0.185851,0.292438,0.136744,1.244427,-83.35781,0.219998,0.002386593,0.003838965
228478,0.230943,0.320875,0.132801,0.721962,-83.17656,0.879261,0.002317776,0.015343104
228578,0.25594,0.37851,0.134187,0.237645,-82.961533,1.514795,0.002341966,0.026433173
228678,0.257536,0.465089,0.133511,-0.206756,-82.696197,2.111353,0.002330167,0.03684311
228778,0.220733,0.553529,0.131687,-0.62196,-82.379563,2.657594,0.002298333,0.046375015
228878,0.143945,0.629505,0.131286,-1.033372,-82.018821,3.156041,0.002291335,0.055072915
228978,0.054478,0.682769,0.1297,-1.443083,-81.627032,3.601456,0.002263654,0.062845407
229078,4.60E-05,0.749996,0.133833,-1.851545,-81.196167,4.014554,0.002335787,0.070053967
229178,0.017481,0.838348,0.138416,-2.215551,-80.714191,4.393281,0.002415774,0.076662753
229278,0.081707,0.895171,0.138563,-2.499058,-80.199383,4.728253,0.00241834,0.082508015
229378,0.152794,0.89601,0.137414,-2.708373,-79.683996,5.029783,0.002398287,0.087769713
229478,0.144238,0.761403,0.116522,-2.856427,-79.246271,5.264491,0.002033658,0.091865368
229578,0.055323,0.484415,0.059005,-2.914747,-78.968923,5.356226,0.001029814,0.093466144
229678,-0.06744,0.210654,0.046982,-3.046709,-78.848847,5.451393,0.000819977,0.095126808
229778,-0.16476,-0.001382,0.06819,-3.328225,-78.849566,5.642174,0.00119012,0.098455936
229878,-0.228261,-0.157588,0.093568,-3.749584,-78.938659,5.938352,0.001633042,0.103624242
229978,-0.237565,-0.308699,0.120797,-4.295841,-79.112639,6.356177,0.00210827,0.110915289
230078,-0.167087,-0.420364,0.133701,-4.884917,-79.349027,6.858391,0.002333484,0.119678923
230178,-0.041566,-0.466487,0.133786,-5.440219,-79.610745,7.398973,0.002334967,0.129112079
230278,0.106935,-0.461462,0.117445,-5.884174,-79.869592,7.912401,0.002049768,0.138071397
230378,0.244388,-0.388914,0.088793,-6.154065,-80.088172,8.328648,0.001549704,0.145334908
230478,0.365993,-0.240284,0.057026,-6.208508,-80.223765,8.596708,0.000995275,0.150012555
230578,0.465812,-0.066525,0.018255,-6.017323,-80.262733,8.67349,0.000318605,0.151352401
230678,0.513434,0.082879,-0.024034,-5.607215,-80.219054,8.555822,-0.000419465,0.149299094
230778,0.498725,0.168909,-0.069396,-5.032793,-80.128568,8.262819,-0.001211168,0.144186192
230878,0.424124,0.200948,-0.104903,-4.38519,-80.020971,7.852045,-0.001830872,0.137018185
230978,0.298021,0.195218,-0.112182,-3.798654,-79.916225,7.429785,-0.001957912,0.129649748
231078,0.126174,0.172159,-0.086876,-3.405369,-79.823162,7.103693,-0.001516247,0.123959443
231178,-0.04479,0.16412,-0.050226,-3.233195,-79.73324,6.902653,-0.000876594,0.120451295
231278,-0.131303,0.186245,-0.024541,-3.190248,-79.62984,6.782525,-0.000428314,0.118355061
231378,-0.145609,0.187657,-0.022454,-3.163476,-79.525665,6.670471,-0.00039189,0.116399719
231478,-0.15814,0.100896,-0.040835,-3.103405,-79.471812,6.517223,-0.000712693,0.113725541
231578,-0.178536,-0.026571,-0.052965,-3.039655,-79.491318,6.348336,-0.000924398,0.110778463
231678,-0.172028,-0.102408,-0.057004,-2.971537,-79.554326,6.178819,-0.000994891,0.107820392
231778,-0.135135,-0.117101,-0.067743,-2.849745,-79.625971,5.976254,-0.001182319,0.104285632
231878,-0.098512,-0.103385,-0.079026,-2.667293,-79.689907,5.733398,-0.001379241,0.100047795
231978,-0.070135,-0.083137,-0.08419,-2.446877,-79.742138,5.468524,-0.001469368,0.095425744
232078,-0.049501,-0.054366,-0.082881,-2.212757,-79.777577,5.201773,-0.001446522,0.090770939
232178,-0.03039,-0.023272,-0.078425,-1.976622,-79.794823,4.944123,-0.001368752,0.086274946
232278,-0.011205,0.002935,-0.074299,-1.739168,-79.796701,4.696309,-0.00129674,0.081950592
232378,0.000251,0.012998,-0.076618,-1.48678,-79.792583,4.439989,-0.001337214,0.077477808
232478,0.00123,0.022351,-0.090351,-1.189725,-79.782999,4.138846,-0.001576896,0.072222863
232578,-0.010422,0.028541,-0.103222,-0.858781,-79.769647,3.796474,-0.001801534,0.066248471
232678,-0.024883,0.018672,-0.109987,-0.515907,-79.761585,3.433546,-0.001919603,0.059915378
232778,-0.050204,0.008064,-0.111314,-0.184097,-79.759173,3.067112,-0.001942763,0.053521104
232878,-0.078686,0.010652,-0.10319,0.105279,-79.754869,2.727209,-0.001800975,0.047589797
232978,-0.098817,0.018224,-0.093376,0.351358,-79.74591,2.419574,-0.001629691,0.042221566
233078,-0.104987,0.02375,-0.085273,0.567296,-79.733534,2.138961,-0.00148827,0.037324869
233178,-0.101731,0.015868,-0.076284,0.756085,-79.72548,1.88782,-0.001331385,0.032942459
233278,-0.098734,-0.014606,-0.072734,0.936287,-79.734688,1.647144,-0.001269427,0.028742663
233378,-0.097746,-0.029703,-0.069194,1.106846,-79.752359,1.416846,-0.001207643,0.024723963
233478,-0.09433,-0.022066,-0.066577,1.270905,-79.765473,1.195147,-0.001161968,0.020855315
233578,-0.092625,-0.006225,-0.061946,1.420185,-79.769374,0.989456,-0.001081144,0.017266007
233678,-0.087114,0.001044,-0.058933,1.562299,-79.768969,0.794251,-0.001028558,0.01385968
233778,-0.07191,-0.003324,-0.055976,1.703896,-79.770934,0.608418,-0.000976949,0.010616894
233878,-0.05748,-0.025867,-0.055642,1.854853,-79.785643,0.421473,-0.00097112,0.007354704
233978,-0.041384,-0.045201,-0.055123,2.01581,-79.811255,0.233743,-0.000962062,0.004078815
234078,-0.036075,-0.055162,-0.051049,2.168647,-79.842478,0.057363,-0.000890958,0.001000984
234178,-0.028661,-0.054138,-0.041219,2.294879,-79.873181,-0.087662,-0.000719395,-0.001529702
234278,-0.011921,-0.042342,-0.031392,2.398145,-79.897243,-0.199611,-0.000547885,-0.003483212
234378,0.00993,-0.039016,-0.03208,2.516026,-79.919287,-0.313684,-0.000559892,-0.005473786
234478,0.036452,-0.049854,-0.038667,2.672309,-79.947263,-0.451321,-0.000674855,-0.007875551
234578,0.062873,-0.090392,-0.044098,2.868441,-79.99817,-0.61404,-0.000769642,-0.010714998
234678,0.094778,-0.149622,-0.048404,3.108864,-80.082692,-0.80314,-0.000844795,-0.014014793
234778,0.141539,-0.203395,-0.047321,3.386303,-80.197826,-1.002565,-0.000825893,-0.017494759
234878,0.223865,-0.219002,-0.035924,3.681463,-80.32209,-1.172045,-0.000626982,-0.020452185
234978,0.321863,-0.178798,-0.012118,3.948487,-80.424114,-1.255987,-0.000211495,-0.021916973
235078,0.39847,-0.074589,0.009548,4.163349,-80.467363,-1.242512,0.000166641,-0.021681834
235178,0.40832,0.055666,0.021883,4.309553,-80.436632,-1.153699,0.000381924,-0.020132048
235278,0.337622,0.162537,0.025244,4.376528,-80.344869,-1.025607,0.000440584,-0.017896842
235378,0.199927,0.196377,0.01246,4.399602,-80.233014,-0.932988,0.000217464,-0.016280641
235478,0.029231,0.214634,-0.026384,4.449356,-80.108756,-0.966681,-0.00046048,-0.016868583
235578,-0.119761,0.330703,-0.078481,4.552226,-79.915583,-1.141009,-0.001369729,-0.019910607
235678,-0.229858,0.518364,-0.134649,4.715513,-79.612359,-1.440969,-0.002350029,-0.025144909
235778,-0.282717,0.650775,-0.18201,4.944348,-79.230955,-1.838747,-0.003176621,-0.032086135
235878,-0.279231,0.664109,-0.175589,5.131931,-78.841989,-2.192978,-0.003064555,-0.038267466
235978,-0.247514,0.611398,-0.113626,5.159607,-78.486269,-2.366035,-0.001983115,-0.041287311
236078,-0.171168,0.513826,-0.068803,5.126435,-78.188756,-2.432489,-0.001200819,-0.042446933
236178,-0.074432,0.31351,-0.030697,5.093086,-78.007859,-2.442169,-0.000535755,-0.042615849
236278,-0.045508,0.06077,-0.000248,5.054843,-77.973137,-2.429897,-4.32834E-06,-0.042401703
236378,-0.02064,-0.19446,-0.001114,5.093892,-78.084377,-2.482062,-1.94426E-05,-0.043311982
236478,0.049202,-0.398631,-0.036423,5.322276,-78.310504,-2.686723,-0.000635691,-0.046883316
236578,0.107873,-0.549645,-0.105765,5.831635,-78.618738,-3.143624,-0.001845917,-0.054856239
236678,0.100477,-0.660183,-0.200952,6.678403,-78.982899,-3.948245,-0.003507215,-0.068896875
236778,-0.022961,-0.67892,-0.244032,7.647637,-79.352028,-4.94855,-0.00425909,-0.086352198
236878,-0.254278,-0.498253,-0.186124,8.288905,-79.620416,-5.749039,-0.003248422,-0.100320731
236978,-0.495414,-0.192944,-0.099208,8.406971,-79.721874,-6.15767,-0.001731477,-0.107451342
237078,-0.629059,0.078932,-0.01488,8.063,-79.676236,-6.174481,-0.000259701,-0.107744693
237178,-0.622442,0.202994,0.03657,7.512907,-79.564296,-5.977878,0.000638256,-0.104313971
237278,-0.532956,0.18562,0.0547,6.973148,-79.46339,-5.739564,0.000954679,-0.100155392
237378,-0.394628,0.099626,0.05523,6.548374,-79.411286,-5.537524,0.000963929,-0.096629794
237478,-0.227336,0.004522,0.038002,6.306343,-79.412188,-5.423861,0.000663249,-0.094646374
237578,-0.072552,-0.101398,0.011793,6.267896,-79.47187,-5.427087,0.000205823,-0.094702668
237678,0.022612,-0.212508,0.003642,6.346564,-79.594455,-5.493961,6.35638E-05,-0.095869619
237778,0.068417,-0.288135,0.022825,6.419297,-79.761411,-5.528099,0.000398365,-0.096465328
237878,0.13634,-0.31628,0.049913,6.456057,-79.946186,-5.486138,0.000871132,-0.095733108
237978,0.19937,-0.31633,0.07009,6.463062,-80.13232,-5.377326,0.001223281,-0.093834339
238078,0.216783,-0.298621,0.083133,6.428178,-80.309206,-5.215941,0.00145092,-0.09101817
238178,0.14939,-0.271317,0.093553,6.305371,-80.471143,-5.004627,0.001632781,-0.087330741
238278,0.033788,-0.222348,0.104337,6.05522,-80.605699,-4.731452,0.001820994,-0.082563837
238378,-0.08142,-0.170196,0.101376,5.723392,-80.710092,-4.442493,0.001769315,-0.077521503
238478,-0.151904,-0.127887,0.09767,5.343212,-80.789837,-4.145537,0.001704635,-0.072339621
238578,-0.170549,-0.107421,0.096335,4.944938,-80.857504,-3.841137,0.001681335,-0.067027841
238678,-0.157016,-0.116753,0.098195,4.545287,-80.930251,-3.527551,0.001713797,-0.061555765
238778,-0.141317,-0.133729,0.102721,4.137109,-81.012551,-3.196292,0.00179279,-0.055775295
238878,-0.135675,-0.160321,0.09523,3.759252,-81.10941,-2.892537,0.001662049,-0.050474771
238978,-0.129196,-0.198945,0.075692,3.458767,-81.227385,-2.663413,0.001321052,-0.046476557
239078,-0.10391,-0.238004,0.047594,3.279949,-81.366617,-2.542797,0.000830658,-0.044371808
239178,-0.060207,-0.264569,0.018378,3.23939,-81.520061,-2.536719,0.000320751,-0.044265747
239278,-0.014609,-0.285645,-0.011636,3.346647,-81.684562,-2.653653,-0.000203083,-0.046306245
239378,0.040606,-0.297531,-0.034281,3.583902,-81.854993,-2.869924,-0.000598306,-0.050080174
239478,0.091108,-0.286401,-0.038486,3.874287,-82.018703,-3.110543,-0.000671696,-0.054278975
239578,0.123858,-0.249674,-0.023104,4.119894,-82.161804,-3.286923,-0.000403234,-0.057356806
239678,0.135856,-0.198168,0.004019,4.24966,-82.276455,-3.339396,7.01436E-05,-0.05827246
239778,0.137498,-0.143024,0.03184,4.246918,-82.360704,-3.257203,0.000555704,-0.056838192
239878,0.131044,-0.100224,0.057982,4.113914,-82.421519,-3.047339,0.00101196,-0.053176066
239978,0.117492,-0.084713,0.071962,3.905454,-82.473903,-2.769222,0.001255953,-0.048322924
240078,0.101544,-0.086415,0.07837,3.657137,-82.527327,-2.460156,0.001367792,-0.042929722
240178,0.083966,-0.101369,0.086817,3.361595,-82.589383,-2.113663,0.001515217,-0.036883419
240278,0.066184,-0.112723,0.095886,3.012964,-82.657947,-1.723965,0.001673498,-0.030083189
240378,0.055395,-0.10879,0.107425,2.598779,-82.72422,-1.274471,0.001874889,-0.022239519
240478,0.06387,-0.080054,0.117181,2.132737,-82.77379,-0.767867,0.00204516,-0.013399279
240578,0.099864,-0.030398,0.127192,1.629017,-82.794519,-0.20254,0.002219882,-0.003534323
240678,0.155009,0.022215,0.134148,1.117953,-82.784517,0.402027,0.002341285,0.007015371
