SampleTimeFine,Gyr_X,Gyr_Y,Gyr_Z,Roll,Pitch,Yaw,Yaw (rad),Reference,,,
97519,0.00213,0.001675,0.002862,-1.292902,-2.0621,0,0,0,,variance,0.000226943
97619,0.001751,0.001559,0.001653,-1.288743,-2.060209,-0.000725,-1.26513E-05,0,,variance deg,0.745291973
97719,0.001732,0.000755,2.60E-05,-1.287684,-2.059733,-0.001245,-2.17253E-05,0,,,
97819,0.000935,0.001598,0.001892,-1.289561,-2.062162,-0.002699,-4.70976E-05,0,,,
97919,0.000574,9.00E-05,0.001892,-1.292217,-2.066,-0.004061,-7.08645E-05,0,,,
98019,0.000891,0.001778,0.001829,-1.292448,-2.064895,-0.002027,-3.53712E-05,0,,,
98119,0.000919,0.00227,0.001445,-1.289892,-2.061395,0.001104,1.92648E-05,0,,,
98219,0.003215,0.000801,0.000901,-1.285638,-2.061119,-0.001344,-2.34528E-05,0,,,
98319,0.001129,0.001295,0.000524,-1.285889,-2.062191,-0.002879,-5.02386E-05,0,,,
98419,0.000417,0.001675,0.002214,-1.290977,-2.065819,-0.003509,-6.12321E-05,0,,,
98519,0.000741,7.10E-05,0.002327,-1.293329,-2.066947,8.00E-05,0.000001396,0,,,
98619,0.002215,0.00215,0.001858,-1.292926,-2.066005,0.002086,3.64007E-05,0,,,
98719,0.001343,0.000654,0.000506,-1.288866,-2.063647,0.002437,4.25257E-05,0,,,
98819,0.001108,-0.000117,0.001351,-1.286185,-2.062275,0.003105,5.41823E-05,0,,,
98919,0.001181,0.002934,0.001885,-1.285651,-2.061721,0.000639,1.11506E-05,0,,,
99019,-3.30E-05,0.001292,0.001842,-1.288798,-2.063421,0.00086,0.000015007,0,,,
99119,0.000828,0.00024,0.001788,-1.29252,-2.066764,0.001653,2.88449E-05,0,,,
99219,0.000326,-0.000665,0.000612,-1.292503,-2.068624,0.001361,2.37495E-05,0,,,
99319,0.001235,0.002231,0.001041,-1.291074,-2.065357,0.004406,7.68847E-05,0,,,
99419,0.000729,-2.50E-05,0.001507,-1.289031,-2.064564,0.00473,8.25385E-05,0,,,
99519,0.00113,0.000579,0.003261,-1.290037,-2.067031,0.002942,5.13379E-05,0,,,
99619,0.000555,0.000565,0.001371,-1.292445,-2.06993,0.001506,2.62797E-05,0,,,
99719,0.001587,0.000958,0.000625,-1.294553,-2.072889,9.20E-05,1.6054E-06,0,,,
99819,0.002439,-0.000432,0.001959,-1.293682,-2.074483,0.000317,5.53165E-06,0,,,
99919,0.002114,0.000914,0.002405,-1.291191,-2.072954,0.002656,4.63472E-05,0,,,
100019,0.001707,0.001036,0.002697,-1.288827,-2.071026,0.005089,8.88031E-05,0,,,
100119,0.003421,0.00247,0.002461,-1.28819,-2.072273,0.003155,5.50548E-05,0,,,
100219,0.001915,0.000265,0.001689,-1.290638,-2.075006,0.003426,5.97837E-05,0,,,
100319,0.002933,0.001009,0.001582,-1.291864,-2.077131,0.003055,5.33098E-05,0,,,
100419,0.000486,0.000417,0.002455,-1.291145,-2.077231,0.003827,6.67812E-05,0,,,
100519,0.001326,0.000882,0.001509,-1.287874,-2.074459,0.006657,0.000116165,0,,,
100619,0.000942,-8.90E-05,0.00226,-1.284751,-2.071997,0.008179,0.000142724,0,,,
100719,0.001624,0.000155,0.001309,-1.286261,-2.073524,0.008186,0.000142846,0,,,
100819,0.000185,0.002317,0.002035,-1.289933,-2.07542,0.007555,0.000131835,0,,,
100919,0.000256,-0.00093,0.00165,-1.293605,-2.078981,0.007927,0.000138326,0,,,
101019,0.000812,0.001474,0.00348,-1.293938,-2.078854,0.009912,0.000172964,0,,,
101119,0.001177,0.003098,0.001457,-1.291766,-2.076575,0.010615,0.000185232,0,,,
101219,0.00034,0.001352,0.000429,-1.288245,-2.074998,0.007897,0.000137803,0,,,
101319,0.002748,0.000227,0.002006,-1.286806,-2.076665,0.006775,0.000118224,0,,,
101419,0.003697,-0.000521,0.002428,-1.288144,-2.080029,0.006661,0.000116234,0,,,
101519,0.000938,0.00029,0.001766,-1.291052,-2.083777,0.00569,9.92905E-05,0,,,
101619,0.000384,0.00037,0.002478,-1.291796,-2.084225,0.007604,0.00013269,0,,,
101719,0.00015,0.00334,0.000634,-1.288906,-2.08175,0.006047,0.00010552,0,,,
101819,-0.002529,0.002666,0.001767,-1.287824,-2.079679,0.005178,9.03561E-05,0,,,
101919,-0.001221,0.004403,0.001044,-1.289174,-2.077795,0.005305,9.25723E-05,0,,,
102019,0.000766,0.001656,0.001507,-1.292358,-2.079515,0.005049,8.81051E-05,0,,,
102119,0.001756,0.002846,0.00025,-1.295017,-2.080617,0.004862,8.48419E-05,0,,,
102219,0.002232,0.002369,0.002216,-1.292073,-2.078475,0.006929,0.000120911,0,,,
102319,0.002372,0.002517,0.003153,-1.288502,-2.07461,0.010557,0.00018422,0,,,
102419,0.001832,0.001556,0.002982,-1.284655,-2.072383,0.011347,0.000198005,0,,,
102519,0.00188,0.001093,0.001246,-1.284475,-2.073502,0.009636,0.000168148,0,,,
102619,0.001598,0.002298,0.001151,-1.285563,-2.075079,0.007268,0.000126827,0,,,
102719,-0.000927,0.003514,0.00062,-1.289009,-2.076092,0.00553,9.64985E-05,0,,,
102819,-0.001307,0.002187,-9.70E-05,-1.29,-2.076097,0.004929,8.60111E-05,0,,,
102919,0.002254,0.002036,0.001422,-1.285501,-2.073599,0.004943,8.62554E-05,0,,,
103019,0.002398,0.002656,0.001826,-1.281613,-2.071239,0.00445,7.76525E-05,0,,,
103119,-0.001189,0.000175,0.000631,-1.283196,-2.072251,0.003608,6.29596E-05,0,,,
103219,0.001276,0.000353,0.002673,-1.28525,-2.074641,0.003468,6.05166E-05,0,,,
103319,-1.80E-05,0.002265,0.002299,-1.289402,-2.07694,0.003709,6.47221E-05,0,,,
103419,0.000584,0.00153,0.000286,-1.289487,-2.077303,0.002162,3.77269E-05,0,,,
103519,0.001054,0.001554,0.002342,-1.285598,-2.074725,0.003233,5.64159E-05,0,,,
103619,0.000644,0.001011,0.00238,-1.283726,-2.073506,0.003748,6.54026E-05,0,,,
103719,0.001779,0.000981,0.001389,-1.284492,-2.074201,0.002658,4.63821E-05,0,,,
103819,0.000781,0.002733,0.00329,-1.28737,-2.075954,0.003276,5.71662E-05,0,,,
103919,0.00059,0.00245,0.00264,-1.290234,-2.076603,0.005094,8.88903E-05,0,,,
104019,-0.000871,1.40E-05,0.003708,-1.291165,-2.07714,0.007122,0.000124279,0,,,
104119,0.001308,0.000423,0.001263,-1.287485,-2.075396,0.007988,0.000139391,0,,,
104219,0.001101,0.001585,0.001561,-1.285465,-2.072841,0.009199,0.000160523,0,,,
104319,0.000889,-0.001048,0.001071,-1.285943,-2.073863,0.010614,0.000185214,0,,,
104419,0.000546,-0.000955,0.000489,-1.288273,-2.077383,0.008155,0.000142305,0,,,
104519,0.002104,-0.000369,0.001809,-1.290903,-2.080387,0.008951,0.000156195,0,,,
104619,0.002383,-0.000533,0.003747,-1.289843,-2.080907,0.010964,0.000191322,0,,,
104719,0.001381,0.001681,0.003511,-1.288392,-2.080124,0.012238,0.000213553,0,,,
104819,0.001763,0.000731,0.00286,-1.285719,-2.079054,0.01294,0.000225803,0,,,
104919,0.000691,0.000651,0.002066,-1.286038,-2.079597,0.012495,0.000218038,0,,,
105019,0.002349,0.001509,0.001502,-1.288103,-2.0819,0.011841,0.000206625,0,,,
105119,0.001183,0.001526,0.001161,-1.289351,-2.083023,0.011881,0.000207323,0,,,
105219,0.001781,0.002051,0.002231,-1.289597,-2.082936,0.013168,0.000229782,0,,,
105319,-6.50E-05,0.001947,0.002086,-1.287026,-2.08076,0.013674,0.000238611,0,,,
105419,0.000322,0.00117,0.001859,-1.285036,-2.079496,0.013394,0.000233725,0,,,
105519,0.001965,0.001659,0.003478,-1.284966,-2.080332,0.012667,0.000221039,0,,,
105619,0.00246,0.001476,0.001547,-1.286604,-2.082476,0.011537,0.000201321,0,,,
105719,0.001466,-0.002119,0.003498,-1.289178,-2.086062,0.013097,0.000228543,0,,,
105819,0.002238,-0.000706,0.002305,-1.287715,-2.085847,0.016576,0.000289251,0,,,
105919,0.001886,0.001104,0.001204,-1.285646,-2.084927,0.016868,0.000294347,0,,,
106019,0.001988,-0.000355,0.002614,-1.282245,-2.084749,0.015869,0.000276914,0,,,
106119,0.000756,0.002206,0.002134,-1.282449,-2.084674,0.015448,0.000269568,0,,,
106219,0.000492,7.60E-05,0.001029,-1.284402,-2.086596,0.015862,0.000276792,0,,,
106319,-0.000207,-0.000142,0.001702,-1.287282,-2.088449,0.017516,0.000305654,0,,,
106419,0.000875,0.001875,0.001859,-1.287898,-2.088335,0.019707,0.000343887,0,,,
106519,0.001862,-0.000306,0.001713,-1.285286,-2.087241,0.020506,0.00035783,0,,,
106619,0.000543,0.000152,0.001577,-1.28254,-2.086396,0.019545,0.00034106,0,,,
106719,0.002521,0.001343,0.001037,-1.281517,-2.086612,0.018871,0.000329299,0,,,
106819,0.002219,-0.000592,0.002327,-1.283065,-2.088974,0.019845,0.000346295,0,,,
106919,0.001981,0.001626,0.002808,-1.283753,-2.089895,0.021577,0.000376519,0,,,
107019,0.001769,0.001285,0.002438,-1.282989,-2.089736,0.022398,0.000390845,0,,,
107119,0.001067,0.001755,0.001339,-1.280103,-2.087754,0.022374,0.000390426,0,,,
107219,0.002856,0.00177,0.001545,-1.27785,-2.087133,0.020701,0.000361232,0,,,
107319,0.000954,-0.001604,0.002129,-1.277521,-2.089988,0.01744,0.000304328,0,,,
107419,0.003237,-0.000926,0.001661,-1.278898,-2.09333,0.017282,0.000301571,0,,,
107519,0.000258,0.001158,0.002243,-1.280909,-2.095039,0.017648,0.000307958,0,,,
107619,0.00024,0.001604,0.00314,-1.281393,-2.095382,0.019408,0.00033867,0,,,
107719,0.00062,0.001522,0.002244,-1.279476,-2.093873,0.020228,0.000352979,0,,,
107819,-0.001121,0.000944,0.001603,-1.278473,-2.091758,0.021718,0.000378979,0,,,
107919,-0.001198,0.002203,0.002795,-1.280266,-2.092288,0.021111,0.000368387,0,,,
108019,0.000311,0.000513,0.001951,-1.283133,-2.094127,0.02183,0.000380934,0,,,
108119,0.000869,0.001409,0.002141,-1.282484,-2.09382,0.022808,0.000398,0,,,
108219,0.00154,0.000751,0.000331,-1.280265,-2.093557,0.022151,0.000386535,0,,,
108319,0.002205,0.000524,0.001619,-1.277656,-2.0925,0.022932,0.000400163,0,,,
108419,0.000902,0.002317,0.003172,-1.276223,-2.090816,0.023574,0.000411366,0,,,
108519,0.001252,0.001956,0.001103,-1.276766,-2.091179,0.022778,0.000397476,0,,,
108619,0.00085,-2.30E-05,0.001566,-1.278975,-2.093324,0.022915,0.000399867,0,,,
108719,-0.00033,0.000456,0.001842,-1.281583,-2.095237,0.02385,0.000416183,0,,,
108819,0.002396,0.001822,0.001958,-1.279643,-2.095253,0.024189,0.000422098,0,,,
108919,0.00171,0.000998,0.000289,-1.276149,-2.093734,0.023544,0.000410843,0,,,
109019,0.001738,-0.000326,0.001913,-1.273575,-2.093208,0.023702,0.0004136,0,,,
109119,0.002153,0.000494,0.001483,-1.273239,-2.093659,0.024849,0.000433615,0,,,
109219,0.001595,0.001815,0.002055,-1.274943,-2.095803,0.023861,0.000416374,0,,,
109319,0.003556,0.002149,0.001577,-1.274472,-2.096668,0.024382,0.000425466,0,,,
109419,0.000977,0.002271,0.002191,-1.273451,-2.094487,0.026695,0.000465828,0,,,
109519,0.000779,0.000487,0.003268,-1.271683,-2.093212,0.028007,0.000488722,0,,,
109619,0.002968,0.002514,0.003171,-1.268024,-2.090439,0.029348,0.000512123,0,,,
109719,0.00258,0.003098,0.003162,-1.267019,-2.089408,0.030844,0.000538228,0,,,
109819,0.000682,0.001596,0.001797,-1.269556,-2.089753,0.032565,0.000568259,0,,,
109919,0.00151,0.001609,0.0019,-1.27173,-2.091377,0.033757,0.00058906,0,,,
110019,-0.000735,0.000727,0.001291,-1.272234,-2.091384,0.034429,0.000600786,0,,,
110119,0.001794,0.000576,-0.000643,-1.269621,-2.090921,0.033612,0.000586529,0,,,
110219,0.002122,0.000621,0.002517,-1.266736,-2.090032,0.033733,0.000588641,0,,,
110319,0.002124,0.001813,0.002257,-1.266769,-2.090424,0.034307,0.000598657,0,,,
110419,0.00147,0.000823,0.000768,-1.268544,-2.092389,0.033901,0.000591572,0,,,
110519,0.000496,0.001123,0.002145,-1.270329,-2.093746,0.035241,0.000614955,0,,,
110619,0.000221,0.001937,0.002125,-1.270226,-2.092151,0.037468,0.000653817,0,,,
110719,-0.000816,0.002492,0.003521,-1.268432,-2.089063,0.039488,0.000689066,0,,,
110819,0.000413,0.00264,0.003264,-1.266397,-2.086193,0.04016,0.000700792,0,,,
110919,0.002698,0.000277,0.000744,-1.265803,-2.08675,0.04059,0.000708296,0,,,
111019,0.003036,0.002201,0.003097,-1.266815,-2.088207,0.041515,0.000724437,0,,,
111119,0.001687,0.000985,0.002075,-1.26787,-2.090074,0.040757,0.00071121,0,,,
111219,-0.000693,0.000409,0.002893,-1.268689,-2.090741,0.04194,0.000731853,0,,,
111319,0.000877,0.001585,0.000137,-1.266281,-2.09008,0.039574,0.000690566,0,,,
111419,0.000162,0.002581,0.002153,-1.264132,-2.087196,0.040576,0.000708051,0,,,
111519,-8.60E-05,0.003175,0.001958,-1.265326,-2.087025,0.03975,0.000693638,0,,,
111619,0.00019,0.001841,0.001177,-1.267524,-2.08815,0.040824,0.000712379,0,,,
111719,0.001792,0.000265,0.002985,-1.268853,-2.090475,0.042031,0.000733441,0,,,
111819,0.003131,-0.000161,0.001971,-1.26705,-2.090573,0.043609,0.000760977,0,,,
111919,-0.001082,0.000439,0.003325,-1.265252,-2.089751,0.043644,0.000761588,0,,,
112019,0.00214,0.000178,0.000978,-1.262876,-2.089226,0.043292,0.000755445,0,,,
112119,0.000664,0.002088,0.002282,-1.263478,-2.089796,0.042248,0.000737228,0,,,
112219,0.002575,8.80E-05,0.001712,-1.264246,-2.092413,0.041547,0.000724995,0,,,
112319,0.001712,-0.000406,0.001406,-1.265487,-2.095145,0.041001,0.000715467,0,,,
112419,0.000366,0.000839,7.40E-05,-1.265374,-2.094836,0.041553,0.0007251,0,,,
112519,0.001129,0.002638,0.002351,-1.264081,-2.092317,0.0437,0.000762565,0,,,
112619,0.001809,0.002765,0.003043,-1.26214,-2.090031,0.045068,0.000786437,0,,,
112719,0.000489,0.00233,0.001677,-1.26282,-2.090156,0.044361,0.000774099,0,,,
112819,0.001449,0.001243,0.002659,-1.265059,-2.092972,0.044054,0.000768742,0,,,
112919,0.00296,-0.001204,0.002366,-1.264986,-2.095367,0.044829,0.000782266,0,,,
113019,0.001482,0.001889,0.002298,-1.264132,-2.094737,0.0458,0.00079921,0,,,
113119,0.001165,0.00075,0.001236,-1.261445,-2.092811,0.046807,0.000816782,0,,,
113219,0.00016,0.002185,0.004633,-1.259954,-2.091003,0.047617,0.000830917,0,,,
113319,0.001215,0.00184,0.001836,-1.259311,-2.091045,0.04672,0.000815264,0,,,
113419,0.000576,0.001061,0.002808,-1.261743,-2.093628,0.046657,0.000814165,0,,,
113519,0.001265,-0.001004,0.001432,-1.262747,-2.095762,0.047549,0.00082973,0,,,
113619,0.00135,0.001264,0.001253,-1.261411,-2.095212,0.047431,0.000827671,0,,,
113719,0.001625,0.00042,0.002666,-1.259473,-2.094445,0.047983,0.000837303,0,,,
113819,0.00089,0.000897,0.000247,-1.257488,-2.093567,0.046258,0.000807202,0,,,
113919,0.002169,0.0004,0.001913,-1.256365,-2.094296,0.045353,0.00079141,0,,,
114019,0.002649,0.001336,0.000994,-1.25731,-2.095417,0.046311,0.000808127,0,,,
114119,0.001522,0.001757,0.001657,-1.259306,-2.096148,0.048779,0.000851194,0,,,
114219,0.004723,0.001534,0.002103,-1.256255,-2.094468,0.05131,0.00089536,0,,,
114319,0.002729,0.002292,0.002932,-1.253179,-2.092348,0.051684,0.000901886,0,,,
114419,0.000504,0.002668,0.001904,-1.251197,-2.090998,0.049505,0.000863862,0,,,
114519,0.001065,0.001844,0.003391,-1.251509,-2.090257,0.051651,0.00090131,0,,,
114619,0.000606,0.001225,0.001336,-1.254144,-2.092448,0.051873,0.000905184,0,,,
114719,0.00029,0.000616,0.003684,-1.256203,-2.094097,0.053396,0.00093176,0,,,
114819,0.001575,0.001088,0.001548,-1.254256,-2.092685,0.05453,0.000951549,0,,,
114919,0.001098,0.001131,-0.000511,-1.252152,-2.091131,0.053985,0.000942038,0,,,
115019,0.000782,0.000393,0.001454,-1.251184,-2.091448,0.052369,0.000913839,0,,,
115119,0.001601,-0.00039,0.001583,-1.250975,-2.093225,0.050936,0.000888833,0,,,
115219,0.000404,2.60E-05,0.000903,-1.253596,-2.096084,0.050159,0.000875275,0,,,
115319,-0.000125,0.001631,0.001091,-1.256073,-2.097423,0.050165,0.000875379,0,,,
115419,0.003458,0.000674,0.00165,-1.25441,-2.097254,0.051813,0.000904137,0,,,
115519,0.001967,0.000759,0.003084,-1.252011,-2.096272,0.052989,0.000924658,0,,,
115619,0.001415,0.000867,0.003611,-1.250574,-2.095848,0.053475,0.000933139,0,,,
115719,0.001862,0.002545,0.001829,-1.25059,-2.096197,0.052479,0.000915759,0,,,
115819,0.00197,0.001025,0.002707,-1.251933,-2.097606,0.053634,0.000935913,0,,,
115919,0.003543,0.002081,0.003555,-1.252827,-2.099187,0.05524,0.000963938,0,,,
116019,0.002655,0.00054,0.002017,-1.250445,-2.098519,0.056073,0.000978474,0,,,
116119,0.001341,0.001487,0.001659,-1.248575,-2.097324,0.056036,0.000977828,0,,,
116219,0.001189,0.000487,0.002534,-1.247371,-2.097266,0.05612,0.000979294,0,,,
116319,0.003287,0.001471,0.001959,-1.246553,-2.098069,0.055715,0.000972227,0,,,
116419,0.003062,0.000248,0.002264,-1.247519,-2.099928,0.057057,0.000995645,0,,,
116519,0.000908,0.00374,0.002502,-1.248743,-2.100065,0.057819,0.001008942,0,,,
116619,0.002127,0.001559,0.002202,-1.247265,-2.099543,0.057828,0.001009099,0,,,
116719,0.000419,0.001064,0.001467,-1.245748,-2.097555,0.058992,0.00102941,0,,,
116819,0.00085,0.00116,0.000305,-1.244575,-2.097135,0.057663,0.001006219,0,,,
116919,0.001069,0.002344,0.001528,-1.244818,-2.097184,0.056639,0.000988351,0,,,
117019,0.000986,-0.000501,0.000825,-1.247767,-2.100328,0.056163,0.000980044,0,,,
117119,0.00171,0.000709,0.002435,-1.248953,-2.101474,0.057407,0.001001752,0,,,
117219,0.000423,0.001014,0.003173,-1.248507,-2.101072,0.059402,0.001036565,0,,,
117319,0.001258,0.001354,0.002345,-1.24628,-2.099705,0.059021,0.001029916,0,,,
117419,0.000715,0.00203,0.001575,-1.244711,-2.09823,0.058673,0.001023844,0,,,
117519,0.003592,0.000761,0.002205,-1.244055,-2.099068,0.058994,0.001029445,0,,,
117619,0.003901,0.002597,0.002354,-1.24427,-2.099434,0.059765,0.001042899,0,,,
117719,0.001981,-0.001196,0.003453,-1.24539,-2.10191,0.061668,0.001076107,0,,,
117819,0.002609,0.000923,0.002285,-1.244153,-2.102428,0.061483,0.001072878,0,,,
117919,0.00234,0.000349,0.002751,-1.241122,-2.101218,0.062946,0.001098408,0,,,
118019,0.000577,0.000569,0.001495,-1.239675,-2.100222,0.063288,0.001104376,0,,,
118119,0.00111,0.000422,0.000533,-1.239187,-2.100804,0.062196,0.00108532,0,,,
118219,-0.002006,0.002052,0.000838,-1.243057,-2.10212,0.061917,0.001080452,0,,,
118319,-0.00044,0.001825,0.002554,-1.246007,-2.103517,0.062969,0.001098809,0,,,
118419,0.000843,0.000776,0.001104,-1.245779,-2.10323,0.063786,0.001113066,0,,,
118519,0.00282,0.000382,0.002156,-1.24253,-2.102164,0.064165,0.001119679,0,,,
118619,1.50E-05,0.001943,0.00084,-1.241901,-2.10156,0.062617,0.001092667,0,,,
118719,0.002618,0.000468,0.003719,-1.241114,-2.102722,0.062862,0.001096942,0,,,
118819,-0.000627,0.00222,0.002101,-1.244453,-2.104418,0.062478,0.001090241,0,,,
118919,-0.000151,0.001202,0.003343,-1.246598,-2.105087,0.065028,0.001134739,0,,,
119019,0.001998,0.000935,0.00279,-1.245344,-2.104288,0.06717,0.001172117,0,,,
119119,0.001927,0.000584,0.001885,-1.243304,-2.103435,0.067374,0.001175676,0,,,
119219,0.002084,0.003274,0.00169,-1.241276,-2.101806,0.066329,0.001157441,0,,,
119319,0.001624,0.000742,0.001314,-1.241523,-2.102869,0.065804,0.00114828,0,,,
119419,0.001509,-6.60E-05,0.002118,-1.243237,-2.104959,0.066627,0.001162641,0,,,
119519,0.000385,0.002005,0.000319,-1.245255,-2.105846,0.066352,0.001157842,0,,,
119619,0.001611,0.000198,0.002609,-1.243848,-2.105582,0.067612,0.001179829,0,,,
119719,0.003423,0.000357,0.001104,-1.240803,-2.10548,0.066234,0.001155783,0,,,
119819,0.001127,2.30E-05,0.001052,-1.238835,-2.104569,0.066566,0.001161577,0,,,
119919,0.001077,0.000891,0.002857,-1.238663,-2.105338,0.066243,0.00115594,0,,,
120019,0.001534,0.002856,0.001833,-1.240437,-2.105618,0.067603,0.001179672,0,,,
120119,0.00168,0.001562,0.00152,-1.242219,-2.107375,0.067541,0.00117859,0,,,
120219,0.001238,0.001741,0.000372,-1.241739,-2.106059,0.069202,0.001207575,0,,,
120319,0.00204,0.001905,0.001873,-1.239309,-2.104452,0.06892,0.001202654,0,,,
120419,0.00112,-0.000817,0.000765,-1.237398,-2.104298,0.068328,0.001192324,0,,,
120519,0.003273,-0.001129,0.001808,-1.236736,-2.106531,0.067733,0.001181941,0,,,
120619,0.002483,0.001236,0.001604,-1.237211,-2.108163,0.066911,0.001167597,0,,,
120719,0.000363,0.001983,0.001618,-1.23876,-2.108498,0.067749,0.00118222,0,,,
120819,0.001063,-0.001113,0.001588,-1.237943,-2.109027,0.068813,0.001200787,0,,,
120919,0.001101,0.001298,0.002116,-1.235965,-2.108,0.068091,0.001188188,0,,,
121019,0.001389,0.001282,0.002303,-1.23421,-2.107612,0.066762,0.001164997,0,,,
121119,0.00085,0.000876,0.000759,-1.234905,-2.108324,0.066344,0.001157703,0,,,
121219,0.000636,0.001285,0.001524,-1.236972,-2.109826,0.065784,0.001147931,0,,,
121319,0.000111,0.000472,0.001357,-1.23887,-2.111254,0.066423,0.001159081,0,,,
121419,7.50E-05,0.001319,0.001542,-1.238997,-2.110658,0.067371,0.001175624,0,,,
121519,0.000571,0.001985,0.000679,-1.237592,-2.10949,0.066608,0.00116231,0,,,
121619,0.002232,0.002276,0.000607,-1.23589,-2.108807,0.065091,0.001135838,0,,,
121719,0.00131,0.000688,0.002743,-1.236134,-2.110284,0.063832,0.001113868,0,,,
121819,0.000106,0.002251,0.002242,-1.238712,-2.110849,0.064921,0.001132871,0,,,
121919,0.000434,0.003123,0.00216,-1.240453,-2.110275,0.066696,0.001163845,0,,,
122019,0.001066,0.00081,0.001544,-1.239855,-2.109959,0.067875,0.001184419,0,,,
122119,0.001799,0.000418,0.001342,-1.236886,-2.108593,0.067919,0.001185187,0,,,
122219,0.001254,0.001384,0.002168,-1.235467,-2.107691,0.068016,0.001186879,0,,,
122319,0.000436,-0.000162,0.002566,-1.236622,-2.109223,0.067611,0.001179812,0,,,
122419,0.000314,0.000864,0.001929,-1.238701,-2.110673,0.067686,0.001181121,0,,,
122519,0.001043,0.001259,0.001956,-1.239817,-2.111263,0.068887,0.001202078,0,,,
122619,0.002422,0.000711,0.002707,-1.238621,-2.111128,0.070367,0.001227904,0,,,
122719,0.002835,0.002474,0.002151,-1.235919,-2.108767,0.07186,0.001253957,0,,,
122819,0.001605,0.00111,0.002352,-1.234449,-2.108274,0.07165,0.001250293,0,,,
122919,0.000841,0.000442,0.00273,-1.235294,-2.110121,0.070533,0.001230801,0,,,
123019,0.001776,0.003247,0.001738,-1.237908,-2.110525,0.071892,0.001254515,0,,,
123119,-2.20E-05,0.002109,0.002973,-1.239621,-2.110729,0.073516,0.001282854,0,,,
123219,0.002466,0.000969,0.001033,-1.238308,-2.111724,0.071931,0.001255196,0,,,
123319,0.001843,0.002594,0.001057,-1.236432,-2.109349,0.072838,0.001271023,0,,,
123419,-0.001542,0.002691,0.001698,-1.236641,-2.107613,0.072788,0.001270151,0,,,
123519,-0.002505,0.003419,0.001485,-1.23879,-2.106812,0.071914,0.001254899,0,,,
123619,-0.000453,0.001107,0.001892,-1.241819,-2.10938,0.07032,0.001227084,0,,,
123719,0.001634,0.001258,0.001275,-1.242178,-2.1105,0.069686,0.001216021,0,,,
123819,0.000261,-0.000536,0.003105,-1.24219,-2.111635,0.070608,0.00123211,0,,,
123919,0.001084,0.000652,0.002451,-1.240754,-2.110694,0.071929,0.001255161,0,,,
124019,0.001775,0.001902,0.001884,-1.239059,-2.109629,0.071694,0.00125106,0,,,
124119,0.002495,0.002794,0.001052,-1.23935,-2.110024,0.070426,0.001228934,0,,,
124219,0.002614,0.003584,0.001303,-1.240004,-2.109652,0.070796,0.00123539,0,,,
124319,0.001032,0.002238,0.002513,-1.240657,-2.109858,0.071052,0.001239857,0,,,
124419,7.30E-05,0.000475,0.001794,-1.240264,-2.109971,0.070762,0.001234797,0,,,
124519,0.001482,0.001195,0.001828,-1.238151,-2.108167,0.072401,0.001263397,0,,,
124619,0.001064,0.000108,0.000515,-1.237345,-2.10809,0.071996,0.00125633,0,,,
124719,0.003157,0.000149,0.001147,-1.236786,-2.109733,0.070867,0.001236629,0,,,
124819,0.001723,0.001703,0.002591,-1.238097,-2.110754,0.071309,0.001244342,0,,,
124919,0.002057,0.003173,0.001652,-1.238933,-2.11026,0.072528,0.001265614,0,,,
125019,0.002015,0.00212,0.003483,-1.238259,-2.108811,0.075629,0.001319726,0,,,
125119,0.002007,0.001681,0.002166,-1.236094,-2.107536,0.076183,0.001329393,0,,,
125219,-0.000616,-0.000129,0.001246,-1.236068,-2.107366,0.076232,0.001330248,0,,,
125319,0.002345,0.000116,0.00224,-1.236791,-2.109184,0.076368,0.001332622,0,,,
125419,0.001332,0.001554,0.001016,-1.238247,-2.110195,0.076336,0.001332063,0,,,
125519,0.000753,0.003488,0.001344,-1.239726,-2.109417,0.077091,0.001345238,0,,,
125619,-0.0007,0.000995,0.002194,-1.239442,-2.108884,0.077477,0.001351974,0,,,
125719,-0.00026,0.000596,0.001774,-1.238815,-2.108474,0.077502,0.00135241,0,,,
125819,0.003019,7.30E-05,0.002281,-1.236634,-2.108273,0.078688,0.001373106,0,,,
125919,0.000775,0.00329,0.000616,-1.237456,-2.108119,0.076895,0.001341818,0,,,
126019,0.001238,0.001221,0.001957,-1.238545,-2.109268,0.076675,0.001337979,0,,,
126119,0.00136,0.002292,0.003142,-1.239312,-2.109653,0.077451,0.00135152,0,,,
126219,0.002088,0.001349,0.00135,-1.2384,-2.109969,0.076879,0.001341539,0,,,
126319,0.001303,0.004529,0.000788,-1.237538,-2.107593,0.07672,0.001338764,0,,,
126419,0.000994,0.003165,0.000995,-1.236908,-2.106329,0.075724,0.001321384,0,,,
126519,-0.000412,0.001856,0.002188,-1.238398,-2.107173,0.074712,0.001303724,0,,,
126619,0.000469,0.001481,0.002693,-1.240455,-2.10829,0.075494,0.00131737,0,,,
126719,0.003297,0.001095,0.003676,-1.240624,-2.108531,0.078118,0.001363159,0,,,
126819,0.00261,0.00069,0.003679,-1.23899,-2.108429,0.079098,0.00138026,0,,,
126919,0.002617,-0.00155,0.00213,-1.23656,-2.108831,0.079827,0.001392981,0,,,
127019,0.003234,3.00E-06,0.002051,-1.23442,-2.109138,0.079955,0.001395215,0,,,
127119,-0.000707,0.001652,0.00166,-1.235608,-2.109321,0.079717,0.001391062,0,,,
127219,4.10E-05,0.003939,0.002197,-1.237577,-2.108909,0.079787,0.001392283,0,,,
127319,-0.001141,0.002116,0.00298,-1.239073,-2.109121,0.080343,0.001401985,0,,,
127419,0.003108,0.00078,0.002698,-1.236771,-2.10843,0.081854,0.001428352,0,,,
127519,0.003002,0.001061,0.0023,-1.234523,-2.107798,0.082756,0.001444092,0,,,
127619,0.001878,0.00038,0.001658,-1.233129,-2.107797,0.082165,0.001433779,0,,,
127719,8.70E-05,0.003404,0.003764,-1.23487,-2.107341,0.083685,0.001460303,0,,,
127819,0.001345,0.002156,0.000649,-1.23697,-2.109071,0.082396,0.00143781,0,,,
127919,0.002112,0.004175,0.001372,-1.237755,-2.108834,0.082129,0.001433151,0,,,
128019,0.001439,0.000896,0.001609,-1.236972,-2.108768,0.082097,0.001432593,0,,,
128119,0.001305,-0.000942,0.002342,-1.23515,-2.108107,0.083895,0.001463968,0,,,
128219,0.00255,0.000179,0.000824,-1.233111,-2.108318,0.082725,0.001443551,0,,,
128319,0.002644,0.000894,0.002565,-1.233285,-2.109605,0.082575,0.001440934,0,,,
128419,0.002391,-0.00147,0.001687,-1.234177,-2.1127,0.082195,0.001434303,0,,,
128519,0.00076,0.001696,0.002571,-1.235287,-2.112984,0.08307,0.001449572,0,,,
128619,0.002381,0.000924,0.002035,-1.234229,-2.112499,0.084059,0.00146683,0,,,
128719,-0.000315,0.001819,0.00283,-1.233523,-2.111306,0.08478,0.001479411,0,,,
128819,0.002643,0.00076,0.002575,-1.232542,-2.111548,0.08513,0.001485519,0,,,
128919,0.000803,-0.001188,0.001531,-1.233503,-2.114508,0.083304,0.001453655,0,,,
129019,0.001959,0.001847,0.002071,-1.234644,-2.115874,0.082453,0.001438805,0,,,
129119,0.003173,0.000103,0.002787,-1.234905,-2.116986,0.083997,0.001465748,0,,,
129219,0.00249,0.000896,0.003115,-1.232999,-2.116239,0.085852,0.001498117,0,,,
129319,0.001729,0.000803,0.001639,-1.231217,-2.115448,0.086478,0.001509041,0,,,
129419,0.002393,0.002267,0.001048,-1.229417,-2.114366,0.085676,0.001495046,0,,,
129519,0.002285,0.002823,0.001174,-1.229743,-2.113827,0.086045,0.001501485,0,,,
129619,0.002381,0.001405,0.00165,-1.230558,-2.114738,0.085917,0.001499252,0,,,
129719,-0.000859,0.003097,0.002069,-1.232552,-2.11472,0.085608,0.00149386,0,,,
129819,0.001559,0.00112,0.001622,-1.231569,-2.114515,0.086006,0.001500805,0,,,
129919,0.002075,0.003031,0.002781,-1.230176,-2.112698,0.087201,0.001521657,0,,,
130019,4.30E-05,0.001666,0.002143,-1.230597,-2.111724,0.088331,0.001541376,0,,,
130119,0.001018,0.002002,0.001555,-1.2312,-2.111424,0.089109,0.001554952,0,,,
130219,0.001713,0.000855,0.001095,-1.23295,-2.112799,0.089422,0.001560414,0,,,
130319,0.000413,0.000514,0.001078,-1.234463,-2.114188,0.089338,0.001558948,0,,,
130419,0.004252,-0.001687,0.00252,-1.23239,-2.11591,0.089927,0.001569226,0,,,
130519,-0.001159,0.000237,0.003131,-1.232112,-2.11523,0.091539,0.001597356,0,,,
130619,0.003977,0.000254,0.00213,-1.22973,-2.115417,0.091703,0.001600217,0,,,
130719,-0.000347,0.001618,0.002262,-1.230935,-2.115995,0.091213,0.001591667,0,,,
130819,-0.00217,0.000647,6.90E-05,-1.234671,-2.117558,0.090379,0.001577114,0,,,
130919,0.000741,0.003644,0.001498,-1.23572,-2.116024,0.091867,0.001603079,0,,,
131019,0.001774,0.000866,0.001253,-1.234213,-2.115543,0.092206,0.001608995,0,,,
131119,0.001296,0.001307,0.002379,-1.232944,-2.114596,0.093163,0.001625694,0,,,
131219,-0.000218,0.000847,0.002312,-1.232753,-2.114229,0.093692,0.001634925,0,,,
131319,0.001952,0.000245,0.002169,-1.232847,-2.115603,0.093312,0.001628294,0,,,
131419,0.002373,-0.000798,0.003198,-1.233612,-2.117822,0.094198,0.001643755,0,,,
131519,0.003344,0.002328,0.002492,-1.233262,-2.118023,0.09474,0.001653213,0,,,
131619,7.90E-05,0.002092,0.002171,-1.233791,-2.116819,0.096564,0.001685042,0,,,
131719,-0.000675,0.002407,0.001319,-1.233437,-2.115446,0.09625,0.001679563,0,,,
131819,0.002505,0.00158,0.002466,-1.232226,-2.114708,0.097166,0.001695547,0,,,
131919,0.003873,0.002186,0.002284,-1.231706,-2.115109,0.097247,0.00169696,0,,,
132019,0.002788,-0.000941,0.003879,-1.23213,-2.117492,0.098258,0.001714602,0,,,
132119,0.001826,0.000657,0.00457,-1.23216,-2.118391,0.099989,0.001744808,0,,,
132219,0.002418,0.002928,0.003526,-1.231089,-2.116689,0.102144,0.001782413,0,,,
132319,0.00085,-7.80E-05,0.002143,-1.229397,-2.116224,0.102695,0.001792028,0,,,
132419,0.001371,0.000146,0.001672,-1.228873,-2.116818,0.102721,0.001792481,0,,,
132519,0.000744,0.000677,0.002411,-1.22974,-2.117943,0.102636,0.001790998,0,,,
132619,0.000892,0.001346,0.00126,-1.230979,-2.118926,0.102088,0.001781436,0,,,
132719,0.001073,-0.000129,0.002643,-1.231242,-2.119319,0.103946,0.001813858,0,,,
132819,0.001437,0.001982,0.002201,-1.230119,-2.118035,0.104864,0.001829877,0,,,
132919,0.002306,0.001295,0.001518,-1.227867,-2.116633,0.105853,0.001847135,0,,,
133019,0.000946,-0.000798,0.000498,-1.227038,-2.117064,0.105443,0.00183998,0,,,
133119,0.002436,0.003204,0.002789,-1.227135,-2.11666,0.105991,0.001849543,0,,,
133219,0.001663,0.001551,0.002945,-1.227864,-2.117025,0.107246,0.001871443,0,,,
133319,0.000951,0.003193,0.002276,-1.228662,-2.117003,0.106896,0.001865335,0,,,
133419,0.000873,0.001081,0.003034,-1.228165,-2.116643,0.108045,0.001885385,0,,,
133519,0.001669,-0.000394,0.001731,-1.226441,-2.116419,0.10865,0.001895943,0,,,
133619,0.002241,-0.000542,0.002356,-1.224593,-2.117607,0.107486,0.001875631,0,,,
133719,0.000223,0.000766,0.00165,-1.225324,-2.118272,0.10744,0.001874828,0,,,
133819,0.001818,0.000989,0.002246,-1.226128,-2.119816,0.107012,0.001867359,0,,,
133919,0.001893,0.000294,0.002958,-1.226486,-2.120869,0.108291,0.001889678,0,,,
134019,0.001642,0.000356,0.001661,-1.225046,-2.12052,0.108851,0.00189945,0,,,
134119,0.001976,0.000785,0.003106,-1.222999,-2.119591,0.110032,0.001920058,0,,,
134219,0.00306,0.002092,0.000809,-1.221683,-2.118531,0.110288,0.001924526,0,,,
134319,0.002089,0.00119,0.005013,-1.221745,-2.119494,0.111243,0.00194119,0,,,
134419,0.004071,0.002856,0.004284,-1.221138,-2.119277,0.11275,0.001967488,0,,,
134519,0.00234,-0.001007,0.00317,-1.221056,-2.120973,0.114092,0.001990905,0,,,
134619,0.000861,8.00E-06,0.001166,-1.220869,-2.121653,0.113637,0.001982966,0,,,
134719,0.002867,0.001632,0.000952,-1.218622,-2.120771,0.112811,0.001968552,0,,,
134819,0.001705,-0.000278,0.001459,-1.218054,-2.121898,0.112197,0.001957838,0,,,
134919,0.000946,0.001673,0.003243,-1.219084,-2.121988,0.11386,0.001986857,0,,,
135019,0.002114,0.000886,0.004694,-1.220451,-2.123781,0.114985,0.002006488,0,,,
135119,0.003542,0.003411,0.003419,-1.219431,-2.122639,0.116361,0.002030499,0,,,
135219,0.00164,0.001734,0.005124,-1.218498,-2.121619,0.118962,0.002075887,0,,,
135319,0.001132,0.000205,0.006771,-1.217833,-2.121179,0.122689,0.002140923,0,,,
135419,0.000994,0.001447,0.007086,-1.217333,-2.120224,0.126409,0.002205837,0,,,
135519,0.00343,0.00065,0.004104,-1.216408,-2.121222,0.127095,0.002217808,0,,,
135619,0.001931,0.001586,0.006854,-1.217404,-2.121926,0.130173,0.002271519,0,,,
135719,0.000115,0.001425,0.0084,-1.218827,-2.121918,0.134593,0.002348648,0,,,
135819,-0.000813,0.000754,0.006971,-1.21976,-2.121782,0.138312,0.002413544,0,,,
135919,0.003074,0.00081,0.006643,-1.217536,-2.12154,0.140822,0.002457344,0,,,
136019,0.003078,0.000866,0.0049,-1.216435,-2.12202,0.142152,0.002480552,0,,,
136119,0.001853,0.000226,0.004039,-1.216828,-2.124297,0.14159,0.002470746,0,,,
136219,0.00093,-0.000316,0.004616,-1.217935,-2.126075,0.142989,0.002495158,0,,,
136319,0.002437,-0.000774,0.004393,-1.217598,-2.12726,0.145244,0.002534508,0,,,
136419,0.00302,0.00086,0.006444,-1.216066,-2.126959,0.148359,0.002588865,0,,,
136519,0.001445,0.00032,0.016859,-1.215274,-2.126289,0.158032,0.002757658,0,,,
136619,0.003727,0.002103,0.02687,-1.21405,-2.125632,0.171931,0.003000196,0,,,
136719,0.003265,0.000538,0.046772,-1.214535,-2.12657,0.197103,0.003439447,0,,,
136819,0.001639,-0.000315,0.074344,-1.216847,-2.127391,0.238881,0.004168473,0,,,
136919,0.0022,2.10E-05,0.082345,-1.218213,-2.127385,0.285157,0.00497599,0,,,
137019,0.003473,0.000517,0.109599,-1.219255,-2.126396,0.347421,0.006062496,0,,,
137119,0.003376,-0.003093,0.128528,-1.219423,-2.126713,0.420196,0.00733242,0,,,
137219,0.003442,-0.002018,0.133371,-1.220911,-2.127182,0.495149,0.00864035,0,,,
137319,0.006154,-0.001558,0.131795,-1.222481,-2.129058,0.567889,0.009909663,0,,,
137419,0.004547,-0.002433,0.138943,-1.224585,-2.130447,0.645998,0.011272665,0,,,
137519,0.006053,-0.002412,0.144022,-1.225163,-2.131113,0.727327,0.012691856,0,,,
137619,0.00399,-0.00181,0.156853,-1.226123,-2.130624,0.816149,0.0142418,0,,,
137719,0.009877,0.001104,0.095365,-1.221677,-2.129683,0.86834,0.015152533,0,,,
137819,0.002611,0.004165,0.041459,-1.220985,-2.127995,0.889505,0.015521862,0,,,
137919,0.002795,0.001952,0.014782,-1.221134,-2.128615,0.895115,0.015619757,0,,,
138019,0.001038,0.002985,0.00547,-1.221668,-2.128642,0.895672,0.015629476,0,,,
138119,0.002065,0.004855,0.002128,-1.221362,-2.127454,0.894388,0.015607071,0,,,
138219,-0.000509,0.003192,0.001781,-1.22213,-2.127195,0.892967,0.015582274,0,,,
138319,-0.001824,0.001938,0.00294,-1.222773,-2.126552,0.892956,0.015582082,0,,,
138419,0.000888,0.002958,0.003563,-1.222365,-2.125861,0.892594,0.015575765,0,,,
138519,0.001067,0.002892,0.007114,-1.222494,-2.125538,0.893952,0.015599462,0,,,
138619,0.004755,0.002908,0.007491,-1.221467,-2.125338,0.895449,0.015625585,0,,,
138719,-0.000989,0.000529,0.002973,-1.222937,-2.126682,0.894503,0.015609077,0,,,
138819,-0.000509,0.002388,0.001764,-1.223148,-2.125836,0.894311,0.015605727,0,,,
138919,-0.000235,0.00307,-1.70E-05,-1.222596,-2.124514,0.893341,0.0155888,0,,,
139019,-0.001771,0.004368,7.80E-05,-1.223821,-2.123318,0.890895,0.015546118,0,,,
139119,-0.004591,0.006821,-0.000607,-1.22781,-2.121267,0.88687,0.015475882,0,,,
139219,-0.003857,0.001878,0.000329,-1.231837,-2.12237,0.883295,0.015413498,0,,,
139319,-0.001147,0.001806,-0.001239,-1.233888,-2.123256,0.879206,0.015342145,0,,,
139419,-0.001322,0.003918,-0.001696,-1.234426,-2.121726,0.876333,0.015292011,0,,,
139519,-0.003072,0.005023,-0.003076,-1.235647,-2.119734,0.872927,0.015232576,0,,,
139619,-0.002523,0.004915,-0.011,-1.23764,-2.118171,0.863978,0.015076416,0,,,
139719,-0.00197,0.005857,-0.03154,-1.239445,-2.116798,0.843161,0.014713159,0,,,
139819,-0.003599,0.010036,-0.053735,-1.241728,-2.113581,0.808165,0.014102479,0,,,
139919,-0.010302,0.014532,-0.089477,-1.246719,-2.10767,0.754528,0.013166514,0,,,
140019,-0.014253,0.016481,-0.155445,-1.251411,-2.100836,0.663818,0.011583624,0,,,
140119,-0.013904,0.014346,-0.179892,-1.255921,-2.095819,0.558888,0.009752596,0,,,
140219,-0.001607,0.017055,-0.228472,-1.251805,-2.089517,0.427403,0.007458182,0,,,
140319,-0.002671,0.016783,-0.23502,-1.249892,-2.083954,0.28941,0.005050205,0,,,
140419,-0.008189,0.012771,-0.195662,-1.251824,-2.08047,0.174839,0.003050941,0,,,
140519,0.008157,0.009598,-0.138707,-1.245249,-2.077747,0.093472,0.001631086,0,,,
140619,0.001929,0.010512,-0.051805,-1.242558,-2.072467,0.064425,0.001124216,0,,,
140719,-0.002128,0.005204,-0.004883,-1.243281,-2.069322,0.062267,0.001086559,0,,,
140819,0.004941,0.00247,0.003205,-1.240858,-2.06855,0.062574,0.001091916,0,,,
140919,0.012373,-0.00226,0.002852,-1.235029,-2.071167,0.061903,0.001080207,0,,,
141019,0.005345,-0.004429,0.002301,-1.233499,-2.07503,0.060658,0.001058482,0,,,
141119,-0.001846,-0.006516,0.000603,-1.235922,-2.080009,0.05905,0.001030423,0,,,
141219,0.000206,-0.007353,0.001557,-1.235656,-2.08468,0.060014,0.001047244,0,,,
141319,0.00785,-0.006582,0.002898,-1.230666,-2.088716,0.062238,0.001086053,0,,,
141419,0.003839,-0.004158,0.001998,-1.228669,-2.091618,0.062229,0.001085896,0,,,
141519,-0.003224,-0.003373,0.001775,-1.232017,-2.094818,0.060501,0.001055742,0,,,
141619,-0.001352,0.00014,0.001013,-1.234341,-2.096011,0.058576,0.001022151,0,,,
141719,0.004479,0.000518,0.002194,-1.23272,-2.096572,0.059475,0.001037839,0,,,
141819,0.003624,0.000845,0.000737,-1.230849,-2.096222,0.059819,0.001043842,0,,,
141919,-0.001968,0.003988,0.001427,-1.231761,-2.093892,0.06044,0.001054678,0,,,
142019,-0.000868,-0.000465,0.003116,-1.232824,-2.094824,0.061026,0.001064904,0,,,
142119,0.007225,0.000891,0.003453,-1.230372,-2.095568,0.060568,0.001056912,0,,,
142219,0.008608,0.001213,0.005359,-1.227175,-2.096422,0.061038,0.001065113,0,,,
142319,0.005076,0.000496,0.005816,-1.225359,-2.097347,0.062641,0.001093085,0,,,
142419,0.000617,-0.001971,0.007869,-1.224835,-2.098758,0.06722,0.001172989,0,,,
142519,0.003467,0.000934,0.007113,-1.222942,-2.098056,0.071171,0.001241934,0,,,
142619,0.005238,9.70E-05,0.005492,-1.220776,-2.098971,0.072343,0.001262385,0,,,
142719,0.001471,0.000727,0.003211,-1.221636,-2.099655,0.071185,0.001242178,0,,,
142819,-0.001029,0.000838,0.001672,-1.223489,-2.100049,0.070356,0.001227712,0,,,
142919,-0.000565,0.002061,0.001415,-1.224927,-2.100121,0.068386,0.001193336,0,,,
143019,0.004939,0.001652,0.003249,-1.222084,-2.099148,0.070823,0.001235861,0,,,
143119,0.001635,0.001979,0.001682,-1.220604,-2.098529,0.071846,0.001253713,0,,,
143219,8.70E-05,0.002383,0.002207,-1.220553,-2.097229,0.073168,0.001276782,0,,,
143319,0.001614,-0.001221,0.00348,-1.221239,-2.09933,0.072273,0.001261164,0,,,
143419,0.002598,0.001866,0.001702,-1.22131,-2.099528,0.07058,0.001231621,0,,,
143519,0.000755,0.000928,0.002757,-1.221793,-2.099463,0.071101,0.001240712,0,,,
143619,-0.000832,0.001264,0.00258,-1.222043,-2.099168,0.071945,0.00125544,0,,,
143719,0.001091,0.000646,0.000835,-1.221389,-2.098572,0.072586,0.001266626,0,,,
143819,0.000432,0.001435,0.001326,-1.220894,-2.09812,0.072869,0.001271564,0,,,
143919,0.00362,0.002704,0.002507,-1.22077,-2.097835,0.070817,0.001235757,0,,,
144019,0.000643,0.00145,0.002621,-1.222356,-2.098642,0.068544,0.001196093,0,,,
144119,-0.001964,0.002257,0.00223,-1.223941,-2.097888,0.069062,0.001205132,0,,,
144219,0.00197,-0.00066,0.001703,-1.222967,-2.098351,0.070348,0.001227573,0,,,
144319,0.005181,0.000815,0.002599,-1.220182,-2.098115,0.07207,0.001257622,0,,,
144419,0.004776,0.001517,0.002786,-1.217652,-2.097325,0.073591,0.001284163,0,,,
144519,0.000771,0.001976,0.002505,-1.218506,-2.097065,0.072867,0.001271529,0,,,
144619,0.001322,0.000924,0.002129,-1.219561,-2.097957,0.07129,0.001244011,0,,,
144719,0.001949,0.003105,0.001992,-1.218689,-2.096434,0.073018,0.001274164,0,,,
144819,0.00249,0.001873,0.001916,-1.217641,-2.095614,0.073579,0.001283954,0,,,
144919,0.002116,0.00111,0.001906,-1.216569,-2.095068,0.073926,0.001290009,0,,,
145019,0.001257,-0.000789,0.002098,-1.21608,-2.096212,0.074395,0.001298193,0,,,
145119,0.002773,-0.000461,0.005696,-1.215774,-2.097454,0.075422,0.001316114,0,,,
145219,0.002167,-0.000773,0.005448,-1.216001,-2.098875,0.075569,0.001318679,0,,,
145319,0.002894,-0.003279,0.004796,-1.215306,-2.101658,0.077199,0.001347123,0,,,
145419,0.004162,0.00194,0.004856,-1.212821,-2.100454,0.080512,0.001404934,0,,,
145519,0.003774,-0.000484,0.006797,-1.210515,-2.100617,0.085147,0.001485815,0,,,
145619,0.001563,0.000909,0.009075,-1.210356,-2.100572,0.088783,0.001549263,0,,,
145719,0.000892,0.000226,0.007931,-1.211716,-2.102005,0.089467,0.001561199,0,,,
145819,0.001208,0.002245,0.005262,-1.212662,-2.101365,0.090744,0.001583483,0,,,
145919,0.003964,0.003191,0.001675,-1.211284,-2.100424,0.090354,0.001576677,0,,,
146019,0.00055,0.000505,0.002792,-1.211426,-2.100553,0.091815,0.001602172,0,,,
146119,0.000744,0.001563,0.002173,-1.211739,-2.099937,0.091621,0.001598786,0,,,
146219,0.000943,0.003423,0.001319,-1.211682,-2.098624,0.090786,0.001584216,0,,,
146319,0.002305,0.002411,0.002762,-1.212004,-2.098577,0.089165,0.001555929,0,,,
146419,-0.000464,-0.001881,0.001964,-1.213752,-2.101189,0.086432,0.001508238,0,,,
146519,0.002796,0.002022,0.00249,-1.212161,-2.100296,0.088667,0.001547239,0,,,
146619,0.001997,0.000809,0.003705,-1.211319,-2.100386,0.091152,0.001590602,0,,,
146719,0.002603,0.001133,0.003011,-1.210066,-2.099774,0.092335,0.001611246,0,,,
146819,0.001057,0.001292,0.007082,-1.210262,-2.099904,0.094041,0.001641015,0,,,
146919,0.002248,0.000519,0.008283,-1.21054,-2.100718,0.096038,0.001675863,0,,,
147019,0.00129,0.003003,0.00674,-1.211385,-2.099995,0.097835,0.001707221,0,,,
147119,0.000883,0.001801,0.002733,-1.21147,-2.099675,0.097711,0.001705057,0,,,
147219,0.000279,0.002032,0.00165,-1.211577,-2.098733,0.098546,0.001719628,0,,,
147319,-0.000605,0.001119,0.000705,-1.211663,-2.098453,0.09966,0.001739067,0,,,
147419,0.001964,0.001398,0.001416,-1.211181,-2.098459,0.099058,0.001728562,0,,,
147519,0.000753,0.000775,0.002276,-1.212345,-2.099275,0.097604,0.00170319,0,,,
147619,0.001862,0.00137,0.001784,-1.212974,-2.099745,0.094912,0.001656214,0,,,
147719,0.000885,0.00135,0.002231,-1.213639,-2.099847,0.093736,0.001635693,0,,,
147819,0.002147,0.00088,0.00244,-1.212817,-2.099904,0.09394,0.001639253,0,,,
147919,0.003474,0.001343,0.002876,-1.211404,-2.099346,0.094349,0.00164639,0,,,
148019,0.001851,0.001843,0.003596,-1.211129,-2.099281,0.094532,0.001649583,0,,,
148119,0.00094,0.001804,0.002783,-1.212317,-2.099624,0.09187,0.001603132,0,,,
148219,0.001003,0.001955,0.001991,-1.213177,-2.099669,0.08963,0.001564044,0,,,
148319,0.000534,0.000769,0.002466,-1.213767,-2.100239,0.089738,0.001565928,0,,,
148419,0.002702,0.001829,0.001896,-1.21259,-2.099487,0.090328,0.001576224,0,,,
148519,-0.000757,0.000226,0.003546,-1.21239,-2.099611,0.094553,0.00164995,0,,,
148619,0.001158,0.001575,0.001709,-1.212724,-2.099365,0.09296,0.001622152,0,,,
148719,0.000747,0.003983,0.003152,-1.214168,-2.098883,0.091028,0.001588439,0,,,
148819,0.001199,0.003519,0.001089,-1.214876,-2.098113,0.088802,0.001549595,0,,,
148919,0.001515,0.001475,0.001991,-1.215583,-2.098225,0.086848,0.001515498,0,,,
149019,0.001917,0.002918,0.001681,-1.21456,-2.096586,0.089007,0.001553172,0,,,
149119,0.001443,0.00308,0.001746,-1.213513,-2.094835,0.090689,0.001582523,0,,,
149219,0.002173,0.001463,0.00195,-1.212914,-2.094519,0.090654,0.001581912,0,,,
149319,0.002324,0.001528,0.001031,-1.213523,-2.095177,0.08634,0.001506633,0,,,
149419,0.002137,0.000537,0.001048,-1.213624,-2.096107,0.083937,0.001464701,0,,,
149519,0.001688,0.001773,0.002815,-1.213318,-2.09595,0.084674,0.001477561,0,,,
149619,0.002229,0.000498,0.001581,-1.211902,-2.096038,0.086735,0.001513526,0,,,
149719,0.000731,0.001646,0.002077,-1.212219,-2.095824,0.086707,0.001513037,0,,,
149819,0.002642,-0.000946,0.003074,-1.211172,-2.096778,0.086383,0.001507383,0,,,
149919,0.000134,0.001782,0.002133,-1.212346,-2.097118,0.085336,0.001489113,0,,,
150019,0.002901,-0.001354,0.001473,-1.211655,-2.098839,0.084761,0.001479079,0,,,
150119,0.002792,-1.30E-05,0.002678,-1.211003,-2.099551,0.083648,0.001459658,0,,,
150219,0.000823,0.002032,0.002635,-1.209875,-2.098369,0.086085,0.001502183,0,,,
150319,0.000282,0.003271,0.002895,-1.209806,-2.096986,0.087854,0.001533052,0,,,
150419,0.002439,0.00266,0.003533,-1.209213,-2.096093,0.087608,0.00152876,0,,,
150519,0.001569,0.000686,0.00335,-1.209637,-2.097094,0.085861,0.001498274,0,,,
150619,0.001778,0.000846,0.002067,-1.210646,-2.098173,0.082214,0.001434634,0,,,
150719,0.001508,0.000109,0.002317,-1.211095,-2.099053,0.081679,0.001425299,0,,,
150819,-0.000142,0.000667,0.003393,-1.211443,-2.099361,0.083499,0.001457058,0,,,
150919,0.001447,-0.000395,0.001843,-1.210826,-2.099826,0.084946,0.001482308,0,,,
151019,0.0015,0.000403,0.001653,-1.210606,-2.100045,0.08493,0.001482029,0,,,
151119,0.000399,0.003112,0.002519,-1.211702,-2.099332,0.084102,0.00146758,0,,,
151219,0.002106,0.001786,0.002501,-1.212011,-2.099437,0.081985,0.001430638,0,,,
151319,0.003445,-0.001378,0.00147,-1.210891,-2.1009,0.08256,0.001440672,0,,,
151419,0.001366,0.001279,0.003331,-1.210615,-2.100525,0.083911,0.001464247,0,,,
151519,0.003604,9.60E-05,0.003063,-1.208826,-2.101091,0.085277,0.001488084,0,,,
151619,0.001232,0.000355,0.002606,-1.208939,-2.1015,0.083124,0.001450514,0,,,
151719,0.002094,0.001456,0.00299,-1.209389,-2.1016,0.082093,0.001432523,0,,,
151819,0.001003,0.001922,0.002402,-1.210395,-2.101696,0.080203,0.001399542,0,,,
151919,0.002251,0.00095,0.002092,-1.209948,-2.101789,0.079099,0.001380278,0,,,
152019,0.001825,0.001991,0.001545,-1.209216,-2.100689,0.07927,0.001383262,0,,,
152119,0.001617,0.001852,0.000631,-1.208741,-2.099625,0.078911,0.001376997,0,,,
152219,0.001924,0.003348,0.001443,-1.207965,-2.09836,0.079452,0.001386437,0,,,
152319,0.000246,0.001259,0.002398,-1.209677,-2.098834,0.076016,0.001326479,0,,,
152419,0.000513,0.001529,0.003496,-1.210596,-2.09899,0.074884,0.001306726,0,,,
152519,0.002713,0.001493,0.003043,-1.209386,-2.098573,0.076587,0.001336443,0,,,
152619,0.003374,0.001558,0.003505,-1.207706,-2.097926,0.079565,0.001388409,0,,,
152719,0.002356,0.000372,0.001373,-1.20661,-2.097966,0.079799,0.001392493,0,,,
152819,0.002416,0.001109,0.003115,-1.205919,-2.097911,0.080624,0.001406889,0,,,
152919,0.000565,0.002461,0.000261,-1.206923,-2.097909,0.077333,0.001349461,0,,,
153019,0.004218,0.001865,0.001429,-1.205606,-2.097766,0.075282,0.001313671,0,,,
153119,0.001078,0.001682,0.001293,-1.205625,-2.097773,0.073551,0.001283465,0,,,
153219,0.001023,0.001653,4.00E-05,-1.204893,-2.097411,0.073692,0.001285925,0,,,
153319,0.000843,0.000322,0.002836,-1.204714,-2.097264,0.074397,0.001298228,0,,,
153419,0.000812,0.002251,0.002921,-1.204658,-2.096799,0.075136,0.001311123,0,,,
153519,-0.000555,0.001621,-1.00E-06,-1.206612,-2.097019,0.071083,0.001240398,0,,,
153619,0.000209,0.001146,0.001908,-1.207929,-2.097279,0.068299,0.001191818,0,,,
153719,0.001733,0.000978,0.000305,-1.207583,-2.097455,0.067581,0.001179288,0,,,
153819,0.003084,0.001038,0.001215,-1.205722,-2.096804,0.069847,0.00121883,0,,,
153919,0.002966,0.001582,0.002097,-1.204227,-2.096282,0.071388,0.001245721,0,,,
154019,0.000488,0.001932,0.002331,-1.204521,-2.095873,0.070989,0.001238758,0,,,
154119,0.000768,0.001054,0.001885,-1.205025,-2.09671,0.071152,0.001241602,0,,,
154219,0.002227,0.001852,0.001548,-1.20527,-2.096896,0.068242,0.001190823,0,,,
154319,0.001191,0.000969,0.000567,-1.205442,-2.096905,0.068769,0.001200019,0,,,
154419,0.00115,0.001958,0.002323,-1.205575,-2.096229,0.068156,0.001189322,0,,,
154519,0.000245,0.002273,0.001124,-1.205133,-2.095252,0.071026,0.001239404,0,,,
154619,0.001452,-0.000662,0.001172,-1.205483,-2.096354,0.068652,0.001197977,0,,,
154719,0.001414,-0.002464,0.002955,-1.205835,-2.098773,0.06706,0.001170197,0,,,
154819,0.001952,0.002093,0.002468,-1.205741,-2.098544,0.067225,0.001173076,0,,,
154919,0.001064,0.000254,0.001725,-1.205806,-2.098855,0.06769,0.001181191,0,,,
155019,0.000475,0.001205,0.001106,-1.205573,-2.098607,0.069161,0.001206859,0,,,
155119,0.000378,-6.00E-05,0.001564,-1.205678,-2.098936,0.06875,0.001199688,0,,,
155219,-0.000471,0.000394,0.002503,-1.206972,-2.099692,0.066125,0.001153881,0,,,
155319,-0.000358,0.002158,0.000283,-1.2081,-2.099746,0.064811,0.001130952,0,,,
155419,0.000921,0.00166,0.000478,-1.209012,-2.099724,0.062903,0.001097657,0,,,
155519,0.000889,0.000981,0.002273,-1.208834,-2.099828,0.063599,0.001109803,0,,,
155619,-0.00026,0.002333,0.000346,-1.209235,-2.098878,0.064287,0.001121808,0,,,
155719,0.003018,0.001117,0.00177,-1.208061,-2.098664,0.063963,0.001116154,0,,,
155819,0.001121,0.000201,0.002681,-1.208534,-2.099429,0.063632,0.001110378,0,,,
155919,0.001411,0.003035,0.0032,-1.208787,-2.098684,0.06348,0.001107726,0,,,
156019,0.001383,-0.000825,0.001809,-1.209352,-2.100162,0.061118,0.001066509,0,,,
156119,0.003074,-0.000378,0.002085,-1.208551,-2.101503,0.060794,0.001060855,0,,,
156219,0.002402,0.002393,0.002629,-1.207169,-2.100291,0.063416,0.001106609,0,,,
156319,0.001111,0.001373,0.001807,-1.206858,-2.099983,0.063974,0.001116346,0,,,
156419,0.000943,0.000998,0.00162,-1.207529,-2.100152,0.061076,0.001065776,0,,,
156519,-0.000601,-7.00E-06,0.003169,-1.209029,-2.10113,0.060048,0.001047838,0,,,
156619,0.002832,0.001103,0.001084,-1.20846,-2.101081,0.059394,0.001036425,0,,,
156719,0.002302,0.000312,0.001906,-1.207598,-2.101521,0.060941,0.00106342,0,,,
156819,0.002379,-0.000506,0.001513,-1.206939,-2.1023,0.060547,0.001056545,0,,,
156919,0.001829,0.002989,0.000325,-1.206356,-2.101079,0.059488,0.001038066,0,,,
157019,-0.000162,0.001467,0.000398,-1.207708,-2.101181,0.056322,0.000982819,0,,,
157119,0.000887,0.000444,8.30E-05,-1.208451,-2.101677,0.052571,0.000917364,0,,,
157219,0.001772,0.001467,0.002077,-1.209041,-2.102136,0.050031,0.000873041,0,,,
157319,0.001217,0.000313,0.001552,-1.209026,-2.102199,0.050061,0.000873564,0,,,
157419,0.001769,0.002359,0.00253,-1.207697,-2.100817,0.053916,0.000940834,0,,,
157519,0.000701,0.001865,0.001313,-1.207866,-2.100224,0.053038,0.000925513,0,,,
157619,0.001116,0.002195,0.002301,-1.208186,-2.099389,0.05212,0.000909494,0,,,
157719,0.003101,0.003726,0.001898,-1.207756,-2.098004,0.050003,0.000872552,0,,,
157819,0.001941,0.00215,0.002845,-1.208238,-2.097706,0.048194,0.000840985,0,,,
157919,0.001598,0.002142,0.00217,-1.207982,-2.097336,0.048716,0.000850094,0,,,
158019,7.80E-05,0.000416,0.001121,-1.208166,-2.097094,0.048995,0.000854963,0,,,
158119,0.002412,0.001275,0.001786,-1.207497,-2.0968,0.048932,0.000853863,0,,,
158219,0.002897,-0.000837,0.002416,-1.206636,-2.09765,0.049106,0.0008569,0,,,
158319,0.00055,0.001975,0.001999,-1.207457,-2.097254,0.047075,0.000821459,0,,,
158419,0.001397,0.002773,0.003264,-1.207567,-2.096395,0.047513,0.000829102,0,,,
158519,0.001354,0.002901,0.001426,-1.207318,-2.095316,0.049259,0.00085957,0,,,
158619,0.000627,0.001401,0.00168,-1.207064,-2.094941,0.05113,0.000892219,0,,,
158719,-0.000601,0.002666,0.001172,-1.207926,-2.093505,0.051795,0.000903823,0,,,
158819,0.001584,-0.001373,0.001139,-1.207582,-2.094731,0.05159,0.000900246,0,,,
158919,0.001496,0.00154,0.002982,-1.207827,-2.094625,0.049792,0.00086887,0,,,
159019,0.000552,0.000256,0.001671,-1.207817,-2.094804,0.052084,0.000908866,0,,,
159119,0.001859,0.000506,0.001397,-1.207576,-2.094877,0.050011,0.000872692,0,,,
159219,0.003415,0.001878,0.002096,-1.206139,-2.094101,0.050054,0.000873442,0,,,
159319,0.001405,0.002421,0.002249,-1.20518,-2.09281,0.052128,0.000909634,0,,,
159419,0.002686,0.002357,0.001801,-1.20424,-2.091832,0.0519,0.000905655,0,,,
159519,0.000494,0.001648,0.000502,-1.205849,-2.092029,0.046599,0.000813153,0,,,
159619,0.001646,0.002919,0.001805,-1.205851,-2.091266,0.044847,0.00078258,0,,,
159719,0.00108,0.002218,0.001937,-1.206321,-2.090528,0.044878,0.000783121,0,,,
159819,0.002467,0.000947,0.001189,-1.20552,-2.090661,0.044201,0.000771307,0,,,
159919,0.002013,-0.00044,0.001536,-1.204687,-2.091389,0.044345,0.00077382,0,,,
160019,0.00107,0.000354,0.000406,-1.204893,-2.091874,0.042616,0.000743649,0,,,
160119,-0.001027,0.000834,0.001695,-1.206812,-2.092606,0.039885,0.000695993,0,,,
160219,-0.000151,0.003112,0.002131,-1.208617,-2.091969,0.035557,0.00062047,0,,,
160319,0.000756,0.00168,0.00076,-1.209378,-2.09218,0.034058,0.000594312,0,,,
160419,-5.80E-05,0.00139,0.002692,-1.209928,-2.091627,0.035316,0.000616264,0,,,
160519,0.000676,0.001599,0.002222,-1.20995,-2.091109,0.035099,0.000612478,0,,,
160619,0.003195,0.001419,0.001347,-1.209117,-2.091082,0.033107,0.000577717,0,,,
160719,0.002429,0.00082,0.002378,-1.2091,-2.09177,0.032313,0.000563862,0,,,
160819,0.00201,0.000668,0.002947,-1.20904,-2.092464,0.032563,0.000568224,0,,,
160919,9.30E-05,0.000638,0.002256,-1.209941,-2.092541,0.032727,0.000571086,0,,,
161019,0.001234,-0.001635,0.002055,-1.210118,-2.093911,0.032612,0.000569079,0,,,
161119,0.000508,0.000927,0.001415,-1.210203,-2.093597,0.035121,0.000612861,0,,,
161219,0.000214,0.002828,0.002607,-1.210874,-2.092614,0.034417,0.000600577,0,,,
161319,0.002318,0.001048,0.001124,-1.21052,-2.092623,0.032506,0.00056723,0,,,
161419,0.001705,0.002812,0.001496,-1.210683,-2.091798,0.030356,0.000529712,0,,,
161519,0.001068,0.003016,0.002776,-1.210946,-2.091011,0.030419,0.000530812,0,,,
161619,0.0015,0.001744,0.00265,-1.211139,-2.090757,0.027865,0.000486244,0,,,
161719,0.003054,0.001358,0.0012,-1.210012,-2.090331,0.025972,0.000453211,0,,,
161819,0.001013,0.00265,0.001835,-1.211049,-2.089589,0.021259,0.00037097,0,,,
161919,0.000746,0.001411,0.001748,-1.212404,-2.089953,0.019397,0.000338478,0,,,
162019,0.002871,0.001253,0.000824,-1.211783,-2.090172,0.016007,0.000279322,0,,,
162119,0.001959,0.004491,0.001551,-1.211363,-2.088073,0.014459,0.00025231,0,,,
162219,2.70E-05,0.001291,0.001724,-1.211435,-2.087753,0.016438,0.000286843,0,,,
162319,0.001991,0.002546,0.001829,-1.210754,-2.086426,0.016206,0.000282795,0,,,
162419,0.002932,0.001401,0.001962,-1.210143,-2.086664,0.013502,0.00023561,0,,,
162519,0.00452,0.001524,0.002896,-1.209051,-2.086802,0.008175,0.000142654,0,,,
162619,0.002007,6.40E-05,0.001948,-1.209451,-2.087538,0.004236,7.39182E-05,0,,,
162719,0.001124,0.000508,0.002003,-1.209974,-2.0879,0.001905,3.32423E-05,0,,,
162819,0.002008,0.000482,0.001231,-1.208995,-2.088166,0.003329,5.80911E-05,0,,,
162919,0.000977,0.00153,0.002477,-1.209105,-2.087804,0.00238,0.000041531,0,,,
163019,0.000664,0.002484,0.000166,-1.209263,-2.087049,0.001469,2.56341E-05,0,,,
163119,0.002295,0.00063,0.001275,-1.208763,-2.08756,-0.00012,-0.000002094,0,,,
163219,0.001711,0.000678,0.003397,-1.208255,-2.087546,0.003065,5.34843E-05,0,,,
163319,0.001062,0.001508,0.002614,-1.208531,-2.087199,0.005133,8.95709E-05,0,,,
163419,0.002182,0.002211,0.001954,-1.208083,-2.086768,0.002166,3.77967E-05,0,,,
163519,0.002798,0.002222,0.002853,-1.207372,-2.086265,-0.000522,-9.1089E-06,0,,,
163619,0.002088,-0.000175,0.003267,-1.206988,-2.087078,-0.002149,-3.75001E-05,0,,,
163719,0.00278,0.000344,0.000869,-1.206772,-2.088022,-0.007012,-0.000122359,0,,,
163819,0.002571,0.002479,0.001438,-1.206288,-2.08722,-0.007601,-0.000132637,0,,,
163919,-0.000483,0.002328,0.002771,-1.20744,-2.086483,-0.007171,-0.000125134,0,,,
164019,0.001193,0.002911,0.002063,-1.207634,-2.08541,-0.007985,-0.000139338,0,,,
164119,0.001886,0.001357,0.000965,-1.207557,-2.085126,-0.010592,-0.00018483,0,,,
164219,0.001249,0.002007,0.003652,-1.20748,-2.084479,-0.010484,-0.000182946,0,,,
164319,0.000296,0.000678,0.004094,-1.208749,-2.085076,-0.013793,-0.000240688,0,,,
164419,0.001995,0.000146,0.001736,-1.209119,-2.086018,-0.017945,-0.00031314,0,,,
164519,0.000823,0.000187,0.002796,-1.209212,-2.086396,-0.016149,-0.0002818,0,,,
164619,0.002312,0.001447,0.002344,-1.208425,-2.085437,-0.016578,-0.000289286,0,,,
164719,0.00235,0.000992,0.003024,-1.207547,-2.085383,-0.015723,-0.000274366,0,,,
164819,-0.000128,-0.000993,0.000863,-1.208753,-2.086508,-0.018181,-0.000317258,0,,,
164919,0.000837,0.000701,0.00137,-1.209929,-2.087182,-0.023242,-0.000405573,0,,,
165019,0.002304,0.001861,0.001361,-1.209687,-2.086944,-0.024171,-0.000421784,0,,,
165119,0.001289,0.002022,0.001837,-1.209942,-2.086455,-0.027461,-0.000479194,0,,,
165219,0.000572,0.002777,0.001601,-1.210277,-2.085273,-0.029326,-0.000511739,0,,,
165319,0.002735,0.001532,0.002979,-1.209498,-2.085061,-0.030253,-0.000527915,0,,,
165419,0.002437,0.0036,0.001813,-1.208688,-2.083534,-0.030391,-0.000530323,0,,,
165519,0.00318,0.001904,0.002207,-1.207998,-2.083191,-0.032374,-0.000564926,0,,,
165619,0.003429,0.0025,0.001723,-1.207252,-2.082555,-0.03571,-0.00062314,0,,,
165719,0.00224,0.000319,0.00213,-1.206427,-2.082842,-0.032216,-0.000562169,0,,,
165819,5.50E-05,0.001665,0.000885,-1.206236,-2.08175,-0.029658,-0.000517532,0,,,
165919,0.002461,0.000496,0.003023,-1.205296,-2.082054,-0.027417,-0.000478427,0,,,
166019,0.001001,0.001003,0.003086,-1.205574,-2.081942,-0.028198,-0.000492055,0,,,
166119,0.001732,0.000813,0.003088,-1.206265,-2.082431,-0.03166,-0.000552467,0,,,
166219,0.000944,0.000747,0.000924,-1.206637,-2.082804,-0.033956,-0.000592532,0,,,
166319,0.001221,0.003033,0.000573,-1.20659,-2.081847,-0.036972,-0.000645161,0,,,
166419,0.001729,-0.000178,0.002762,-1.206207,-2.082256,-0.03681,-0.000642335,0,,,
166519,0.000795,0.002748,0.001833,-1.206394,-2.080846,-0.03753,-0.000654899,0,,,
166619,-0.000599,0.002565,0.000455,-1.20815,-2.080185,-0.042482,-0.000741311,0,,,
166719,-0.000741,0.002966,0.00285,-1.209944,-2.079221,-0.045066,-0.000786402,0,,,
166819,0.001754,0.001,0.003765,-1.209963,-2.079542,-0.044303,-0.000773087,0,,,
166919,0.000377,-0.000976,0.001663,-1.210034,-2.08065,-0.041983,-0.000732603,0,,,
167019,0.000613,0.000594,0.002415,-1.210198,-2.080908,-0.039599,-0.000691003,0,,,
167119,0.00245,0.003164,0.002388,-1.209119,-2.079453,-0.038662,-0.000674652,0,,,
167219,0.002077,0.001948,0.002484,-1.208719,-2.079015,-0.039018,-0.000680864,0,,,
167319,0.000515,-0.001176,0.00034,-1.209806,-2.080115,-0.044868,-0.000782947,0,,,
167419,9.10E-05,0.001035,0.001475,-1.210407,-2.08018,-0.043711,-0.000762757,0,,,
167519,0.001402,-6.30E-05,0.002648,-1.20999,-2.080636,-0.041642,-0.000726653,0,,,
167619,0.001826,0.001174,0.001646,-1.209539,-2.080442,-0.041474,-0.000723721,0,,,
167719,0.003028,-0.000285,0.001601,-1.208633,-2.081074,-0.04315,-0.000752968,0,,,
167819,-0.000101,0.001216,0.003868,-1.209951,-2.081245,-0.044144,-0.000770313,0,,,
167919,0.002776,0.001188,0.001794,-1.209589,-2.081336,-0.047465,-0.000828264,0,,,
168019,0.002513,0.000824,0.000171,-1.209145,-2.081754,-0.050779,-0.000886094,0,,,
168119,0.001434,-0.000789,0.000788,-1.2093,-2.082827,-0.050633,-0.000883546,0,,,
168219,0.001393,0.002336,0.002752,-1.209107,-2.081683,-0.05065,-0.000883843,0,,,
168319,0.002514,0.000924,0.001779,-1.208381,-2.081486,-0.050316,-0.000878014,0,,,
168419,-0.000104,0.002141,0.003518,-1.209888,-2.080642,-0.054509,-0.000951182,0,,,
168519,0.001674,0.001878,0.002878,-1.210229,-2.080507,-0.055186,-0.000962996,0,,,
168619,0.002497,-0.000827,0.002232,-1.209489,-2.081444,-0.055283,-0.000964688,0,,,
168719,0.003375,0.000648,0.000857,-1.207946,-2.081433,-0.052884,-0.000922826,0,,,
168819,0.001987,-9.40E-05,0.002757,-1.207721,-2.082229,-0.054634,-0.000953363,0,,,
168919,0.001449,0.001211,0.001165,-1.207752,-2.08209,-0.05758,-0.001004771,0,,,
169019,0.001938,-0.000869,0.002053,-1.207425,-2.083148,-0.058319,-0.001017667,0,,,
169119,0.003648,0.001938,0.002932,-1.206356,-2.082753,-0.058769,-0.001025519,0,,,
169219,0.000926,0.00255,0.001731,-1.206581,-2.081932,-0.058109,-0.001014002,0,,,
169319,-0.000674,0.000442,0.002044,-1.208311,-2.082634,-0.061815,-0.001078672,0,,,
169419,0.000922,0.00284,0.002474,-1.208107,-2.081209,-0.060504,-0.001055795,0,,,
169519,0.00126,0.002235,0.001829,-1.208097,-2.080439,-0.06138,-0.001071081,0,,,
169619,0.001582,0.000815,0.002403,-1.208019,-2.080615,-0.062906,-0.00109771,0,,,
169719,0.003145,0.000261,0.00247,-1.207761,-2.08149,-0.065655,-0.00114568,0,,,
169819,0.0012,0.000265,0.000916,-1.208162,-2.081934,-0.070219,-0.001225322,0,,,
169919,0.001909,0.000452,0.001785,-1.208087,-2.082382,-0.069289,-0.001209093,0,,,
170019,0.002403,6.50E-05,-0.000176,-1.207664,-2.082928,-0.072261,-0.001260954,0,,,
170119,0.002429,-0.000307,0.002183,-1.206816,-2.083467,-0.071224,-0.001242859,0,,,
170219,0.001984,0.001747,0.002781,-1.206806,-2.083368,-0.072206,-0.001259995,0,,,
170319,0.000324,0.000849,0.001528,-1.208319,-2.083603,-0.076829,-0.001340666,0,,,
170419,0.00021,0.002895,0.002289,-1.209161,-2.082528,-0.076173,-0.001329219,0,,,
170519,0.001492,0.001516,0.002053,-1.208937,-2.082063,-0.076395,-0.001333093,0,,,
170619,0.002194,0.002464,0.0018,-1.207934,-2.081024,-0.074032,-0.001291858,0,,,
170719,5.70E-05,0.00112,0.00131,-1.208579,-2.080806,-0.074255,-0.00129575,0,,,
170819,0.000172,-0.000815,0.002139,-1.209599,-2.081844,-0.07815,-0.001363718,0,,,
170919,-0.000187,0.000632,0.002354,-1.210877,-2.082119,-0.08091,-0.00141188,0,,,
171019,0.001296,0.001539,0.002509,-1.211004,-2.081836,-0.078249,-0.001365445,0,,,
171119,0.001123,-0.000952,0.001645,-1.210868,-2.082819,-0.075726,-0.001321419,0,,,
171219,0.002811,0.001046,0.001145,-1.209681,-2.082452,-0.074281,-0.001296203,0,,,
171319,0.0024,0.001312,0.001507,-1.209082,-2.082152,-0.075537,-0.001318121,0,,,
171419,0.00209,0.001199,0.001794,-1.208586,-2.082033,-0.074753,-0.00130444,0,,,
171519,0.001172,0.00121,0.00095,-1.208874,-2.081975,-0.075374,-0.001315276,0,,,
171619,0.002258,0.000389,0.002462,-1.208302,-2.082252,-0.074822,-0.001305644,0,,,
171719,0.000825,0.002347,0.002252,-1.208775,-2.081559,-0.07254,-0.001265823,0,,,
171819,0.000258,0.002007,0.001918,-1.209297,-2.081003,-0.07264,-0.001267568,0,,,
171919,-3.30E-05,0.000655,0.000972,-1.210209,-2.081149,-0.073799,-0.001287793,0,,,
172019,2.80E-05,0.001107,0.002327,-1.210842,-2.080959,-0.073294,-0.00127898,0,,,
172119,0.002174,0.000349,0.001974,-1.210793,-2.08148,-0.077061,-0.001344714,0,,,
172219,0.002592,0.000538,0.00213,-1.210419,-2.081797,-0.077191,-0.001346983,0,,,
172319,0.001127,0.003914,0.00143,-1.210886,-2.080285,-0.080741,-0.00140893,0,,,
172419,0.002469,0.00114,0.002752,-1.210036,-2.079932,-0.082125,-0.001433081,0,,,
172519,0.000931,0.001531,0.003001,-1.210184,-2.079591,-0.081117,-0.001415492,0,,,
172619,0.002454,0.00011,0.001371,-1.209693,-2.080307,-0.083237,-0.001452486,0,,,
172719,-0.000153,0.00133,0.001566,-1.211525,-2.080643,-0.090399,-0.001577463,0,,,
172819,0.000938,-0.001644,0.001972,-1.212481,-2.082118,-0.097899,-0.001708338,0,,,
172919,0.000696,-0.002027,0.000861,-1.212714,-2.084148,-0.098603,-0.001720622,0,,,
173019,-0.001628,0.001561,0.001202,-1.214424,-2.083684,-0.103446,-0.001805133,0,,,
173119,-0.00016,0.001219,0.00127,-1.215017,-2.083311,-0.10455,-0.001824398,0,,,
173219,0.001593,0.00112,0.000253,-1.215267,-2.083333,-0.106924,-0.001865824,0,,,
173319,0.002236,0.001535,0.001725,-1.214844,-2.083147,-0.106643,-0.00186092,0,,,
173419,0.00252,0.000635,0.002554,-1.214138,-2.083361,-0.105805,-0.001846297,0,,,
173519,0.001719,0.001225,0.003596,-1.214081,-2.083253,-0.106346,-0.001855738,0,,,
173619,0.001189,0.001408,0.002235,-1.214461,-2.083038,-0.106838,-0.001864323,0,,,
173719,0.00152,0.001766,0.001992,-1.214916,-2.082836,-0.1099,-0.001917755,0,,,
173819,0.000677,-0.0005,0.001624,-1.216113,-2.083777,-0.11563,-0.002017744,0,,,
173919,-0.000156,0.002432,3.00E-06,-1.217588,-2.08297,-0.121086,-0.002112951,0,,,
174019,-0.000182,-0.001242,0.001846,-1.218865,-2.084434,-0.123489,-0.002154883,0,,,
174119,0.000943,0.00177,0.001919,-1.219138,-2.083815,-0.1234,-0.00215333,0,,,
174219,0.000366,0.001527,0.000975,-1.219813,-2.083591,-0.126056,-0.002199677,0,,,
174319,0.001937,0.000555,0.001612,-1.219713,-2.083882,-0.127971,-0.002233094,0,,,
174419,-0.000775,-8.10E-05,0.000896,-1.221408,-2.084392,-0.135338,-0.002361648,0,,,
174519,0.000151,0.00096,0.001743,-1.222283,-2.084428,-0.135219,-0.002359572,0,,,
174619,0.000882,0.001523,0.000786,-1.222338,-2.08413,-0.135032,-0.002356308,0,,,
174719,0.000151,0.002195,0.003357,-1.222851,-2.083323,-0.133518,-0.002329889,0,,,
174819,0.001533,0.000256,-0.000311,-1.222476,-2.08369,-0.132764,-0.002316732,0,,,
174919,-8.50E-05,0.001531,0.001832,-1.223266,-2.083512,-0.135137,-0.002358141,0,,,
175019,0.002081,-0.000223,0.001098,-1.222918,-2.084103,-0.134162,-0.002341127,0,,,
175119,0.002085,-0.000235,0.002304,-1.223195,-2.085054,-0.137884,-0.002406076,0,,,
175219,0.002251,-0.000612,0.002009,-1.223391,-2.086257,-0.142413,-0.002485107,0,,,
175319,0.002331,0.001884,0.00466,-1.222795,-2.085521,-0.140471,-0.002451219,0,,,
175419,0.002049,0.002757,0.0015,-1.222328,-2.084248,-0.142484,-0.002486346,0,,,
175519,0.00015,0.000489,0.002407,-1.222743,-2.084338,-0.138279,-0.002412969,0,,,
175619,-0.00034,0.001988,0.002287,-1.223691,-2.083419,-0.141889,-0.002475963,0,,,
175719,0.00109,6.80E-05,0.001785,-1.223726,-2.08393,-0.144444,-0.002520548,0,,,
175819,0.001344,0.000224,0.002431,-1.223798,-2.084217,-0.14458,-0.002522921,0,,,
175919,0.001326,0.000574,0.00306,-1.223614,-2.084413,-0.138508,-0.002416965,0,,,
176019,0.001513,0.001833,0.003009,-1.223909,-2.083746,-0.136382,-0.002379866,0,,,
176119,0.001266,0.001016,0.00216,-1.224074,-2.083542,-0.136854,-0.002388102,0,,,
176219,0.000834,0.002242,0.001409,-1.22476,-2.082625,-0.143301,-0.002500602,0,,,
176319,0.002426,0.000707,0.002125,-1.224751,-2.082896,-0.144718,-0.002525329,0,,,
176419,0.000271,0.001819,0.001692,-1.225966,-2.082478,-0.149716,-0.002612544,0,,,
176519,0.001711,0.001489,0.000467,-1.225552,-2.081885,-0.150282,-0.002622421,0,,,
176619,0.000318,0.001359,0.000965,-1.226535,-2.081681,-0.152919,-0.002668437,0,,,
176719,-0.000158,0.002993,0.001496,-1.227839,-2.080602,-0.159183,-0.002777743,0,,,
176819,0.000576,0.001444,0.001274,-1.228525,-2.080154,-0.161765,-0.002822799,0,,,
176919,0.001234,0.002967,0.002524,-1.228598,-2.078715,-0.160699,-0.002804198,0,,,
177019,0.002154,0.002134,0.001595,-1.228177,-2.078034,-0.162483,-0.002835328,0,,,
177119,0.002139,0.000771,0.001868,-1.22812,-2.078121,-0.164,-0.0028618,0,,,
177219,0.003227,0.001606,0.002653,-1.226936,-2.077456,-0.162693,-0.002838993,0,,,
177319,0.001729,-0.000955,0.001196,-1.226851,-2.078579,-0.163422,-0.002851714,0,,,
177419,0.000422,0.001004,0.002347,-1.227768,-2.078433,-0.167529,-0.002923381,0,,,
177519,0.002052,-0.000589,0.000256,-1.228052,-2.079832,-0.171572,-0.002993931,0,,,
177619,0.001475,0.000566,0.002208,-1.228009,-2.079751,-0.172112,-0.003003354,0,,,
177719,0.002103,0.004361,0.001302,-1.227598,-2.077706,-0.174292,-0.003041395,0,,,
177819,0.001628,0.000571,0.002093,-1.227242,-2.077699,-0.174435,-0.003043891,0,,,
177919,3.50E-05,0.00132,0.000854,-1.22825,-2.07773,-0.173781,-0.003032478,0,,,
178019,0.001002,0.000631,0.000971,-1.228855,-2.078135,-0.177508,-0.003097515,0,,,
178119,0.00163,0.001982,0.002603,-1.228659,-2.077553,-0.176447,-0.003079,0,,,
178219,0.000975,0.002902,0.000942,-1.228498,-2.076044,-0.174593,-0.003046648,0,,,
178319,0.001484,0.001178,0.00253,-1.22851,-2.075934,-0.173774,-0.003032356,0,,,
178419,0.003263,0.001085,0.001687,-1.22758,-2.075665,-0.174714,-0.003048759,0,,,
178519,0.004266,0.000978,0.002998,-1.226272,-2.07578,-0.171066,-0.002985102,0,,,
178619,-6.90E-05,0.000529,0.002296,-1.227297,-2.076001,-0.171362,-0.002990267,0,,,
178719,0.002229,0.001172,0.003727,-1.227331,-2.076061,-0.174268,-0.003040977,0,,,
178819,-0.000535,0.002403,0.001959,-1.228769,-2.075399,-0.174642,-0.003047503,0,,,
178919,0.000979,0.002679,0.001312,-1.229257,-2.074232,-0.175963,-0.003070554,0,,,
179019,-0.001273,0.002362,0.001892,-1.230729,-2.073283,-0.175,-0.00305375,0,,,
179119,0.0027,0.000197,0.000764,-1.23031,-2.073628,-0.17726,-0.003093187,0,,,
179219,-0.000365,0.000962,0.000537,-1.231574,-2.07348,-0.182429,-0.003183386,0,,,
179319,0.001958,0.001804,-0.000707,-1.231122,-2.07289,-0.18711,-0.00326507,0,,,
179419,0.00248,0.000319,0.002374,-1.231221,-2.073522,-0.190382,-0.003322166,0,,,
179519,0.002479,0.000395,0.000993,-1.231037,-2.074063,-0.196381,-0.003426848,0,,,
179619,0.002211,0.001146,0.003067,-1.230441,-2.073864,-0.197299,-0.003442868,0,,,
179719,0.003496,0.000731,0.002738,-1.228918,-2.073757,-0.194035,-0.003385911,0,,,
179819,0.002322,0.000156,0.003357,-1.228357,-2.07421,-0.192565,-0.003360259,0,,,
179919,0.001267,0.002067,0.002584,-1.228627,-2.073589,-0.194789,-0.003399068,0,,,
180019,0.002067,0.001397,0.002852,-1.228857,-2.073286,-0.198315,-0.003460597,0,,,
180119,0.000208,0.001037,0.001097,-1.229729,-2.073249,-0.202977,-0.003541949,0,,,
180219,0.001257,0.001145,0.002166,-1.229709,-2.073036,-0.201589,-0.003517728,0,,,
180319,0.000313,0.000311,0.003181,-1.230789,-2.073563,-0.205769,-0.003590669,0,,,
180419,0.001681,0.001437,0.001653,-1.231242,-2.073475,-0.208881,-0.003644973,0,,,
180519,0.001779,0.002586,0.003031,-1.231784,-2.072863,-0.214911,-0.003750197,0,,,
180619,0.002195,0.00141,0.002456,-1.231684,-2.072686,-0.218984,-0.003821271,0,,,
180719,0.001954,0.000891,0.001903,-1.230989,-2.072578,-0.216563,-0.003779024,0,,,
180819,0.001385,0.001939,0.002599,-1.231238,-2.07174,-0.221927,-0.003872626,0,,,
180919,0.000494,0.003201,0.000924,-1.231943,-2.070516,-0.226083,-0.003945148,0,,,
181019,0.000796,0.002526,0.003657,-1.232641,-2.069669,-0.225583,-0.003936423,0,,,
181119,0.000453,0.002709,0.003408,-1.234032,-2.068766,-0.234665,-0.004094904,0,,,
181219,0.000782,0.002298,0.000455,-1.234935,-2.067978,-0.241559,-0.004215205,0,,,
181319,0.000112,0.00092,0.001224,-1.235985,-2.06806,-0.24583,-0.004289734,0,,,
181419,0.000417,0.003695,0.001307,-1.236816,-2.066442,-0.249445,-0.004352815,0,,,
181519,0.001059,0.000358,0.000427,-1.237271,-2.066781,-0.256057,-0.004468195,0,,,
181619,0.001107,0.002188,0.001651,-1.237527,-2.065823,-0.258803,-0.004516112,0,,,
181719,0.001112,0.000627,0.001516,-1.237875,-2.065833,-0.262476,-0.004580206,0,,,
181819,0.002193,0.00026,0.001766,-1.237651,-2.066213,-0.265723,-0.004636866,0,,,
181919,0.003177,0.003348,0.002437,-1.237056,-2.064732,-0.269995,-0.004711413,0,,,
182019,0.00195,0.000103,0.001594,-1.236854,-2.065301,-0.269409,-0.004701187,0,,,
182119,0.000789,0.002375,0.002342,-1.237765,-2.064753,-0.274913,-0.004797232,0,,,
182219,-0.000159,0.00232,0.00596,-1.238808,-2.064034,-0.271673,-0.004740694,0,,,
182319,0.000582,0.002549,0.007017,-1.23907,-2.062875,-0.267997,-0.004676548,0,,,
182419,0.001454,-0.00013,0.004191,-1.239649,-2.063591,-0.270008,-0.00471164,0,,,
182519,0.003328,9.60E-05,0.003273,-1.238293,-2.063871,-0.264844,-0.004621528,0,,,
182619,0.000769,0.00111,0.001713,-1.238579,-2.063773,-0.259621,-0.004530386,0,,,
182719,-5.30E-05,0.001416,0.001315,-1.239557,-2.063458,-0.263111,-0.004591287,0,,,
182819,0.001349,0.001542,0.00227,-1.240226,-2.063076,-0.271994,-0.004746295,0,,,
182919,0.000468,0.001316,0.000832,-1.240652,-2.062825,-0.270016,-0.004711779,0,,,
183019,0.001168,-2.20E-05,0.00153,-1.240483,-2.063197,-0.267692,-0.004671225,0,,,
183119,0.002599,0.001754,0.002482,-1.240146,-2.062818,-0.274039,-0.004781981,0,,,
183219,0.00272,0.000925,0.001919,-1.239268,-2.062617,-0.271778,-0.004742526,0,,,
183319,0.002105,0.002162,0.002193,-1.239061,-2.062028,-0.276332,-0.004821993,0,,,
183419,0.002198,0.001507,0.002627,-1.2388,-2.061776,-0.277987,-0.004850873,0,,,
183519,0.001471,0.001522,0.00282,-1.23889,-2.061471,-0.279553,-0.0048782,0,,,
183619,0.003097,0.000445,0.002404,-1.237743,-2.061638,-0.277643,-0.00484487,0,,,
183719,0.00225,4.00E-05,0.003268,-1.237224,-2.062014,-0.280945,-0.00490249,0,,,
183819,0.001177,0.003998,0.004505,-1.237651,-2.060172,-0.283863,-0.004953409,0,,,
183919,0.001348,0.001915,0.005819,-1.238051,-2.05956,-0.289718,-0.005055579,0,,,
184019,0.001561,0.000691,0.003724,-1.238272,-2.059644,-0.294085,-0.005131783,0,,,
184119,0.00171,0.000414,0.004643,-1.238416,-2.0599,-0.292065,-0.005096534,0,,,
184219,0.002359,-0.000947,0.002045,-1.237945,-2.061023,-0.287278,-0.005013001,0,,,
184319,0.000842,0.000699,0.000704,-1.237711,-2.060937,-0.288108,-0.005027485,0,,,
184419,0.000944,0.000327,0.001096,-1.238132,-2.061299,-0.288943,-0.005042055,0,,,
184519,0.000599,0.000308,0.002018,-1.238522,-2.06175,-0.286838,-0.005005323,0,,,
184619,0.00137,0.002519,0.003604,-1.239032,-2.060838,-0.291261,-0.005082504,0,,,
184719,0.002615,0.001668,0.001453,-1.238475,-2.060297,-0.295062,-0.005148832,0,,,
184819,0.002993,0.001941,0.002406,-1.237328,-2.059621,-0.290133,-0.005062821,0,,,
184919,0.001947,0.000807,0.001589,-1.237377,-2.05986,-0.286744,-0.005003683,0,,,
185019,-0.000146,0.000236,0.001273,-1.238101,-2.060078,-0.290414,-0.005067724,0,,,
185119,0.001494,0.001313,0.003687,-1.238356,-2.059774,-0.290054,-0.005061442,0,,,
185219,0.002138,0.001708,0.002102,-1.237882,-2.059179,-0.289533,-0.005052351,0,,,
185319,-0.00021,0.000911,0.001747,-1.238681,-2.059135,-0.289852,-0.005057917,0,,,
185419,5.00E-05,0.000982,0.001793,-1.239647,-2.059056,-0.289508,-0.005051915,0,,,
185519,0.000942,0.001208,0.002197,-1.240108,-2.058737,-0.292948,-0.005111943,0,,,
185619,0.003468,0.00175,0.000422,-1.239461,-2.058288,-0.294595,-0.005140683,0,,,
185719,0.003233,0.003006,0.001131,-1.238622,-2.057272,-0.295146,-0.005150298,0,,,
185819,0.000405,0.001506,0.004433,-1.239481,-2.057073,-0.291897,-0.005093603,0,,,
185919,0.000336,0.00076,0.006623,-1.240665,-2.057132,-0.290772,-0.005073971,0,,,
186019,0.003439,0.002014,0.004067,-1.239611,-2.056432,-0.290937,-0.005076851,0,,,
186119,0.003227,-0.0013,0.003451,-1.238503,-2.057527,-0.290588,-0.005070761,0,,,
186219,0.001417,0.00081,0.002315,-1.239007,-2.057824,-0.292378,-0.005101996,0,,,
186319,-0.00029,-0.000344,0.003237,-1.240198,-2.0586,-0.299398,-0.005224495,0,,,
186419,0.001786,0.00131,0.002175,-1.240034,-2.058353,-0.294735,-0.005143126,0,,,
186519,0.001452,0.004114,0.002696,-1.240059,-2.056444,-0.294786,-0.005144016,0,,,
186619,0.002045,0.002447,0.003357,-1.239884,-2.055679,-0.292175,-0.005098454,0,,,
186719,0.000599,0.000832,0.001887,-1.240551,-2.055529,-0.295023,-0.005148151,0,,,
186819,0.002168,0.00149,0.003386,-1.240206,-2.055087,-0.298554,-0.005209767,0,,,
186919,0.001487,-0.001018,0.001159,-1.240282,-2.055963,-0.30187,-0.005267632,0,,,
187019,0.00175,0.000774,0.001297,-1.240558,-2.056052,-0.309658,-0.005403532,0,,,
187119,0.001279,0.002718,0.001166,-1.241062,-2.055114,-0.314471,-0.005487519,0,,,
187219,0.000943,-0.000726,0.001828,-1.241282,-2.056108,-0.309573,-0.005402049,0,,,
187319,0.003259,0.001214,0.002399,-1.240288,-2.055887,-0.312651,-0.00545576,0,,,
187419,0.001773,0.003775,0.003216,-1.240347,-2.054167,-0.309618,-0.005402834,0,,,
187519,0.001199,0.001977,0.002068,-1.24005,-2.053559,-0.307532,-0.005366433,0,,,
187619,-0.000106,0.001942,0.003445,-1.241208,-2.052855,-0.310323,-0.005415136,0,,,
187719,0.002574,0.000391,0.003477,-1.241041,-2.0533,-0.313568,-0.005471762,0,,,
187819,0.001039,0.00103,0.002807,-1.241531,-2.05331,-0.316272,-0.005518946,0,,,
187919,0.002328,0.002195,0.002244,-1.240914,-2.052424,-0.316695,-0.005526328,0,,,
188019,0.001874,0.001008,0.003789,-1.240514,-2.052156,-0.318272,-0.005553846,0,,,
188119,0.00041,-0.000607,0.003052,-1.241162,-2.052608,-0.321983,-0.005618603,0,,,
188219,0.000146,0.001491,0.002,-1.242123,-2.052289,-0.32538,-0.005677881,0,,,
188319,-0.000698,7.10E-05,0.001299,-1.243286,-2.052857,-0.325724,-0.005683884,0,,,
188419,0.000594,0.001703,0.001966,-1.243587,-2.052395,-0.325834,-0.005685803,0,,,
188519,0.000765,0.000327,0.000502,-1.244033,-2.052675,-0.328146,-0.005726148,0,,,
188619,2.10E-05,0.00285,0.001415,-1.245674,-2.05169,-0.341157,-0.00595319,0,,,
188719,0.002916,0.001517,0.002113,-1.244781,-2.051244,-0.339409,-0.005922687,0,,,
188819,3.20E-05,-3.50E-05,0.001665,-1.246057,-2.051959,-0.346916,-0.006053684,0,,,
188919,0.001181,0.0007,0.003219,-1.246613,-2.052172,-0.35056,-0.006117272,0,,,
189019,0.001207,0.000274,0.002703,-1.247051,-2.052463,-0.358127,-0.006249316,0,,,
189119,0.000457,0.002907,0.00231,-1.248362,-2.051514,-0.364575,-0.006361834,0,,,
189219,0.002383,0.001656,0.001806,-1.247927,-2.051154,-0.360268,-0.006286677,0,,,
189319,0.000434,0.000604,0.001109,-1.248912,-2.051412,-0.365316,-0.006374764,0,,,
189419,0.003236,0.001605,0.000352,-1.248791,-2.051401,-0.373694,-0.00652096,0,,,
189519,0.000434,-0.001389,0.000968,-1.249524,-2.052773,-0.373176,-0.006511921,0,,,
189619,0.001954,-0.000133,0.001282,-1.24918,-2.053295,-0.37494,-0.006542703,0,,,
189719,0.003271,0.001223,0.002036,-1.248363,-2.053079,-0.372988,-0.006508641,0,,,
189819,0.001529,0.000953,0.002206,-1.248928,-2.053116,-0.378667,-0.006607739,0,,,
189919,0.000952,0.001061,0.000737,-1.249362,-2.053036,-0.379572,-0.006623531,0,,,
190019,0.00179,0.000581,0.00096,-1.249025,-2.053228,-0.376807,-0.006575282,0,,,
190119,0.002025,0.001038,0.004301,-1.248798,-2.052935,-0.376117,-0.006563242,0,,,
190219,0.001737,0.000135,0.003328,-1.249147,-2.053479,-0.377562,-0.006588457,0,,,
190319,0.000674,0.00163,0.001446,-1.24997,-2.05308,-0.380355,-0.006637195,0,,,
190419,0.003219,0.001112,0.001408,-1.249107,-2.052725,-0.387133,-0.006755471,0,,,
190519,0.002023,0.001307,0.00135,-1.248955,-2.052609,-0.390792,-0.00681932,0,,,
190619,0.0015,-0.00049,0.001783,-1.249294,-2.053503,-0.397728,-0.006940354,0,,,
190719,0.00129,0.000324,0.002223,-1.249589,-2.053906,-0.395186,-0.006895996,0,,,
190819,0.002084,0.001993,0.002424,-1.249397,-2.053034,-0.401515,-0.007006437,0,,,
190919,0.001542,0.00091,0.002613,-1.249203,-2.052946,-0.400183,-0.006983193,0,,,
191019,-0.001327,0.001069,0.003134,-1.251349,-2.052861,-0.405514,-0.007076219,0,,,
191119,0.00113,0.001397,0.001107,-1.251804,-2.052755,-0.408034,-0.007120193,0,,,
191219,0.002008,0.000866,0.0031,-1.251607,-2.05264,-0.416043,-0.00725995,0,,,
191319,0.00293,0.001053,0.00228,-1.25128,-2.052712,-0.422828,-0.007378349,0,,,
191419,0.002556,0.001173,0.00208,-1.25067,-2.052511,-0.426563,-0.007443524,0,,,
191519,0.002367,0.002987,0.001727,-1.249758,-2.051507,-0.422418,-0.007371194,0,,,
191619,0.002701,0.000641,-0.001203,-1.249131,-2.051562,-0.428368,-0.007475022,0,,,
191719,0.002246,0.000625,0.001822,-1.248948,-2.051795,-0.435715,-0.007603227,0,,,
191819,0.000561,0.001261,0.00271,-1.249654,-2.051525,-0.436787,-0.007621933,0,,,
191919,0.000553,0.000451,0.000967,-1.250737,-2.051757,-0.448824,-0.007831979,0,,,
192019,0.000454,0.000672,0.001555,-1.251055,-2.051884,-0.447713,-0.007812592,0,,,
192119,0.002149,0.000432,0.001758,-1.250696,-2.052252,-0.44502,-0.007765599,0,,,
192219,0.000704,0.001983,0.001436,-1.251744,-2.051568,-0.456978,-0.007974266,0,,,
192319,-2.50E-05,-0.000218,0.002356,-1.252924,-2.052436,-0.456087,-0.007958718,0,,,
192419,0.001143,0.002593,0.002319,-1.253395,-2.051683,-0.454005,-0.007922387,0,,,
192519,0.001634,0.002586,0.003169,-1.25367,-2.050708,-0.460978,-0.008044066,0,,,
192619,0.000735,0.002016,-5.40E-05,-1.2544,-2.050058,-0.468723,-0.008179216,0,,,
192719,-0.00045,0.001688,0.002141,-1.255946,-2.049723,-0.473513,-0.008262802,0,,,
192819,0.002572,0.002855,0.002922,-1.255678,-2.048609,-0.4782,-0.00834459,0,,,
192919,0.002092,0.000619,0.002142,-1.255334,-2.048737,-0.479435,-0.008366141,0,,,
193019,0.002583,0.001964,0.001587,-1.25476,-2.048231,-0.480667,-0.008387639,0,,,
193119,0.000728,0.000441,0.002911,-1.25549,-2.048651,-0.479606,-0.008369125,0,,,
193219,0.001266,-0.000712,0.001976,-1.255636,-2.049638,-0.475336,-0.008294613,0,,,
193319,0.000856,0.002868,0.002228,-1.256443,-2.04851,-0.4765,-0.008314925,0,,,
193419,0.00195,0.001186,0.000989,-1.256617,-2.048263,-0.487804,-0.00851218,0,,,
193519,0.000217,0.000785,0.000936,-1.257434,-2.048304,-0.492413,-0.008592607,0,,,
193619,0.002191,-0.000472,0.002518,-1.257128,-2.049184,-0.487622,-0.008509004,0,,,
193719,0.001377,5.00E-05,0.002925,-1.257511,-2.049632,-0.496335,-0.008661046,0,,,
193819,0.000879,-0.000443,0.001699,-1.258098,-2.05051,-0.50275,-0.008772988,0,,,
193919,0.002195,0.001277,0.002324,-1.257625,-2.050204,-0.506706,-0.00884202,0,,,
194019,0.002157,0.001456,0.004198,-1.257128,-2.049809,-0.505387,-0.008819003,0,,,
194119,0.002096,0.000791,0.000571,-1.256575,-2.049964,-0.500292,-0.008730095,0,,,
194219,0.000592,7.90E-05,0.001597,-1.25718,-2.050428,-0.498992,-0.00870741,0,,,
194319,0.001804,0.000601,0.002941,-1.256813,-2.050632,-0.494087,-0.008621818,0,,,
194419,0.002849,0.001569,0.001905,-1.256084,-2.050359,-0.492337,-0.008591281,0,,,
194519,0.000345,0.000943,0.002314,-1.256897,-2.050282,-0.500078,-0.008726361,0,,,
194619,0.001894,0.002024,0.001959,-1.257057,-2.049704,-0.502418,-0.008767194,0,,,
194719,0.002108,0.000739,0.000563,-1.256841,-2.049915,-0.504102,-0.00879658,0,,,
194819,-0.000462,-0.000113,0.001412,-1.258158,-2.050484,-0.505603,-0.008822772,0,,,
194919,0.001477,-0.001021,0.001688,-1.257957,-2.051519,-0.49767,-0.008684342,0,,,
195019,0.002344,0.001686,0.001458,-1.257642,-2.050976,-0.502054,-0.008760842,0,,,
195119,0.000935,0.001532,0.002681,-1.258428,-2.050672,-0.502537,-0.008769271,0,,,
195219,0.001522,-8.80E-05,0.002358,-1.258286,-2.051294,-0.500605,-0.008735557,0,,,
195319,0.001047,0.001484,0.000452,-1.258472,-2.050838,-0.501736,-0.008755293,0,,,
195419,0.002165,0.002754,0.002379,-1.258083,-2.049713,-0.498909,-0.008705962,0,,,
195519,0.000718,0.002416,6.40E-05,-1.258831,-2.048928,-0.500943,-0.008741455,0,,,
195619,0.002111,0.001263,0.001342,-1.258584,-2.048836,-0.498192,-0.00869345,0,,,
195719,0.002611,0.001526,0.001347,-1.257557,-2.048428,-0.487018,-0.008498464,0,,,
195819,0.000772,0.000145,0.001795,-1.257913,-2.048702,-0.495153,-0.00864042,0,,,
195919,-5.90E-05,0.002171,0.001981,-1.259145,-2.048058,-0.499848,-0.008722348,0,,,
196019,0.002166,-0.000304,0.003133,-1.258963,-2.048674,-0.504364,-0.008801152,0,,,
196119,0.002495,0.000279,0.003139,-1.258455,-2.048954,-0.511578,-0.008927036,0,,,
196219,0.001582,0.002859,0.001868,-1.258597,-2.047739,-0.522387,-0.009115653,0,,,
196319,0.001639,0.001342,0.001794,-1.258719,-2.047507,-0.524921,-0.009159871,0,,,
196419,0.002617,0.001904,0.00248,-1.258173,-2.046729,-0.529178,-0.009234156,0,,,
196519,0.001925,0.001105,0.002252,-1.257754,-2.04649,-0.529324,-0.009236704,0,,,
196619,0.001608,0.00161,0.001959,-1.258232,-2.046135,-0.53842,-0.009395429,0,,,
196719,0.00028,-0.000184,0.000835,-1.258793,-2.046655,-0.537899,-0.009386338,0,,,
196819,0.002093,0.003116,0.001962,-1.258381,-2.045315,-0.539439,-0.009413211,0,,,
196919,0.002234,-0.000187,0.001932,-1.258086,-2.045961,-0.536412,-0.009360389,0,,,
197019,0.002143,0.000333,0.001355,-1.258172,-2.046395,-0.545708,-0.009522605,0,,,
197119,0.001997,0.001271,0.00155,-1.25764,-2.046226,-0.540214,-0.009426734,0,,,
197219,0.001686,0.002696,0.001381,-1.257461,-2.045079,-0.543663,-0.009486919,0,,,
197319,0.001168,0.00306,0.001711,-1.257424,-2.043862,-0.541049,-0.009441305,0,,,
197419,0.001559,-0.000384,0.000761,-1.257889,-2.044859,-0.547436,-0.009552758,0,,,
197519,0.00489,-0.000376,0.001893,-1.256312,-2.045576,-0.552781,-0.009646028,0,,,
197619,0.003154,0.001115,0.002906,-1.255905,-2.045458,-0.563007,-0.009824472,0,,,
197719,0.001933,0.001643,0.001934,-1.256294,-2.044967,-0.574186,-0.010019546,0,,,
197819,0.001159,-0.000126,0.002384,-1.256434,-2.045511,-0.576842,-0.010065893,0,,,
197919,0.00048,0.001043,0.001,-1.257229,-2.045467,-0.584296,-0.010195965,0,,,
198019,0.001791,0.000458,0.003798,-1.256884,-2.045612,-0.583451,-0.01018122,0,,,
198119,-0.001148,-0.000753,0.005817,-1.258538,-2.046565,-0.580765,-0.010134349,0,,,
198219,0.002326,0.000899,0.005056,-1.258269,-2.046508,-0.581657,-0.010149915,0,,,
198319,0.002835,0.000473,0.003484,-1.257824,-2.046845,-0.585873,-0.010223484,0,,,
198419,0.001527,0.001219,0.003554,-1.258298,-2.046736,-0.587069,-0.010244354,0,,,
198519,0.003405,0.001442,0.004075,-1.257034,-2.046313,-0.586053,-0.010226625,0,,,
198619,0.00224,5.50E-05,0.004815,-1.256803,-2.046634,-0.593378,-0.010354446,0,,,
198719,0.001087,-0.00112,0.007559,-1.257277,-2.04778,-0.588064,-0.010261717,0,,,
198819,0.003204,0.001353,0.013034,-1.256675,-2.047474,-0.578053,-0.010087025,0,,,
198919,0.002518,0.000805,0.021234,-1.256868,-2.047303,-0.570834,-0.009961053,0,,,
199019,0.001465,-0.001433,0.037258,-1.257447,-2.048272,-0.544134,-0.009495138,0,,,
199119,0.005916,-0.005262,0.054918,-1.256031,-2.051229,-0.517334,-0.009027478,0,,,
199219,0.005526,-0.007904,0.070869,-1.255253,-2.055356,-0.481651,-0.00840481,0,,,
199319,0.005228,-0.00506,0.084157,-1.254846,-2.057901,-0.437579,-0.007635754,0,,,
199419,0.008786,-0.007718,0.09367,-1.252876,-2.061595,-0.393033,-0.006858426,0,,,
199519,0.006401,-0.007119,0.114099,-1.252369,-2.064881,-0.327275,-0.005710949,0,,,
199619,0.007523,-0.002388,0.134598,-1.251963,-2.065117,-0.263179,-0.004592474,0,,,
199719,0.006394,0.000155,0.130625,-1.252009,-2.063913,-0.200191,-0.003493333,0,,,
199819,0.005458,0.00011,0.134205,-1.252623,-2.062526,-0.134322,-0.002343919,0,,,
199919,0.008079,-0.00238,0.148526,-1.252418,-2.062511,-0.070381,-0.001228148,0,,,
200019,0.007649,0.001539,0.087033,-1.25083,-2.060925,-0.038104,-0.000664915,0,,,
200119,0.004427,-0.003044,0.087739,-1.251679,-2.062157,-0.00611,-0.00010662,0,,,
200219,0.001319,-0.004977,0.104852,-1.254387,-2.064145,0.02979,0.000519836,0,,,
200319,0.005884,-0.006319,0.118236,-1.254617,-2.066703,0.079577,0.001388619,0,,,
200419,0.009178,-0.003235,0.089542,-1.252614,-2.067628,0.095806,0.001671815,0,,,
200519,0.005131,-0.000221,0.076636,-1.252784,-2.06705,0.103487,0.001805848,0,,,
200619,0.001463,0.001006,0.060306,-1.255369,-2.065912,0.094625,0.001651206,0,,,
200719,0.000654,0.00153,0.028668,-1.257164,-2.064833,0.073231,0.001277881,0,,,
200819,0.00147,0.004595,0.004598,-1.257036,-2.062408,0.055626,0.000970674,0,,,
200919,-0.000948,0.002277,0.000671,-1.25894,-2.06121,0.017767,0.000310034,0,,,
201019,-0.005326,0.004581,0.001239,-1.263491,-2.05876,-0.016154,-0.000281887,0,,,
201119,-0.004326,0.006372,-0.001576,-1.268054,-2.055138,-0.064937,-0.001133151,0,,,
201219,-0.001003,0.005337,0.000589,-1.270192,-2.052036,-0.110187,-0.001922763,0,,,
201319,-0.00154,0.002135,0.000858,-1.273788,-2.050515,-0.167453,-0.002922055,0,,,
201419,-0.004803,0.003703,-0.003497,-1.278554,-2.048303,-0.221562,-0.003866257,0,,,
201519,-0.000608,0.005015,-0.008881,-1.280304,-2.045476,-0.275296,-0.004803915,0,,,
201619,0.000438,0.008092,-0.018361,-1.280945,-2.041149,-0.324058,-0.005654812,0,,,
201719,-0.00079,0.009785,-0.028638,-1.282393,-2.035863,-0.386283,-0.006740638,0,,,
201819,-0.003536,0.009443,-0.043532,-1.285273,-2.030917,-0.458551,-0.008001715,0,,,
201919,-0.005808,0.011495,-0.062669,-1.289185,-2.024868,-0.550285,-0.009602473,0,,,
202019,-0.008183,0.018802,-0.06364,-1.293714,-2.01503,-0.623578,-0.010881436,0,,,
202119,-0.006611,0.016631,-0.074762,-1.297988,-2.006301,-0.715021,-0.012477116,0,,,
202219,-0.000507,0.012032,-0.097429,-1.297858,-2.000663,-0.809581,-0.014127188,0,,,
202319,-0.000942,0.011311,-0.124953,-1.296309,-1.996231,-0.901987,-0.015739673,0,,,
202419,0.00143,0.003321,-0.069584,-1.295886,-1.994969,-0.997035,-0.017398261,0,,,
202519,0.00245,0.001706,-0.02126,-1.29526,-1.994454,-1.037657,-0.018107115,0,,,
202619,0.001778,0.001555,-0.006456,-1.295917,-1.993291,-1.10522,-0.019286089,0,,,
202719,0.002716,-0.000771,-0.004145,-1.295462,-1.993951,-1.139608,-0.01988616,0,,,
202819,-0.001368,-0.000173,-0.020258,-1.296308,-1.994694,-1.177963,-0.020555454,0,,,
202919,0.00126,0.002009,-0.066524,-1.296092,-1.994323,-1.253063,-0.021865949,0,,,
203019,-0.003398,0.004575,-0.115035,-1.297174,-1.993451,-1.335109,-0.023297652,0,,,
203119,-0.004946,0.004412,-0.131048,-1.298244,-1.99292,-1.436109,-0.025060102,0,,,
203219,-0.002959,0.00372,-0.072727,-1.299252,-1.992284,-1.48331,-0.02588376,0,,,
203319,-0.000776,0.003696,-0.028149,-1.300876,-1.990394,-1.544618,-0.026953584,0,,,
203419,0.002847,0.001737,-0.000241,-1.300589,-1.989676,-1.561137,-0.027241841,0,,,
203519,0.003857,-0.001911,0.003052,-1.299721,-1.991173,-1.562756,-0.027270092,0,,,
203619,0.00109,-0.003581,-0.000441,-1.299939,-1.993756,-1.569581,-0.027389188,0,,,
203719,-0.000906,0.000228,-0.001654,-1.301115,-1.99443,-1.558096,-0.027188775,0,,,
203819,0.00245,0.001439,-0.010711,-1.300421,-1.994257,-1.570194,-0.027399885,0,,,
203919,0.001927,0.003223,-0.057319,-1.29893,-1.99379,-1.601687,-0.027949438,0,,,
204019,-0.001993,0.0033,-0.08046,-1.299299,-1.993524,-1.649367,-0.028781454,0,,,
204119,-0.002156,0.003072,-0.051583,-1.300473,-1.992992,-1.680003,-0.029316052,0,,,
204219,0.004886,0.002744,-0.004472,-1.298493,-1.992053,-1.683576,-0.029378401,0,,,
204319,0.008706,0.000824,0.004893,-1.29454,-1.992078,-1.682265,-0.029355524,0,,,
204419,0.00449,-0.003189,0.003715,-1.292936,-1.994427,-1.68151,-0.02934235,0,,,
204519,0.000572,-0.00063,0.001557,-1.293537,-1.995338,-1.681972,-0.029350411,0,,,
204619,0.002581,-0.000666,0.000414,-1.292969,-1.996287,-1.682936,-0.029367233,0,,,
204719,0.002698,0.000164,0.000106,-1.292334,-1.99676,-1.68434,-0.029391733,0,,,
204819,-0.002499,0.000571,-0.001429,-1.294642,-1.997024,-1.686438,-0.029428343,0,,,
204919,-0.00218,0.000322,0.002687,-1.29685,-1.997374,-1.686282,-0.029425621,0,,,
205019,0.003886,-0.002222,0.001898,-1.295567,-1.999194,-1.686496,-0.029429355,0,,,
205119,0.004492,-0.000349,0.002022,-1.293939,-1.999939,-1.686659,-0.0294322,0,,,
205219,0.004575,0.001256,0.002792,-1.292277,-1.999753,-1.686401,-0.029427697,0,,,
205319,0.001348,0.000912,0.00344,-1.292479,-1.999758,-1.685764,-0.029416582,0,,,
205419,0.003911,0.001012,0.003408,-1.291209,-1.999706,-1.685135,-0.029405606,0,,,
205519,0.005425,0.000885,0.002043,-1.289047,-1.999744,-1.685294,-0.02940838,0,,,
205619,0.001448,1.70E-05,0.002627,-1.289174,-2.000269,-1.685118,-0.029405309,0,,,
205719,0.000197,0.001011,0.001986,-1.290007,-2.000234,-1.685319,-0.029408817,0,,,
205819,0.002763,0.001725,0.001173,-1.289353,-1.9998,-1.685995,-0.029420613,0,,,
205919,0.004364,-0.000979,0.002017,-1.287799,-2.000906,-1.686152,-0.029423352,0,,,
206019,0.006173,9.90E-05,0.001429,-1.285197,-2.001401,-1.686659,-0.0294322,0,,,
206119,0.002542,0.000972,0.002975,-1.284705,-2.001375,-1.686294,-0.02942583,0,,,
206219,-5.00E-05,0.000834,0.002926,-1.285698,-2.00143,-1.685952,-0.029419862,0,,,
206319,0.003818,-0.001908,0.001702,-1.28445,-2.003071,-1.686281,-0.029425603,0,,,
206419,0.002813,0.000407,0.00389,-1.283822,-2.003358,-1.685384,-0.029409951,0,,,
206519,4.50E-05,-0.000352,0.00222,-1.284746,-2.004101,-1.685432,-0.029410788,0,,,
206619,0.000343,-0.001105,0.001138,-1.285478,-2.005291,-1.686085,-0.029422183,0,,,
206719,-9.00E-05,-0.001001,0.002199,-1.286478,-2.006408,-1.686135,-0.029423056,0,,,
206819,0.001226,0.002173,0.002867,-1.286737,-2.005698,-1.685842,-0.029417943,0,,,
206919,0.002495,0.00168,0.001686,-1.286248,-2.005284,-1.68622,-0.029424539,0,,,
207019,0.000678,-0.000687,0.003548,-1.286837,-2.006202,-1.685507,-0.029412097,0,,,
207119,0.001376,5.90E-05,0.002255,-1.287,-2.00671,-1.685536,-0.029412603,0,,,
207219,0.002352,0.001583,0.00166,-1.286592,-2.006351,-1.685932,-0.029419513,0,,,
207319,0.00155,-0.000272,0.000664,-1.286623,-2.007069,-1.686866,-0.029435812,0,,,
207419,0.00097,0.003321,0.001462,-1.287002,-2.005718,-1.687401,-0.029445147,0,,,
207519,0.001115,0.002984,0.001954,-1.287307,-2.004552,-1.687649,-0.029449475,0,,,
207619,0.001998,0.000952,0.00049,-1.287077,-2.004569,-1.688711,-0.029468007,0,,,
207719,0.003753,0.001781,0.003,-1.285893,-2.004082,-1.688332,-0.029461393,0,,,
207819,0.003973,0.001326,0.002419,-1.284571,-2.00386,-1.688288,-0.029460626,0,,,
207919,0.001432,-0.000627,0.009213,-1.284842,-2.00467,-1.684326,-0.029391489,0,,,
208019,0.002768,-0.000568,0.010194,-1.284366,-2.005433,-1.679804,-0.02931258,0,,,
208119,0.001798,0.001047,0.00804,-1.284404,-2.005299,-1.676536,-0.029255553,0,,,
208219,0.001794,0.001129,0.007629,-1.284435,-2.005123,-1.673499,-0.029202558,0,,,
208319,0.002963,-0.000114,0.004857,-1.283742,-2.005696,-1.672039,-0.029177081,0,,,
208419,0.004281,-0.00223,0.002053,-1.282239,-2.007515,-1.672159,-0.029179175,0,,,
208519,0.0023,-0.001793,0.002358,-1.281876,-2.009078,-1.672121,-0.029178511,0,,,
208619,0.000248,0.000566,0.001487,-1.28267,-2.009303,-1.672602,-0.029186905,0,,,
208719,0.000398,0.000504,0.002798,-1.283404,-2.009547,-1.672334,-0.029182228,0,,,
208819,0.000665,0.000594,0.001519,-1.283959,-2.009756,-1.672798,-0.029190325,0,,,
208919,0.003123,0.001067,0.001134,-1.283097,-2.009698,-1.673496,-0.029202505,0,,,
209019,0.001872,0.001672,0.002674,-1.282983,-2.009276,-1.673309,-0.029199242,0,,,
209119,0.002584,0.000901,0.00131,-1.282435,-2.009314,-1.673882,-0.029209241,0,,,
209219,0.002271,0.001522,0.003262,-1.282103,-2.008969,-1.67336,-0.029200132,0,,,
209319,0.002229,0.001068,0.002472,-1.281781,-2.008895,-1.673282,-0.029198771,0,,,
209419,0.001492,0.000232,0.002034,-1.28187,-2.009304,-1.673449,-0.029201685,0,,,
209519,2.10E-05,0.00028,0.002613,-1.282816,-2.009679,-1.673279,-0.029198719,0,,,
209619,0.000783,-0.000771,0.002085,-1.283315,-2.010662,-1.673402,-0.029200865,0,,,
209719,0.001107,0.00153,0.001183,-1.283611,-2.01034,-1.674063,-0.029212399,0,,,
209819,0.002097,0.000826,0.0033,-1.28338,-2.010392,-1.673512,-0.029202784,0,,,
209919,0.001998,0.002563,0.001507,-1.283169,-2.009474,-1.673999,-0.029211283,0,,,
210019,0.001325,-3.00E-06,0.001896,-1.283353,-2.010019,-1.67425,-0.029215663,0,,,
210119,-0.001294,0.00062,0.00224,-1.285045,-2.010205,-1.674303,-0.029216587,0,,,
210219,0.002713,0.001335,0.000838,-1.284412,-2.009998,-1.675166,-0.029231647,0,,,
210319,-0.000622,0.000885,0.002944,-1.285733,-2.010025,-1.674804,-0.02922533,0,,,
210419,0.001973,0.000519,0.000731,-1.285524,-2.010288,-1.675714,-0.029241209,0,,,
210519,0.003525,0.000221,0.001759,-1.284447,-2.010707,-1.676039,-0.029246881,0,,,
210619,0.002142,0.000952,0.001044,-1.284144,-2.010717,-1.676779,-0.029259794,0,,,
210719,0.000849,-0.000226,0.001618,-1.284595,-2.011395,-1.677178,-0.029266756,0,,,
210819,0.001313,0.001195,0.001546,-1.284778,-2.011259,-1.677634,-0.029274713,0,,,
210919,0.002313,0.003089,0.002397,-1.284405,-2.01003,-1.677619,-0.029274452,0,,,
211019,0.001135,0.000909,0.003269,-1.284722,-2.010035,-1.677092,-0.029265255,0,,,
211119,0.001587,0.002936,0.000693,-1.284731,-2.008915,-1.67805,-0.029281973,0,,,
211219,0.002472,0.002523,0.003185,-1.284282,-2.007998,-1.677585,-0.029273858,0,,,
211319,0.001531,0.002978,0.002939,-1.284366,-2.006823,-1.677273,-0.029268414,0,,,
211419,0.002605,0.002004,0.001925,-1.283816,-2.006222,-1.677519,-0.029272707,0,,,
211519,0.000399,0.001646,0.00435,-1.284576,-2.005793,-1.676377,-0.029252779,0,,,
211619,0.000499,0.001986,0.003436,-1.285262,-2.005182,-1.67576,-0.029242012,0,,,
211719,0.000256,0.003207,0.003169,-1.286079,-2.003874,-1.675312,-0.029234194,0,,,
211819,0.001551,0.00117,0.001882,-1.286131,-2.003751,-1.675568,-0.029238662,0,,,
211919,0.002819,0.000599,0.001697,-1.285452,-2.003958,-1.675922,-0.029244839,0,,,
212019,0.000674,0.001409,0.004051,-1.286051,-2.00367,-1.674942,-0.029227738,0,,,
212119,0.002434,0.001341,0.002442,-1.285609,-2.003443,-1.674875,-0.029226569,0,,,
212219,0.001569,0.001431,0.002377,-1.285659,-2.003164,-1.674861,-0.029226324,0,,,
212319,0.001906,-0.000836,0.002875,-1.285527,-2.00418,-1.674512,-0.029220234,0,,,
212419,0.00135,0.000548,0.001527,-1.285684,-2.004418,-1.674974,-0.029228296,0,,,
212519,0.003042,0.001017,0.001867,-1.284881,-2.004383,-1.675241,-0.029232955,0,,,
212619,0.001907,0.00013,0.001855,-1.284727,-2.004857,-1.675501,-0.029237492,0,,,
212719,0.002855,0.001576,0.002949,-1.284052,-2.004487,-1.675159,-0.029231525,0,,,
212819,0.002443,0.001817,0.002271,-1.2836,-2.003991,-1.675192,-0.0292321,0,,,
212919,0.001851,0.000731,0.00225,-1.283489,-2.004118,-1.675216,-0.029232519,0,,,
213019,0.000869,0.002431,0.001215,-1.283916,-2.003281,-1.675877,-0.029244054,0,,,
213119,0.001794,0.003298,0.001532,-1.283819,-2.001944,-1.676371,-0.029252674,0,,,
213219,0.000847,0.000858,0.002353,-1.284283,-2.001996,-1.676351,-0.029252325,0,,,
213319,-0.000223,0.002876,0.00174,-1.285346,-2.000898,-1.676716,-0.029258694,0,,,
213419,7.80E-05,0.001496,0.00124,-1.286228,-2.0006,-1.677337,-0.029269531,0,,,
213519,1.60E-05,0.001934,0.000312,-1.287124,-2.000059,-1.678515,-0.029290087,0,,,
213619,0.002335,0.000861,0.001062,-1.286705,-2.000123,-1.679257,-0.029303035,0,,,
213719,0.002261,0.000573,0.002694,-1.286365,-2.000334,-1.679037,-0.029299196,0,,,
213819,0.004484,-0.0002,7.70E-05,-1.284696,-2.001019,-1.680318,-0.029321549,0,,,
213919,-0.000114,0.002054,0.001266,-1.285686,-2.000399,-1.680943,-0.029332455,0,,,
214019,9.90E-05,0.000942,0.001589,-1.286567,-2.000417,-1.68133,-0.029339209,0,,,
214119,-0.001355,-0.000289,0.001596,-1.288277,-2.001136,-1.681735,-0.029346276,0,,,
214219,0.000914,0.000284,0.001132,-1.288677,-2.001534,-1.682405,-0.029357967,0,,,
214319,-7.50E-05,0.001475,0.001037,-1.28964,-2.001248,-1.683164,-0.029371212,0,,,
214419,0.000894,0.002409,0.002028,-1.290069,-2.000417,-1.683348,-0.029374423,0,,,
214519,0.002198,0.001811,0.001022,-1.289728,-1.99994,-1.684113,-0.029387772,0,,,
214619,0.002147,0.002285,0.003345,-1.289465,-1.999162,-1.68354,-0.029377773,0,,,
214719,0.005097,0.001456,0.003962,-1.287526,-1.998852,-1.682597,-0.029361318,0,,,
214819,0.001131,0.001772,0.001875,-1.287816,-1.998386,-1.682867,-0.029366029,0,,,
214919,0.000211,0.002263,0.00245,-1.288644,-1.997634,-1.6828,-0.02936486,0,,,
215019,0.00188,0.001432,0.002419,-1.288517,-1.997358,-1.682745,-0.0293639,0,,,
215119,0.002264,0.001938,0.003188,-1.288183,-1.996782,-1.682257,-0.029355385,0,,,
215219,0.003595,-0.002814,0.002985,-1.287086,-1.998928,-1.681838,-0.029348073,0,,,
215319,0.001726,-0.00081,0.002681,-1.287053,-1.999931,-1.681612,-0.029344129,0,,,
215419,0.003217,0.001513,0.001333,-1.286133,-1.999619,-1.682194,-0.029354285,0,,,
215519,0.002514,9.90E-05,0.00123,-1.285619,-2.000125,-1.682795,-0.029364773,0,,,
215619,0.000445,0.00125,0.002244,-1.286306,-1.999953,-1.682857,-0.029365855,0,,,
215719,0.001779,-0.000176,0.002302,-1.286231,-2.000599,-1.68285,-0.029365733,0,,,
215819,0.001125,-0.000905,0.001876,-1.286525,-2.001668,-1.683092,-0.029369955,0,,,
215919,0.003413,-0.002308,0.002623,-1.285518,-2.003528,-1.682896,-0.029366535,0,,,
216019,0.002,0.000859,0.002624,-1.285324,-2.003576,-1.682727,-0.029363586,0,,,
216119,6.20E-05,0.001333,0.002583,-1.286243,-2.003356,-1.682565,-0.029360759,0,,,
216219,0.00132,-0.000172,0.000235,-1.286393,-2.004028,-1.683738,-0.029381228,0,,,
216319,0.003255,0.000227,0.002166,-1.285468,-2.004445,-1.683824,-0.029382729,0,,,
216419,0.001131,-7.00E-05,0.00272,-1.285776,-2.005027,-1.683573,-0.029378349,0,,,
216519,-0.000813,-0.0003,0.001485,-1.287171,-2.005754,-1.684043,-0.02938655,0,,,
216619,0.001382,-6.70E-05,0.002883,-1.287335,-2.006327,-1.683731,-0.029381106,0,,,
216719,0.003151,0.000806,0.001702,-1.286466,-2.006423,-1.684062,-0.029386882,0,,,
216819,0.003137,0.000492,0.00184,-1.285604,-2.006693,-1.684336,-0.029391663,0,,,
216919,0.00114,0.000264,0.001814,-1.285886,-2.007094,-1.684615,-0.029396532,0,,,
217019,-0.000272,5.60E-05,0.001812,-1.286976,-2.007614,-1.684893,-0.029401383,0,,,
217119,0.002494,0.000139,-8.10E-05,-1.286444,-2.008107,-1.686282,-0.029425621,0,,,
217219,0.000818,-0.001019,0.000457,-1.286889,-2.00926,-1.687325,-0.029443821,0,,,
217319,-0.001831,-0.000632,0.00136,-1.288866,-2.010176,-1.68787,-0.029453332,0,,,
217419,0.002119,0.00092,0.001734,-1.288588,-2.010204,-1.688193,-0.029458968,0,,,
217519,-7.60E-05,0.001412,0.001938,-1.289573,-2.009946,-1.688409,-0.029462737,0,,,
217619,0.002965,0.000482,0.001287,-1.288799,-2.010229,-1.688983,-0.029472753,0,,,
217719,0.004477,0.000312,0.002892,-1.287192,-2.010588,-1.688651,-0.02946696,0,,,
217819,0.001984,0.002985,0.001995,-1.286989,-2.009425,-1.688879,-0.029470939,0,,,
217919,0.001864,0.002625,0.002391,-1.286867,-2.008467,-1.688857,-0.029470555,0,,,
218019,0.003078,0.002719,0.002131,-1.286045,-2.007461,-1.688974,-0.029472596,0,,,
218119,0.002573,0.001853,0.002374,-1.285514,-2.006946,-1.688958,-0.029472317,0,,,
218219,0.001225,0.000688,0.001505,-1.285736,-2.007112,-1.689406,-0.029480135,0,,,
218319,0.001236,0.001478,0.001268,-1.28595,-2.006828,-1.690008,-0.02949064,0,,,
218419,0.001851,0.001054,0.001767,-1.285817,-2.006779,-1.690334,-0.029496328,0,,,
218519,0.001238,-0.000801,0.001429,-1.286035,-2.007801,-1.690802,-0.029504495,0,,,
218619,-0.0002,-0.001717,0.001104,-1.28707,-2.00935,-1.691452,-0.029515837,0,,,
218719,-0.000124,0.002466,0.001013,-1.288059,-2.008504,-1.692205,-0.029528977,0,,,
218819,-0.000474,0.000482,0.000788,-1.28924,-2.008798,-1.69306,-0.029543897,0,,,
218919,0.000412,0.003207,0.000517,-1.289909,-2.007535,-1.694109,-0.029562202,0,,,
219019,0.001366,0.000855,0.001488,-1.290051,-2.007605,-1.69458,-0.029570421,0,,,
219119,0.001143,0.001402,0.002289,-1.290338,-2.007353,-1.694589,-0.029570578,0,,,
219219,0.000858,0.001532,0.001533,-1.290774,-2.007035,-1.695049,-0.029578605,0,,,
219319,0.001602,0.002031,0.0034,-1.290824,-2.006412,-1.694408,-0.02956742,0,,,
219419,0.00082,0.000712,0.002146,-1.291292,-2.006555,-1.694497,-0.029568973,0,,,
219519,-0.001129,0.000367,0.000641,-1.292844,-2.006915,-1.695457,-0.029585725,0,,,
219619,0.002197,0.00049,0.001368,-1.292506,-2.007196,-1.696005,-0.029595287,0,,,
219719,0.000583,0.000882,0.001486,-1.293094,-2.007249,-1.696493,-0.029603803,0,,,
219819,0.001685,0.00253,0.00024,-1.293032,-2.006378,-1.697699,-0.029624848,0,,,
219919,-0.000373,0.002851,0.002216,-1.294186,-2.0053,-1.697749,-0.02962572,0,,,
220019,-9.90E-05,0.004479,0.001747,-1.295165,-2.003286,-1.698157,-0.02963284,0,,,
220119,1.80E-05,0.002432,0.001798,-1.296087,-2.002452,-1.698453,-0.029638005,0,,,
220219,0.000622,0.000515,0.00161,-1.296651,-2.00271,-1.698886,-0.029645561,0,,,
220319,0.002572,0.00179,0.002204,-1.296122,-2.00224,-1.698952,-0.029646712,0,,,
220419,0.001052,0.001767,0.002996,-1.296479,-2.001775,-1.698524,-0.029639244,0,,,
220519,0.001225,0.000531,0.002288,-1.29672,-2.002025,-1.698509,-0.029638982,0,,,
220619,0.002091,0.00304,0.001974,-1.296446,-2.000832,-1.698762,-0.029643397,0,,,
220719,-0.001143,0.003024,0.001419,-1.298021,-1.999665,-1.699281,-0.029652453,0,,,
220819,-0.000119,0.002374,0.000376,-1.29899,-1.998882,-1.700404,-0.02967205,0,,,
220919,0.001004,0.002116,0.00165,-1.299345,-1.998233,-1.700782,-0.029678646,0,,,
221019,0.001342,0.000999,0.002859,-1.299528,-1.998199,-1.700502,-0.02967376,0,,,
221119,0.002237,0.000771,0.002115,-1.299189,-1.998314,-1.700582,-0.029675156,0,,,
221219,0.001453,0.001259,0.002523,-1.299297,-1.998132,-1.700517,-0.029674022,0,,,
221319,0.003311,0.002549,0.003542,-1.298365,-1.997209,-1.699811,-0.029661702,0,,,
221419,0.002329,-9.00E-05,0.002103,-1.297972,-1.997813,-1.699917,-0.029663552,0,,,
221519,0.001375,0.000233,0.001379,-1.298112,-1.998245,-1.700427,-0.029672451,0,,,
221619,0.002635,-0.001092,0.002314,-1.297537,-1.999412,-1.700452,-0.029672887,0,,,
221719,-0.000194,-0.000833,-0.001189,-1.298521,-2.000486,-1.702438,-0.029707543,0,,,
221819,0.00032,0.000139,0.000413,-1.299234,-2.000978,-1.703523,-0.029726476,0,,,
221919,0.000268,0.000506,0.001929,-1.30001,-2.001241,-1.703763,-0.029730664,0,,,
222019,-0.000485,0.0017,0.000858,-1.301199,-2.000839,-1.704609,-0.029745427,0,,,
222119,7.30E-05,0.000523,0.00117,-1.302072,-2.001105,-1.705253,-0.029756665,0,,,
222219,0.001106,0.003084,-0.00036,-1.302323,-1.999925,-1.706814,-0.029783904,0,,,
222319,0.003966,0.001235,0.002328,-1.300999,-1.999778,-1.706739,-0.029782596,0,,,
222419,0.003305,0.002787,0.00078,-1.300015,-1.998754,-1.707647,-0.02979844,0,,,
222519,0.001629,0.003099,0.001352,-1.299998,-1.997539,-1.708257,-0.029809085,0,,,
222619,0.003253,0.002719,0.002267,-1.299084,-1.996541,-1.708268,-0.029809277,0,,,
222719,0.001413,0.002312,0.002649,-1.299212,-1.995761,-1.708116,-0.029806624,0,,,
222819,0.003723,0.001344,0.002052,-1.29802,-1.995557,-1.708213,-0.029808317,0,,,
222919,0.001896,0.001108,0.002613,-1.297888,-1.995479,-1.708,-0.0298046,0,,,
223019,0.002624,-0.000126,0.001683,-1.297307,-1.996108,-1.708375,-0.029811144,0,,,
223119,0.001027,-0.000673,0.002885,-1.297666,-1.99704,-1.708023,-0.029805001,0,,,
223219,0.000562,0.000144,-4.20E-05,-1.29824,-1.997544,-1.709355,-0.029828245,0,,,
223319,0.001953,0.000686,0.001271,-1.298037,-1.997717,-1.70995,-0.029838628,0,,,
223419,0.001088,0.003041,0.000913,-1.298323,-1.99655,-1.71075,-0.029852588,0,,,
223519,0.001174,0.004419,0.000451,-1.298551,-1.994603,-1.711803,-0.029870962,0,,,
223619,0.000797,0.001744,0.001638,-1.299027,-1.994177,-1.71212,-0.029876494,0,,,
223719,0.000549,0.002615,0.001245,-1.299633,-1.993252,-1.712702,-0.02988665,0,,,
223819,0.002933,0.000478,0.002073,-1.298888,-1.993536,-1.712821,-0.029888726,0,,,
223919,0.002831,-0.001556,0.00121,-1.298184,-1.994995,-1.713416,-0.029899109,0,,,
224019,0.004907,-0.000996,0.002104,-1.296304,-1.996119,-1.713506,-0.02990068,0,,,
224119,0.002212,-0.001371,0.001075,-1.29595,-1.997468,-1.71422,-0.029913139,0,,,
224219,0.000562,0.000151,0.00203,-1.296557,-1.997937,-1.714365,-0.029915669,0,,,
224319,0.001273,0.001951,0.003363,-1.296781,-1.997357,-1.713775,-0.029905374,0,,,
224419,0.000948,0.000609,0.00275,-1.297181,-1.99755,-1.713546,-0.029901378,0,,,
224519,0.001146,0.002701,0.000851,-1.297421,-1.996558,-1.714498,-0.02991799,0,,,
224619,-0.001991,0.002031,0.001158,-1.299478,-1.99597,-1.715118,-0.029928809,0,,,
224719,-0.000444,0.001987,0.000215,-1.300627,-1.995417,-1.716307,-0.029949557,0,,,
224819,0.002428,0.001678,0.000193,-1.300132,-1.995039,-1.717512,-0.029970584,0,,,
224919,0.00176,0.001045,0.001327,-1.30005,-1.995016,-1.718017,-0.029979397,0,,,
225019,0.002257,0.000319,0.002214,-1.299691,-1.995391,-1.718047,-0.02997992,0,,,
225119,0.001735,0.001135,0.002146,-1.299629,-1.995296,-1.71815,-0.029981718,0,,,
225219,0.002204,0.003445,0.002921,-1.29931,-1.993869,-1.717823,-0.029976011,0,,,
225319,0.001961,0.000487,0.003369,-1.299154,-1.994137,-1.717185,-0.029964878,0,,,
225419,-0.001024,0.000631,0.001108,-1.300663,-1.994355,-1.717809,-0.029975767,0,,,
225519,0.002625,0.00155,0.001801,-1.300098,-1.994042,-1.718003,-0.029979152,0,,,
225619,0.003386,4.00E-05,0.002298,-1.299091,-1.994569,-1.718005,-0.029979187,0,,,
225719,0.001861,0.00075,0.001365,-1.298947,-1.994712,-1.718494,-0.02998772,0,,,
225819,-0.002544,0.001401,0.003196,-1.30137,-1.994461,-1.717955,-0.029978315,0,,,
225919,0.000559,7.10E-05,0.00325,-1.302001,-1.99496,-1.717406,-0.029968735,0,,,
226019,0.003444,-0.000821,-0.001126,-1.300895,-1.996023,-1.719392,-0.03000339,0,,,
226119,0.000481,0.000801,-0.000175,-1.301503,-1.996153,-1.720812,-0.030028169,0,,,
226219,-0.000301,0.001852,0.002039,-1.302625,-1.99567,-1.720882,-0.030029391,0,,,
226319,-0.000726,0.001311,0.000211,-1.30394,-1.995513,-1.722021,-0.030049266,0,,,
226419,0.001846,0.00075,0.001443,-1.303793,-1.995649,-1.722504,-0.030057695,0,,,
226519,0.003633,0.00059,0.002253,-1.30264,-1.995867,-1.722512,-0.030057834,0,,,
226619,0.002279,-0.001124,0.001505,-1.302239,-1.997071,-1.722971,-0.030065844,0,,,
226719,0.002774,0.000122,0.002629,-1.301593,-1.997555,-1.722761,-0.030062179,0,,,
226819,0.000206,0.001079,0.003204,-1.30242,-1.997471,-1.722305,-0.030054222,0,,,
226919,0.001821,0.004023,0.001647,-1.302295,-1.995733,-1.722722,-0.030061499,0,,,
227019,0.000903,0.003824,0.001325,-1.302694,-1.99412,-1.723268,-0.030071027,0,,,
227119,0.000962,0.001783,0.003217,-1.30309,-1.993643,-1.722766,-0.030062267,0,,,
227219,0.00329,0.001392,0.00172,-1.302115,-1.993398,-1.72317,-0.030069317,0,,,
227319,0.000733,0.0006,0.002272,-1.302626,-1.99361,-1.723191,-0.030069683,0,,,
227419,0.001376,0.00099,0.000629,-1.302725,-1.99361,-1.724229,-0.030087796,0,,,
227519,0.001361,0.000714,0.001573,-1.302873,-1.993776,-1.7246,-0.03009427,0,,,
227619,0.001893,0.001373,0.00118,-1.302718,-1.993585,-1.725104,-0.030103065,0,,,
227719,0.001196,0.001783,0.001449,-1.30295,-1.993143,-1.725556,-0.030110952,0,,,
227819,-0.001729,0.003382,0.000647,-1.30484,-1.991792,-1.726516,-0.030127704,0,,,
227919,-0.00066,0.0014,0.001531,-1.306145,-1.991568,-1.726915,-0.030134667,0,,,
228019,-8.30E-05,0.002647,0.001456,-1.307094,-1.99061,-1.7275,-0.030144875,0,,,
228119,0.00227,0.002806,0.001273,-1.306703,-1.989579,-1.728091,-0.030155188,0,,,
228219,0.002762,0.001428,0.00128,-1.306018,-1.989328,-1.72872,-0.030166164,0,,,
228319,0.000701,0.000979,0.002203,-1.306554,-1.98934,-1.728692,-0.030165675,0,,,
228419,0.000983,2.10E-05,0.00168,-1.306897,-1.989892,-1.729044,-0.030171818,0,,,
228519,0.002326,0.001661,0.001056,-1.306467,-1.989515,-1.729791,-0.030184853,0,,,
228619,0.002574,0.00435,0.001703,-1.305901,-1.987591,-1.730181,-0.030191658,0,,,
228719,-0.000285,0.000918,0.002432,-1.30699,-1.987623,-1.730097,-0.030190193,0,,,
228819,0.001366,0.00201,0.002897,-1.307156,-1.987036,-1.729706,-0.03018337,0,,,
228919,0.002812,0.001702,0.000931,-1.306432,-1.986626,-1.730594,-0.030198865,0,,,
229019,0.000292,0.001058,0.001586,-1.307165,-1.986583,-1.731065,-0.030207084,0,,,
229119,0.002332,-0.002031,0.003372,-1.306779,-1.988303,-1.730379,-0.030195114,0,,,
229219,0.000809,0.001885,0.002122,-1.307228,-1.987784,-1.730523,-0.030197626,0,,,
229319,0.001782,0.001636,0.001801,-1.307121,-1.987414,-1.730831,-0.030203001,0,,,
229419,0.001085,0.000186,0.001268,-1.307406,-1.987884,-1.731414,-0.030213174,0,,,
229519,0.000693,0.000458,0.000969,-1.307923,-1.988218,-1.732078,-0.030224761,0,,,
229619,0.001378,0.003636,1.20E-05,-1.308003,-1.986721,-1.733464,-0.030248947,0,,,
229719,0.002662,-0.00139,0.000368,-1.307359,-1.988106,-1.734516,-0.030267304,0,,,
229819,6.90E-05,-0.000228,0.000709,-1.308218,-1.988824,-1.735416,-0.030283009,0,,,
229919,0.001846,0.001514,0.003627,-1.308123,-1.988515,-1.734577,-0.030268369,0,,,
230019,0.001287,-0.000183,0.002785,-1.3083,-1.989159,-1.734372,-0.030264791,0,,,
230119,0.00065,8.90E-05,-0.000349,-1.308792,-1.989697,-1.735902,-0.03029149,0,,,
230219,0.001699,0.001001,0.003873,-1.308763,-1.98966,-1.735014,-0.030275994,0,,,
230319,0.002193,-0.000467,0.001725,-1.308416,-1.990496,-1.735315,-0.030281247,0,,,
230419,0.001383,0.001117,0.001556,-1.308537,-1.990439,-1.735668,-0.030287407,0,,,
230519,0.001891,0.001015,0.000827,-1.308369,-1.990456,-1.73642,-0.030300529,0,,,
230619,-0.000335,0.001524,0.001341,-1.309469,-1.990165,-1.736922,-0.030309289,0,,,
230719,0.000946,0.001318,0.002039,-1.309841,-1.989978,-1.737063,-0.030311749,0,,,
230819,0.001099,0.000128,0.000516,-1.310096,-1.990487,-1.738105,-0.030329932,0,,,
230919,0.000487,0.002767,0.000309,-1.310703,-1.989497,-1.739226,-0.030349494,0,,,
231019,0.001862,-0.000833,0.003484,-1.310569,-1.990515,-1.738574,-0.030338116,0,,,
231119,0.001559,0.001303,0.001739,-1.310579,-1.990338,-1.738896,-0.030343735,0,,,
231219,0.002426,0.000989,0.001348,-1.310101,-1.990357,-1.739395,-0.030352443,0,,,
231319,0.00083,0.002474,0.000856,-1.310515,-1.989523,-1.740248,-0.030367328,0,,,
231419,0.001255,0.002996,0.002355,-1.310712,-1.988371,-1.740273,-0.030367764,0,,,
231519,0.000446,0.002187,0.0025,-1.311371,-1.987672,-1.740213,-0.030366717,0,,,
231619,0.000862,-0.000216,0.002375,-1.311801,-1.988374,-1.740046,-0.030363803,0,,,
231719,0.003243,0.001069,0.000607,-1.310841,-1.988364,-1.74092,-0.030379054,0,,,
231819,0.001346,0.00061,0.001231,-1.310955,-1.988581,-1.741588,-0.030390711,0,,,
231919,0.002758,0.000495,0.001078,-1.310276,-1.988886,-1.74226,-0.030402437,0,,,
232019,0.000157,0.000576,0.001481,-1.311057,-1.989101,-1.742901,-0.030413622,0,,,
232119,0.002076,0.001192,0.000988,-1.310729,-1.988976,-1.743814,-0.030429554,0,,,
232219,0.001635,0.000953,0.002051,-1.310697,-1.988995,-1.743958,-0.030432067,0,,,
232319,0.003253,0.001991,0.001296,-1.309735,-1.988441,-1.744511,-0.030441717,0,,,
232419,0.003249,0.000876,0.00193,-1.30879,-1.988519,-1.744675,-0.030444579,0,,,
232519,0.001394,7.30E-05,0.001469,-1.30887,-1.989033,-1.745255,-0.0304547,0,,,
232619,0.003928,0.00087,0.001811,-1.307526,-1.989109,-1.745541,-0.03045969,0,,,
232719,0.002794,0.002933,0.003863,-1.306874,-1.987982,-1.744629,-0.030443776,0,,,
232819,0.001524,-0.00046,0.001587,-1.306931,-1.988853,-1.744802,-0.030446795,0,,,
232919,0.002244,-0.000376,-0.00066,-1.306507,-1.98967,-1.746536,-0.030477053,0,,,
233019,0.000186,0.000897,0.001211,-1.307316,-1.989763,-1.747004,-0.03048522,0,,,
233119,-0.000238,0.00218,0.00178,-1.308361,-1.989087,-1.74732,-0.030490734,0,,,
233219,-0.000189,0.001862,0.000449,-1.309325,-1.988596,-1.748497,-0.030511273,0,,,
233319,0.002077,0.001151,0.001392,-1.309021,-1.988507,-1.749068,-0.030521237,0,,,
233419,0.002158,0.000436,0.0023,-1.308705,-1.988824,-1.749052,-0.030520957,0,,,
233519,0.001012,0.002666,9.30E-05,-1.308999,-1.987906,-1.750235,-0.030541601,0,,,
233619,0.000668,0.000865,0.002019,-1.309532,-1.987989,-1.750386,-0.030544236,0,,,
233719,0.000323,-0.000269,0.002926,-1.310247,-1.988688,-1.750089,-0.030539053,0,,,
233819,0.002261,0.002121,0.001024,-1.309842,-1.988064,-1.750773,-0.030550989,0,,,
233919,0.000904,0.000264,0.001843,-1.310221,-1.988483,-1.751048,-0.030555788,0,,,
234019,0.001242,-0.000715,0.001435,-1.310408,-1.989481,-1.751465,-0.030563064,0,,,
234119,0.00142,0.000289,0.001198,-1.310472,-1.98989,-1.752108,-0.030574285,0,,,
234219,0.000958,0.002146,0.001819,-1.310838,-1.989245,-1.752329,-0.030578141,0,,,
234319,0.001211,0.003291,0.002237,-1.311066,-1.987947,-1.752271,-0.030577129,0,,,
234419,0.00179,0.000151,0.000415,-1.31091,-1.988447,-1.753379,-0.030596464,0,,,
234519,0.000283,0.001274,0.00098,-1.311631,-1.988303,-1.754131,-0.030609586,0,,,
234619,0.001121,0.001986,0.000894,-1.311881,-1.98777,-1.754808,-0.0306214,0,,,
234719,-0.000278,0.002863,0.001263,-1.31295,-1.986723,-1.755337,-0.030630631,0,,,
234819,0.002653,0.001869,0.002467,-1.312352,-1.986228,-1.755156,-0.030627472,0,,,
234919,0.002276,-0.00055,0.001481,-1.311929,-1.987096,-1.755747,-0.030637785,0,,,
235019,0.002768,-0.000332,0.003578,-1.311284,-1.987833,-1.75501,-0.030624925,0,,,
235119,0.002703,-4.80E-05,0.00127,-1.310617,-1.98844,-1.755642,-0.030635953,0,,,
235219,0.003325,-0.001073,0.002178,-1.309616,-1.989633,-1.755614,-0.030635464,0,,,
235319,0.002604,-0.000584,0.000692,-1.309011,-1.990573,-1.756442,-0.030649913,0,,,
235419,-0.000424,-0.000489,0.001945,-1.310157,-1.991425,-1.756653,-0.030653595,0,,,
235519,0.001553,-0.000584,-0.000869,-1.310133,-1.9924,-1.758266,-0.030681742,0,,,
235619,0.001961,0.001515,0.001457,-1.309899,-1.992103,-1.758814,-0.030691304,0,,,
235719,0.002029,0.001152,0.00095,-1.309606,-1.99201,-1.75974,-0.030707463,0,,,
235819,0.001059,-0.000522,0.002141,-1.309913,-1.992888,-1.759777,-0.030708109,0,,,
235919,0.002267,0.003141,0.003562,-1.309607,-1.991705,-1.758684,-0.030689036,0,,,
236019,0.004708,0.002057,0.00067,-1.307783,-1.991107,-1.759712,-0.030706974,0,,,
236119,-2.10E-05,0.002123,0.001893,-1.308696,-1.990473,-1.759955,-0.030711215,0,,,
236219,0.001772,0.001688,0.0013,-1.308557,-1.990078,-1.760605,-0.030722557,0,,,
236319,0.002315,0.000289,0.00105,-1.308117,-1.990501,-1.761233,-0.030733516,0,,,
236419,0.004162,0.002017,0.003379,-1.306648,-1.989898,-1.760665,-0.030723604,0,,,
236519,0.001276,0.002035,0.003591,-1.306847,-1.989288,-1.759927,-0.030710726,0,,,
236619,0.000591,0.00156,0.000945,-1.307417,-1.988998,-1.760675,-0.030723779,0,,,
236719,0.003121,0.001049,0.002015,-1.306574,-1.989021,-1.760515,-0.030720987,0,,,
236819,0.002395,0.001012,0.000147,-1.306083,-1.989071,-1.76154,-0.030738873,0,,,
236919,0.000913,0.001036,0.001858,-1.306455,-1.989055,-1.761823,-0.030743811,0,,,
237019,-0.00043,0.001111,0.000995,-1.307606,-1.98903,-1.762446,-0.030754683,0,,,
237119,0.000763,0.001421,0.001111,-1.30808,-1.988833,-1.762964,-0.030763722,0,,,
237219,0.002037,0.002652,0.001851,-1.307832,-1.987917,-1.763115,-0.030766357,0,,,
237319,-0.000751,0.002836,0.00123,-1.309145,-1.986886,-1.763708,-0.030776705,0,,,
237419,0.000118,0.002537,0.001798,-1.309959,-1.985985,-1.764194,-0.030785185,0,,,
237519,0.000683,0.002883,0.002606,-1.310461,-1.984892,-1.764089,-0.030783353,0,,,
237619,0.003855,0.001609,0.002222,-1.30916,-1.984549,-1.764106,-0.03078365,0,,,
237719,0.002944,0.001638,0.000474,-1.308358,-1.984231,-1.765017,-0.030799547,0,,,
237819,0.003087,0.000233,0.000945,-1.307495,-1.984706,-1.765702,-0.0308115,0,,,
237919,0.003023,0.002708,0.003352,-1.306681,-1.983723,-1.765056,-0.030800227,0,,,
238019,0.00178,0.003202,0.001438,-1.30656,-1.982472,-1.765627,-0.030810191,0,,,
238119,0.001684,9.10E-05,0.001022,-1.306471,-1.983005,-1.766374,-0.030823226,0,,,
238219,-0.000475,0.00225,0.002165,-1.307649,-1.982308,-1.766384,-0.030823401,0,,,
238319,0.000352,0.00263,0.002045,-1.308376,-1.981421,-1.766356,-0.030822912,0,,,
238419,0.001739,0.000467,-0.000239,-1.308252,-1.981788,-1.767626,-0.030845074,0,,,
238519,0.002803,0.001712,0.001467,-1.307553,-1.981425,-1.767928,-0.030850344,0,,,
238619,0.000667,0.002279,0.000879,-1.308062,-1.980748,-1.768537,-0.030860971,0,,,
238719,-0.000111,0.001709,0.002438,-1.309061,-1.980371,-1.768294,-0.03085673,0,,,
238819,0.000349,-0.000111,0.000664,-1.309769,-1.981065,-1.768997,-0.030868998,0,,,
238919,0.002733,0.001453,0.001075,-1.309068,-1.980797,-1.769842,-0.030883743,0,,,
239019,0.000848,0.000223,0.000932,-1.309463,-1.981283,-1.770459,-0.03089451,0,,,
239119,0.000955,0.00043,0.00253,-1.309839,-1.981624,-1.770198,-0.030889955,0,,,
239219,0.001405,0.002952,0.003111,-1.309908,-1.980459,-1.769973,-0.030886029,0,,,
239319,0.002322,0.004174,0.000848,-1.309452,-1.97866,-1.770874,-0.030901751,0,,,
239419,0.001707,0.001862,0.001883,-1.309383,-1.978186,-1.771067,-0.030905119,0,,,
239519,0.000756,0.001782,0.002508,-1.309875,-1.977747,-1.770903,-0.030902257,0,,,
239619,0.001767,0.002671,0.001919,-1.309825,-1.976845,-1.77088,-0.030901856,0,,,
239719,0.001065,0.003177,0.002106,-1.310179,-1.975674,-1.770581,-0.030896638,0,,,
239819,0.002581,0.000312,0.000496,-1.30953,-1.976066,-1.771768,-0.030917352,0,,,
239919,0.000827,0.001801,0.001688,-1.30996,-1.975636,-1.772024,-0.030921819,0,,,
240019,0.004821,0.00145,0.003959,-1.308138,-1.975367,-1.771035,-0.030904561,0,,,
240119,0.001907,0.001893,0.002781,-1.307985,-1.974886,-1.770556,-0.030896202,0,,,
240219,-0.000652,0.000919,0.001789,-1.309298,-1.974998,-1.770474,-0.030894771,0,,,
240319,-0.00048,0.002054,0.001424,-1.31048,-1.974432,-1.770849,-0.030901315,0,,,
240419,-0.000888,0.002639,0.002013,-1.311882,-1.97349,-1.771157,-0.03090669,0,,,
240519,0.000726,0.001496,0.001932,-1.31237,-1.973229,-1.771253,-0.030908365,0,,,
240619,0.001462,0.001677,0.001479,-1.312444,-1.972869,-1.77166,-0.030915467,0,,,
240719,0.002527,0.001728,0.000479,-1.311866,-1.972499,-1.772565,-0.030931259,0,,,
240819,4.00E-05,0.000249,0.00176,-1.312768,-1.972982,-1.77259,-0.030931696,0,,,
240919,0.001968,-0.001497,0.001084,-1.312536,-1.974452,-1.773151,-0.030941485,0,,,
241019,0.002235,0.001682,0.001414,-1.312123,-1.974078,-1.773661,-0.030950384,0,,,
241119,0.002169,0.00026,0.000199,-1.311728,-1.974516,-1.774987,-0.030973523,0,,,
241219,0.000617,0.000542,0.00204,-1.312254,-1.974766,-1.775272,-0.030978496,0,,,
241319,-0.00075,-8.00E-06,0.00334,-1.313597,-1.97532,-1.774751,-0.030969405,0,,,
241419,0.002454,0.001823,0.001333,-1.313026,-1.974822,-1.775598,-0.030984185,0,,,
241519,0.002471,0.001465,0.002471,-1.312534,-1.974593,-1.775287,-0.030978758,0,,,
241619,0.001697,8.10E-05,0.001339,-1.312453,-1.975138,-1.77581,-0.030987885,0,,,
241719,0.000165,0.001968,0.001795,-1.313222,-1.974576,-1.776254,-0.030995632,0,,,
241819,0.002097,0.002558,0.003346,-1.312966,-1.973715,-1.775442,-0.030981463,0,,,
241919,0.002799,0.002958,0.002082,-1.312312,-1.972637,-1.775394,-0.030980625,0,,,
242019,0.002564,0.002684,0.002333,-1.311773,-1.971706,-1.775213,-0.030977467,0,,,
242119,0.002148,0.001689,0.002288,-1.311469,-1.97134,-1.775076,-0.030975076,0,,,
242219,0.000702,0.000772,0.002621,-1.311982,-1.971482,-1.774835,-0.030970871,0,,,
242319,0.00105,1.40E-05,0.001363,-1.312263,-1.972073,-1.775312,-0.030979194,0,,,
242419,0.00098,0.001262,0.001707,-1.312579,-1.971924,-1.775722,-0.030986349,0,,,
242519,0.001443,0.002078,0.00155,-1.312658,-1.971351,-1.77602,-0.030991549,0,,,
242619,-0.00052,0.002378,0.001325,-1.313833,-1.970569,-1.776654,-0.031002612,0,,,
242719,0.000486,0.00196,0.000995,-1.314408,-1.970015,-1.777608,-0.03101926,0,,,
242819,-0.000123,0.002156,0.00282,-1.31535,-1.969317,-1.777565,-0.031018509,0,,,
242919,0.002544,0.00108,0.00131,-1.314749,-1.969283,-1.778192,-0.03102945,0,,,
243019,0.001259,0.002429,0.002073,-1.314903,-1.968472,-1.778323,-0.031031736,0,,,
243119,-0.000952,0.001267,0.001526,-1.316363,-1.968383,-1.778489,-0.031034633,0,,,
243219,0.001251,0.001871,0.001216,-1.31653,-1.967935,-1.778931,-0.031042346,0,,,
243319,0.002813,0.000354,0.002168,-1.315771,-1.968283,-1.779158,-0.031046307,0,,,
243419,0.001662,0.001688,0.000873,-1.315696,-1.96792,-1.779952,-0.031060162,0,,,
243519,0.001636,-0.000399,0.002181,-1.315669,-1.968747,-1.779928,-0.031059744,0,,,
243619,0.001275,0.001114,0.002195,-1.315831,-1.968698,-1.779946,-0.031060058,0,,,
243719,0.003044,0.003106,0.002731,-1.314974,-1.967474,-1.779817,-0.031057807,0,,,
243819,0.001006,0.002735,0.002792,-1.315328,-1.966509,-1.779436,-0.031051158,0,,,
243919,0.001377,0.000827,0.001703,-1.315422,-1.966615,-1.779835,-0.031058121,0,,,
244019,0.001494,0.002913,0.001221,-1.31544,-1.965557,-1.780394,-0.031067875,0,,,
244119,0.001572,0.002489,0.003142,-1.315444,-1.964691,-1.780019,-0.031061332,0,,,
244219,0.002833,0.001025,0.001649,-1.314672,-1.964671,-1.780566,-0.031070877,0,,,
244319,0.001633,0.000617,0.002809,-1.314715,-1.964999,-1.779477,-0.031051874,0,,,
244419,0.00027,0.000396,0.002631,-1.315462,-1.965374,-1.779136,-0.031045923,0,,,
244519,0.002355,0.000871,0.000943,-1.314991,-1.965473,-1.77995,-0.031060128,0,,,
244619,0.001276,0.000429,0.001321,-1.31512,-1.965817,-1.780531,-0.031070266,0,,,
244719,0.000255,0.001211,0.00177,-1.315876,-1.965756,-1.780581,-0.031071138,0,,,
244819,6.80E-05,0.001129,0.001591,-1.316662,-1.965634,-1.781379,-0.031085064,0,,,
244919,0.000706,0.002255,0.001849,-1.317116,-1.964891,-1.781893,-0.031094033,0,,,
245019,0.002282,0.001954,0.001378,-1.316687,-1.964382,-1.782288,-0.031100926,0,,,
245119,0.002288,0.002901,0.001741,-1.316246,-1.963313,-1.782591,-0.031106213,0,,,
245219,0.000992,0.001535,0.001909,-1.31656,-1.963026,-1.782849,-0.031110715,0,,,
245319,0.002674,0.000825,0.003239,-1.315935,-1.96312,-1.782336,-0.031101763,0,,,
245419,0.00047,0.000879,0.000979,-1.316486,-1.96318,-1.783304,-0.031118655,0,,,
245519,0.002117,0.000932,0.003745,-1.316214,-1.963213,-1.782464,-0.031103997,0,,,
245619,0.00022,0.00066,-0.000243,-1.316893,-1.963424,-1.784086,-0.031132301,0,,,
245719,0.003379,0.002743,0.001607,-1.315802,-1.962415,-1.784719,-0.031143347,0,,,
245819,0.000286,-0.000641,0.002618,-1.316503,-1.96335,-1.784589,-0.031141078,0,,,
245919,0.00153,0.000778,0.000702,-1.316472,-1.963499,-1.785634,-0.031159313,0,,,
246019,-0.000399,0.00146,0.003351,-1.317577,-1.963205,-1.785151,-0.031150885,0,,,
