SampleTimeFine,Gyr_X,Gyr_Y,Gyr_Z,Roll,Pitch,Yaw
213949,0.006079,0.046811,-0.01053,-19.068245,-75.615603,18.511799
214049,0.010773,0.061362,-0.008845,-18.98566,-75.594953,18.430984
214149,0.006024,0.060869,-0.008734,-18.907873,-75.57371,18.352796
214249,-0.012216,0.038998,-0.011889,-18.848908,-75.564082,18.283812
214349,-0.02702,0.021313,-0.013629,-18.806189,-75.562506,18.22455
214449,-0.025506,0.032336,-0.011341,-18.763556,-75.553806,18.164711
214549,-0.008217,0.046935,-0.017775,-18.691982,-75.536987,18.084537
214649,0.001022,0.051457,-0.017704,-18.610261,-75.516893,18.00053
214749,0.01199,0.042777,-0.012847,-18.538172,-75.500698,17.933181
214849,0.02944,0.025647,-0.009926,-18.479876,-75.491266,17.889136
214949,0.039871,0.006351,-0.007159,-18.434055,-75.491531,17.864803
215049,0.044602,-0.00946,-0.009318,-18.393732,-75.500328,17.848443
215149,0.046839,-0.007725,-0.01671,-18.335475,-75.50961,17.814753
215249,0.043566,0.009347,-0.027239,-18.245115,-75.51117,17.746114
215349,0.035178,0.038301,-0.03514,-18.123449,-75.498185,17.640134
215449,0.027509,0.057665,-0.033092,-17.997669,-75.474191,17.5253
215549,0.02213,0.069829,-0.029515,-17.874234,-75.442813,17.409855
215649,0.015695,0.070106,-0.026039,-17.762215,-75.410557,17.302359
215749,0.009825,0.06204,-0.020849,-17.670342,-75.381741,17.212173
215849,0.000284,0.051936,-0.01622,-17.600607,-75.357633,17.139179
215949,-0.01496,0.046989,-0.016925,-17.54139,-75.33633,17.068049
216049,-0.016274,0.0453,-0.022197,-17.473362,-75.316827,16.987016
216149,-0.003942,0.044977,-0.026071,-17.390608,-75.298116,16.898061
216249,0.009453,0.049363,-0.02753,-17.294654,-75.277192,16.803388
216349,0.02668,0.050985,-0.023501,-17.196432,-75.25463,16.716585
216449,0.041397,0.045606,-0.019397,-17.102098,-75.234289,16.642507
216549,0.045573,0.031638,-0.01586,-17.021907,-75.220974,16.585514
216649,0.049315,0.01214,-0.016059,-16.951622,-75.218333,16.540989
216749,0.053042,-0.009997,-0.02146,-16.881895,-75.228701,16.499257
216849,0.054398,-0.021951,-0.02403,-16.8135,-75.246045,16.459697
216949,0.052041,-0.028821,-0.028522,-16.741188,-75.267886,16.414698
217049,0.049384,-0.028102,-0.030273,-16.666183,-75.28959,16.365343
217149,0.044748,-0.03405,-0.025779,-16.606782,-75.31382,16.329374
217249,0.041319,-0.044973,-0.019363,-16.56948,-75.342978,16.314223
217349,0.038563,-0.059791,-0.019386,-16.542843,-75.380265,16.308473
217449,0.038823,-0.073867,-0.020531,-16.522427,-75.425475,16.309292
217549,0.040345,-0.089379,-0.022407,-16.506823,-75.479522,16.315977
217649,0.040698,-0.104822,-0.022649,-16.500154,-75.542084,16.33209
217749,0.037093,-0.114152,-0.021683,-16.503483,-75.609607,16.356385
217849,0.028688,-0.12428,-0.015896,-16.530596,-75.681761,16.400245
217949,0.023132,-0.130669,-0.011735,-16.574401,-75.75672,16.45802
218049,0.014629,-0.13264,-0.006742,-16.635614,-75.831941,16.528702
218149,-4e-06,-0.130956,-0.008529,-16.700915,-75.906511,16.594929
218249,-0.021735,-0.117313,-0.007717,-16.772213,-75.973462,16.654457
218349,-0.035184,-0.106975,-0.013914,-16.831209,-76.035763,16.693347
218449,-0.049668,-0.106767,-0.018797,-16.887972,-76.098765,16.72137
218549,-0.052091,-0.111203,-0.025345,-16.93498,-76.165291,16.737901
218649,-0.046746,-0.118888,-0.032334,-16.968704,-76.237185,16.743917
218749,-0.028303,-0.131029,-0.035032,-16.994483,-76.316157,16.752631
218849,-0.004967,-0.147298,-0.035279,-17.017898,-76.4041,16.77265
218949,0.020115,-0.156352,-0.034808,-17.0345,-76.496896,16.800459
219049,0.037727,-0.143905,-0.038768,-17.023576,-76.583501,16.810339
219149,0.037831,-0.115081,-0.039658,-16.990091,-76.654452,16.797101
219249,0.028429,-0.095886,-0.030115,-16.970486,-76.713297,16.792577
219349,0.016967,-0.097274,-0.018851,-16.984769,-76.771012,16.816112
219449,-0.000466,-0.126877,-0.009203,-17.052927,-76.843315,16.884733
219549,-0.008823,-0.154704,-0.005579,-17.155428,-76.930217,16.983666
219649,0.008959,-0.156513,-0.007076,-17.24672,-77.01831,17.081524
219749,0.02645,-0.157005,-0.014872,-17.310906,-77.107983,17.161807
219849,0.036903,-0.139467,-0.027653,-17.326241,-77.190243,17.198083
219949,0.025263,-0.104245,-0.031013,-17.313909,-77.253776,17.199158
220049,-0.007647,-0.084389,-0.026331,-17.316813,-77.305668,17.196513
220149,-0.031554,-0.085739,-0.010134,-17.374021,-77.355533,17.235479
220249,-0.031417,-0.092946,0.008869,-17.483453,-77.406062,17.328045
220349,-0.032752,-0.096969,0.017367,-17.618365,-77.457285,17.445908
220449,-0.037462,-0.107235,0.017929,-17.766389,-77.513976,17.574392
220549,-0.038996,-0.12147,0.010196,-17.908746,-77.579717,17.69614
220649,-0.029739,-0.133972,0.004796,-18.04382,-77.653164,17.81582
220749,-0.019956,-0.140203,-0.008191,-18.147411,-77.73226,17.908978
220849,-0.010481,-0.128149,-0.016252,-18.216604,-77.806192,17.972473
220949,-0.008734,-0.117515,-0.015199,-18.279496,-77.874121,18.030539
221049,-0.002853,-0.107301,-0.00401,-18.359628,-77.934454,18.109674
221149,0.001608,-0.106082,0.009566,-18.471676,-77.991635,18.22404
221249,0.000338,-0.106079,0.017337,-18.605443,-78.047347,18.359837
221349,-0.009645,-0.106629,0.021681,-18.757819,-78.102493,18.508775
221449,-0.015257,-0.100492,0.023878,-18.915016,-78.153823,18.659319
221549,-0.024099,-0.09608,0.02082,-19.06672,-78.203247,18.799043
221649,-0.023765,-0.088881,0.01791,-19.205354,-78.249245,18.925586
221749,-0.024801,-0.081307,0.017383,-19.337326,-78.291182,19.044698
221849,-0.027538,-0.071996,0.019849,-19.469606,-78.327558,19.162505
221949,-0.034415,-0.062606,0.02783,-19.618704,-78.357276,19.29344
222049,-0.047699,-0.057567,0.032947,-19.784718,-78.383224,19.433852
222149,-0.068034,-0.06161,0.034665,-19.971341,-78.410942,19.583383
222249,-0.089871,-0.065586,0.037207,-20.181724,-78.440206,19.744369
222349,-0.100029,-0.075474,0.030201,-20.390032,-78.476063,19.897271
222449,-0.092754,-0.092665,0.02215,-20.591047,-78.522652,20.046959
222549,-0.076805,-0.105446,0.017009,-20.783584,-78.577022,20.197294
222649,-0.068237,-0.098865,0.01286,-20.955156,-78.628608,20.331228
222749,-0.067985,-0.084278,0.012623,-21.112388,-78.672354,20.450668
222849,-0.080815,-0.061468,0.020478,-21.275384,-78.702213,20.568477
222949,-0.087496,-0.04983,0.030559,-21.457693,-78.723689,20.702063
223049,-0.093436,-0.051718,0.043953,-21.681791,-78.743266,20.874772
223149,-0.097258,-0.064353,0.048058,-21.933253,-78.768561,21.073122
223249,-0.099393,-0.074062,0.043737,-22.185883,-78.799778,21.271386
223349,-0.09653,-0.077812,0.037224,-22.424729,-78.834235,21.457242
223449,-0.090567,-0.078863,0.027605,-22.636757,-78.871214,21.61922
223549,-0.09091,-0.068397,0.017054,-22.80997,-78.904885,21.741421
223649,-0.093012,-0.055146,0.01034,-22.952094,-78.932985,21.830707
223749,-0.099058,-0.047442,0.007589,-23.082036,-78.957595,21.904046
223849,-0.103139,-0.049741,0.011035,-23.226792,-78.982607,21.99009
223949,-0.107438,-0.058465,0.01621,-23.398769,-79.010993,22.101346
224049,-0.110487,-0.062853,0.022456,-23.595348,-79.040193,22.23587
224149,-0.112091,-0.055379,0.027389,-23.798168,-79.064247,22.375799
224249,-0.112898,-0.046649,0.030971,-24.001369,-79.082803,22.515631
224349,-0.117419,-0.045044,0.033728,-24.213248,-79.09978,22.661651
224449,-0.119869,-0.050008,0.034472,-24.435183,-79.119071,22.816466
224549,-0.117048,-0.06183,0.029139,-24.656349,-79.14568,22.972126
224649,-0.118491,-0.068217,0.021449,-24.866343,-79.177346,23.115548
224749,-0.121283,-0.06507,0.012521,-25.050608,-79.209443,23.231126
224849,-0.129032,-0.058647,0.000524,-25.19921,-79.24106,23.305866
224949,-0.132372,-0.052385,-0.006795,-25.322294,-79.271186,23.352676
225049,-0.128306,-0.049163,-0.011365,-25.426846,-79.300747,23.382991
225149,-0.118781,-0.050905,-0.007757,-25.538541,-79.330306,23.42613
225249,-0.11033,-0.064515,-0.000746,-25.683111,-79.365142,23.507644
225349,-0.092898,-0.073278,0.007181,-25.851981,-79.402482,23.624033
225449,-0.068598,-0.068654,0.01095,-26.012087,-79.436433,23.745656
225549,-0.055203,-0.061152,0.007865,-26.146676,-79.467246,23.849113
225649,-0.055557,-0.060641,0.002703,-26.267154,-79.499064,23.937997
225749,-0.072163,-0.067747,-0.002845,-26.392182,-79.535904,24.021823
225849,-0.089418,-0.073907,-0.001886,-26.539104,-79.575616,24.117849
225949,-0.093534,-0.07383,0.005856,-26.710879,-79.613244,24.236736
226049,-0.078828,-0.051793,0.012733,-26.863338,-79.637761,24.344544
226149,-0.06451,-0.037127,0.020418,-27.008845,-79.652743,24.453619
226249,-0.054232,-0.044623,0.025406,-27.173554,-79.670198,24.588193
226349,-0.043299,-0.063362,0.028421,-27.368033,-79.696333,24.75938
226449,-0.031609,-0.088534,0.024446,-27.582377,-79.73621,24.95754
226549,-0.031498,-0.104575,0.01357,-27.791394,-79.786993,25.150316
226649,-0.035746,-0.110761,0.000177,-27.976264,-79.844376,25.316048
226749,-0.038153,-0.111004,-0.009659,-28.136938,-79.904441,25.455764
226849,-0.034717,-0.106256,-0.011939,-28.283656,-79.962657,25.583278
226949,-0.023248,-0.102857,-0.005041,-28.439889,-80.017222,25.727106
227049,-0.012094,-0.101756,0.005724,-28.620594,-80.068211,25.902247
227149,-0.003545,-0.10835,0.014787,-28.834813,-80.119911,26.116354
227249,0.00387,-0.11608,0.023462,-29.084501,-80.172927,26.370737
227349,0.002184,-0.12803,0.027411,-29.368785,-80.230609,26.6592
227449,-0.007404,-0.130821,0.029284,-29.671973,-80.288898,26.961215
227549,-0.022914,-0.123854,0.02756,-29.970884,-80.343943,27.249816
227649,-0.035479,-0.113596,0.025218,-30.255941,-80.394327,27.51701
227749,-0.045063,-0.102985,0.023521,-30.526011,-80.439742,27.763389
227849,-0.051538,-0.095513,0.018647,-30.774807,-80.482718,27.984393
227949,-0.050962,-0.087122,0.015715,-31.001866,-80.522283,28.183658
228049,-0.049965,-0.081177,0.012253,-31.209271,-80.559837,28.363546
228149,-0.042342,-0.074949,0.008923,-31.392779,-80.595235,28.523616
228249,-0.043565,-0.077916,0.012632,-31.594671,-80.630881,28.701594
228349,-0.052376,-0.088974,0.021853,-31.850738,-80.669015,28.929344
228449,-0.055755,-0.099038,0.031361,-32.157663,-80.708958,29.206644
228549,-0.05919,-0.103621,0.0413,-32.507208,-80.747806,29.525104
228649,-0.067185,-0.104753,0.049187,-32.889693,-80.784419,29.87226
228749,-0.0747,-0.104766,0.057708,-33.304604,-80.817978,30.247864
228849,-0.077849,-0.105349,0.060507,-33.733545,-80.850488,30.635808
228949,-0.078028,-0.101215,0.059006,-34.152669,-80.881056,31.013661
229049,-0.081028,-0.088361,0.051656,-34.528292,-80.907507,31.345676
229149,-0.08353,-0.073507,0.044148,-34.854714,-80.929092,31.626379
229249,-0.083711,-0.073053,0.035129,-35.15511,-80.953192,31.880594
229349,-0.086001,-0.082691,0.027392,-35.455627,-80.984156,32.133572
229449,-0.08864,-0.098575,0.022343,-35.778264,-81.023985,32.407383
229549,-0.099038,-0.1059,0.01952,-36.116874,-81.067906,32.691296
229649,-0.108237,-0.106092,0.021268,-36.469372,-81.111043,32.983897
229749,-0.112468,-0.104068,0.028561,-36.844449,-81.150455,33.296864
229849,-0.113527,-0.097571,0.033837,-37.224193,-81.184748,33.613907
229949,-0.107589,-0.081916,0.034329,-37.569268,-81.211431,33.899281
230049,-0.10391,-0.062401,0.032702,-37.864868,-81.229596,34.136708
230149,-0.102438,-0.05235,0.029319,-38.127772,-81.244239,34.341894
230249,-0.10714,-0.052711,0.029487,-38.395532,-81.258835,34.549266
230349,-0.113548,-0.052217,0.034063,-38.680005,-81.271413,34.76983
230449,-0.1208,-0.052221,0.042547,-38.994059,-81.280755,35.016117
230549,-0.118656,-0.045773,0.052826,-39.321955,-81.283288,35.277649
230649,-0.107226,-0.045955,0.057012,-39.655907,-81.284138,35.551931
230749,-0.088141,-0.049234,0.053726,-39.977364,-81.287392,35.82463
230849,-0.070632,-0.054605,0.042961,-40.271158,-81.296749,36.079479
230949,-0.06162,-0.049979,0.03105,-40.51507,-81.308328,36.289072
231049,-0.066961,-0.044139,0.016734,-40.707513,-81.322585,36.443488
231149,-0.085285,-0.028501,0.010027,-40.853429,-81.332501,36.540204
231249,-0.100342,-0.005651,0.009661,-40.95086,-81.332631,36.579142
231349,-0.108125,0.013308,0.012923,-41.015272,-81.323326,36.580166
231449,-0.10853,0.01819,0.016568,-41.078166,-81.310541,36.579421
231549,-0.104878,0.013443,0.019537,-41.159006,-81.298683,36.598953
231649,-0.100412,-0.00703,0.01891,-41.285926,-81.295871,36.667696
231749,-0.102772,-0.03317,0.023588,-41.492052,-81.302477,36.815206
231849,-0.103809,-0.03692,0.029213,-41.724146,-81.308449,36.988388
231949,-0.096041,-0.014281,0.026572,-41.888008,-81.305665,37.097045
232049,-0.07748,0.009342,0.022403,-41.970359,-81.294379,37.133998
232149,-0.058362,0.020782,0.016931,-41.997772,-81.280324,37.126445
232249,-0.045754,0.020045,0.00769,-41.994088,-81.270141,37.094727
232349,-0.04027,0.001565,-0.000298,-42.011204,-81.270898,37.087223
232449,-0.047749,-0.023631,-0.007325,-42.076103,-81.285075,37.123721
232549,-0.057196,-0.042436,-0.010821,-42.184167,-81.308576,37.19841
232649,-0.063876,-0.043735,-0.013859,-42.29144,-81.333769,37.268425
232749,-0.058946,-0.025366,-0.015917,-42.344096,-81.351952,37.286054
232849,-0.046565,-0.004116,-0.01499,-42.338468,-81.36077,37.251911
232949,-0.029624,-2.8e-05,-0.010946,-42.324091,-81.36629,37.218747
233049,-0.012713,-0.00759,-0.005394,-42.334814,-81.372869,37.220777
233149,0.004725,-0.023024,-0.001346,-42.386248,-81.384419,37.274095
233249,0.016963,-0.0395,5.1e-05,-42.47691,-81.402384,37.374181
233349,0.020315,-0.05945,-0.000946,-42.61461,-81.429121,37.52378
233449,0.018141,-0.081532,0.00125,-42.81784,-81.464229,37.738375
233549,0.012369,-0.084675,-0.00199,-43.025185,-81.501804,37.953761
233649,5.7e-05,-0.08239,-0.006662,-43.222214,-81.540141,38.151552
233749,-0.014183,-0.072492,-0.014712,-43.380126,-81.577429,38.301515
233849,-0.026608,-0.070877,-0.02158,-43.522699,-81.616701,38.428745
233949,-0.033029,-0.073706,-0.033127,-43.645063,-81.661673,38.531799
234049,-0.037412,-0.07405,-0.045785,-43.736032,-81.711777,38.60056
234149,-0.040864,-0.075179,-0.052791,-43.812984,-81.765114,38.653141
234249,-0.040692,-0.071018,-0.057125,-43.866742,-81.818438,38.68238
234349,-0.040702,-0.060349,-0.057893,-43.889187,-81.867649,38.679978
234449,-0.042658,-0.054918,-0.058259,-43.896647,-81.914754,38.661311
234549,-0.048847,-0.051109,-0.052632,-43.913354,-81.958045,38.648404
234649,-0.051002,-0.060461,-0.045867,-43.977639,-82.002505,38.682297
234749,-0.056411,-0.071869,-0.042256,-44.088723,-82.050221,38.760306
234849,-0.056003,-0.081775,-0.042105,-44.229607,-82.101928,38.868619
234949,-0.05421,-0.088951,-0.043419,-44.388009,-82.157066,38.995632
235049,-0.048573,-0.099953,-0.042301,-44.580836,-82.216192,39.160633
235149,-0.039101,-0.11376,-0.043601,-44.808143,-82.281375,39.365885
235249,-0.028139,-0.120807,-0.040893,-45.062267,-82.348192,39.604506
235349,-0.013961,-0.125333,-0.03881,-45.332752,-82.415831,39.867796
235449,0.00489,-0.131516,-0.034237,-45.630302,-82.483902,40.169248
235549,0.018322,-0.139124,-0.031327,-45.958441,-82.553592,40.509267
235649,0.018697,-0.137818,-0.029556,-46.293873,-82.62177,40.856802
235749,0.00893,-0.13224,-0.02538,-46.635912,-82.685746,41.205298
235849,-0.007981,-0.124375,-0.021344,-46.980169,-82.744685,41.546204
235949,-0.018365,-0.117596,-0.017353,-47.325536,-82.79905,41.882176
236049,-0.031684,-0.109134,-0.010623,-47.675726,-82.847048,42.215266
236149,-0.042038,-0.1026,-0.011496,-48.011352,-82.892662,42.527652
236249,-0.04913,-0.09456,-0.010449,-48.330596,-82.934539,42.819395
236349,-0.051389,-0.08665,-0.008239,-48.633908,-82.972266,43.093749
236449,-0.056183,-0.080983,-0.004129,-48.935688,-83.005899,43.36377
236549,-0.056387,-0.076825,0.000266,-49.238994,-83.035885,43.635191
236649,-0.055896,-0.070867,0.004314,-49.535483,-83.061709,43.90001
236749,-0.052666,-0.059658,0.011005,-49.81209,-83.080294,44.146645
236849,-0.049739,-0.051461,0.014438,-50.069024,-83.094218,44.375135
236949,-0.044519,-0.052181,0.016345,-50.332235,-83.107447,44.612942
237049,-0.035835,-0.035172,0.021644,-50.544967,-83.112016,44.804901
237149,-0.036902,-0.022561,0.022236,-50.713951,-83.111661,44.952172
237249,-0.03738,-0.008648,0.022949,-50.834141,-83.1059,45.050017
237349,-0.028349,0.005461,0.02237,-50.895402,-83.095262,45.093722
237449,-0.028793,0.003856,0.021658,-50.960526,-83.085497,45.141072
237549,-0.041858,-0.015881,0.020748,-51.102747,-83.083219,45.258553
237649,-0.045959,-0.027468,0.025113,-51.302792,-83.083091,45.431922
237749,-0.040896,-0.031506,0.033398,-51.539174,-83.080604,45.644821
237849,-0.026014,-0.031289,0.037964,-51.779384,-83.075878,45.870167
237949,-0.004244,-0.032984,0.042394,-52.025952,-83.069632,46.114487
238049,0.015183,-0.043121,0.040315,-52.292731,-83.06775,46.390387
238149,0.022166,-0.058407,0.037521,-52.604574,-83.072297,46.715715
238249,0.029844,-0.06823,0.030854,-52.930434,-83.083063,47.059594
238349,0.029222,-0.072487,0.0256,-53.258939,-83.097457,47.405769
238449,0.014921,-0.06612,0.02155,-53.561315,-83.11131,47.71736
238549,-0.010872,-0.062012,0.021795,-53.864624,-83.123462,48.014995
238649,-0.037138,-0.06269,0.022649,-54.189019,-83.135258,48.318694
238749,-0.054476,-0.064467,0.024096,-54.535272,-83.146766,48.63439
238849,-0.062427,-0.065362,0.023436,-54.888813,-83.158651,48.952822
238949,-0.062641,-0.064706,0.021461,-55.235621,-83.171012,49.26434
239049,-0.048843,-0.06452,0.022809,-55.578581,-83.182442,49.579939
239149,-0.030044,-0.063627,0.026613,-55.918528,-83.191543,49.903353
239249,-0.007659,-0.052339,0.024092,-56.194689,-83.198009,50.175445
239349,0.013513,-0.049623,0.019591,-56.436369,-83.205598,50.42503
239449,0.023733,-0.046342,0.016112,-56.650316,-83.213685,50.652584
239549,0.023928,-0.051945,0.01284,-56.878663,-83.224988,50.894752
239649,0.021037,-0.068188,0.013113,-57.176067,-83.24109,51.204784
239749,0.01389,-0.074938,0.012015,-57.503675,-83.259608,51.541092
239849,0.00394,-0.075112,0.010849,-57.836426,-83.278516,51.87682
239949,-0.007791,-0.083034,0.008813,-58.205299,-83.300575,52.242133
240049,-0.010824,-0.090162,0.007908,-58.605682,-83.324919,52.637402
240149,-0.005829,-0.086542,0.010265,-58.99668,-83.346702,53.026086
240249,0.001545,-0.061261,0.01289,-59.285398,-83.359479,53.31604
240349,0.01369,-0.043589,0.018069,-59.506089,-83.364378,53.544519
240449,0.039103,-0.029945,0.024,-59.66925,-83.362286,53.729746
240549,0.070597,-0.025655,0.032778,-59.817708,-83.354548,53.918343
240649,0.100408,-0.021232,0.032356,-59.928845,-83.345697,54.086566
240749,0.1249,-0.022198,0.029342,-60.022324,-83.338586,54.251142
240849,0.139295,-0.034606,0.026109,-60.152182,-83.336591,54.460652
240949,0.144688,-0.060337,0.023866,-60.383125,-83.342947,54.775045
241049,0.141358,-0.082172,0.027549,-60.718912,-83.353432,55.193067
241149,0.136201,-0.096784,0.030537,-61.128876,-83.366171,55.682781
241249,0.138831,-0.090093,0.034055,-61.518154,-83.374905,56.153173
241349,0.156152,-0.083491,0.033991,-61.869588,-83.381528,56.595446
241449,0.172278,-0.080254,0.030923,-62.191255,-83.388538,57.017043
241549,0.185022,-0.088647,0.030021,-62.541161,-83.397954,57.47441
241649,0.196139,-0.106492,0.029265,-62.962938,-83.412083,58.010527
241749,0.20249,-0.125432,0.03132,-63.471902,-83.429551,58.638055
241849,0.198763,-0.133355,0.034867,-64.029153,-83.446537,59.312014
241949,0.19845,-0.132725,0.032751,-64.582203,-83.463722,59.98153
242049,0.200342,-0.122616,0.025122,-65.075083,-83.481714,60.591536
242149,0.205999,-0.117742,0.017687,-65.529769,-83.501856,61.16632
242249,0.217145,-0.114327,0.007448,-65.944273,-83.526066,61.707044
242349,0.226619,-0.110278,-0.000335,-66.32209,-83.553011,62.216264
242449,0.230633,-0.10107,-0.007441,-66.643739,-83.581249,62.671229
242549,0.214357,-0.095982,-0.0118,-66.945298,-83.610373,63.096551
242649,0.230915,-0.081124,-0.003773,-67.186084,-83.631718,63.470244
242749,0.210369,-0.082654,-0.015675,-67.424349,-83.659531,63.829526
242849,0.210628,-0.041536,-0.006131,-67.486984,-83.673164,64.012222
242949,0.19152,0.006596,0.004639,-67.352298,-83.670536,63.985359
243049,0.172966,0.014314,-0.002417,-67.177336,-83.669941,63.907261
243149,0.167511,-0.00871,-0.00807,-67.10364,-83.677457,63.927887
243249,0.155543,-0.03946,-0.01866,-67.162162,-83.697433,64.07462
243349,0.149154,-0.059044,-0.024722,-67.306805,-83.72495,64.304284
243449,0.149377,-0.053824,-0.031094,-67.414865,-83.754647,64.497246
243549,0.15836,-0.056879,-0.03139,-67.533443,-83.785139,64.705948
243649,0.161717,-0.069586,-0.028331,-67.719993,-83.816723,64.984943
243749,0.16507,-0.07645,-0.021363,-67.954652,-83.845981,65.314243
243849,0.164078,-0.081119,-0.018371,-68.221585,-83.874485,65.675416
243949,0.169965,-0.092453,-0.013696,-68.55378,-83.902675,66.105607
244049,0.175757,-0.101048,-0.006639,-68.943025,-83.928575,66.5965
244149,0.184033,-0.101004,0.002885,-69.349137,-83.94898,67.10912
244249,0.197421,-0.107244,0.011651,-69.798761,-83.965494,67.673213
244349,0.20179,-0.122624,0.019558,-70.341743,-83.980208,68.333707
244449,0.205535,-0.140608,0.029804,-70.996139,-83.992035,69.108397
244549,0.210309,-0.150533,0.043049,-71.724438,-83.997474,69.960162
244649,0.221132,-0.158519,0.05808,-72.513877,-83.994902,70.879669
244749,0.23421,-0.167717,0.077305,-73.372733,-83.981922,71.87656
244849,0.243891,-0.168913,0.088481,-74.244423,-83.961376,72.891992
244949,0.245725,-0.160772,0.088195,-75.06546,-83.938157,73.857608
245049,0.242843,-0.150529,0.079772,-75.816509,-83.916728,74.751227
245149,0.226119,-0.142142,0.068091,-76.512618,-83.899463,75.579981
245249,0.202367,-0.123904,0.047557,-77.097961,-83.890302,76.283648
245349,0.177696,-0.1196,0.028476,-77.65066,-83.890557,76.940242
245449,0.141058,-0.1195,0.006798,-78.199603,-83.902306,77.571902
245549,0.108342,-0.127005,-0.018981,-78.78169,-83.928758,78.217981
245649,0.080188,-0.149402,-0.041421,-79.481851,-83.969518,78.966501
245749,0.06677,-0.170807,-0.058458,-80.298663,-84.021013,79.824495
245849,0.070802,-0.192799,-0.072616,-81.235234,-84.081173,80.80511
245949,0.085585,-0.211772,-0.083262,-82.279344,-84.147165,81.902226
246049,0.103207,-0.235522,-0.088318,-83.467069,-84.215503,83.153722
246149,0.120284,-0.261846,-0.081619,-84.826552,-84.278696,84.587548
246249,0.140427,-0.269906,-0.065549,-86.256785,-84.32951,86.103959
246349,0.152847,-0.259625,-0.040649,-87.651087,-84.36199,87.591339
246449,0.155363,-0.236791,-0.018081,-88.928421,-84.377684,88.962607
246549,0.156075,-0.219142,0.001797,-90.108332,-84.378971,90.236408
246649,0.152666,-0.219904,0.012096,-91.292777,-84.371747,91.512835
246749,0.152105,-0.211305,0.017384,-92.422157,-84.359113,92.733646
246849,0.156176,-0.196234,0.019531,-93.455173,-84.343421,93.86001
246949,0.165909,-0.185816,0.020769,-94.415334,-84.325498,94.918809
247049,0.171963,-0.182571,0.020743,-95.346339,-84.306021,95.951839
247149,0.182223,-0.182593,0.017438,-96.266225,-84.286769,96.979649
247249,0.189889,-0.194077,0.010985,-97.244108,-84.26872,98.070207
247349,0.194488,-0.208167,0.003201,-98.297791,-84.252071,99.239639
247449,0.192429,-0.227938,-0.004506,-99.46317,-84.235776,100.520189
247549,0.194967,-0.237491,-0.014912,-100.683203,-84.221734,101.857169
247649,0.190795,-0.240491,-0.031628,-101.934426,-84.213869,103.223118
247749,0.194215,-0.226539,-0.050045,-103.125936,-84.215127,104.531023
247849,0.19705,-0.206822,-0.066568,-104.230209,-84.225634,105.75286
247949,0.206626,-0.193514,-0.081098,-105.281163,-84.243835,106.92659
248049,0.208855,-0.182317,-0.091089,-106.291686,-84.26718,108.060929
248149,0.204453,-0.170031,-0.087469,-107.239179,-84.288636,109.129352
248249,0.19608,-0.16582,-0.080977,-108.16353,-84.305548,110.169669
248349,0.186081,-0.1741,-0.072961,-109.128481,-84.314891,111.245018
248449,0.175275,-0.19741,-0.0689,-110.219981,-84.315638,112.441323
248549,0.169232,-0.205712,-0.062226,-111.344676,-84.308839,113.667528
248649,0.160693,-0.200217,-0.057353,-112.43054,-84.298297,114.849818
248749,0.1398,-0.19502,-0.063842,-113.510719,-84.290149,116.014384
248849,0.120759,-0.186242,-0.07489,-114.578216,-84.287693,117.155249
248949,0.093094,-0.17578,-0.087905,-115.63782,-84.292464,118.272244
249049,0.068035,-0.169881,-0.098724,-116.710205,-84.302262,119.387633
249149,0.060162,-0.165256,-0.107245,-117.789068,-84.315577,120.504966
249249,0.060296,-0.135777,-0.117416,-118.751035,-84.340102,121.504856
249349,0.05608,-0.105922,-0.129579,-119.60716,-84.37753,122.395895
249449,0.048912,-0.070837,-0.142075,-120.33778,-84.430033,123.156626
249549,0.047102,-0.037989,-0.15252,-120.947519,-84.496449,123.794788
249649,0.050105,-0.018512,-0.163306,-121.503849,-84.573341,124.380951
249749,0.05066,-0.025878,-0.164398,-122.117008,-84.647995,125.024455
249849,0.036565,-0.03827,-0.163757,-122.817422,-84.717858,125.74742
249949,0.013814,-0.040226,-0.157415,-123.537114,-84.783259,126.476593
250049,-0.013638,-0.014928,-0.147645,-124.121984,-84.851352,127.05453
250149,-0.034842,0.037451,-0.138638,-124.42238,-84.93171,127.334603
250249,-0.041373,0.084216,-0.137483,-124.477663,-85.026633,127.364829
250349,-0.027495,0.101416,-0.150073,-124.478402,-85.13309,127.348304
250449,0.014935,0.09724,-0.159298,-124.513078,-85.242537,127.39027
250549,0.060855,0.069921,-0.166952,-124.711197,-85.346675,127.622661
250649,0.075267,0.051598,-0.165305,-125.011445,-85.443939,127.965794
250749,0.068895,0.050448,-0.1599,-125.312858,-85.538132,128.306413
250849,0.070449,0.050155,-0.158679,-125.623272,-85.631497,128.656931
250949,0.081484,0.040027,-0.157913,-126.000742,-85.720934,129.081012
251049,0.088358,0.024129,-0.164291,-126.520677,-85.807671,129.651858
251149,0.104227,0.029703,-0.172357,-127.057599,-85.899633,130.248785
251249,0.118138,0.045388,-0.171748,-127.507562,-85.9964,130.766445
251349,0.107634,0.086399,-0.162207,-127.66632,-86.102991,130.986093
251449,0.062144,0.124909,-0.14715,-127.518753,-86.216223,130.872558
251549,-0.022268,0.155276,-0.121731,-127.059099,-86.328385,130.3978
251649,-0.108894,0.17443,-0.097596,-126.346979,-86.435711,129.62037
251749,-0.198748,0.184797,-0.067255,-125.395029,-86.531714,128.551129
251849,-0.274956,0.197197,-0.03369,-124.148437,-86.614699,127.143038
251949,-0.332328,0.161208,-0.001586,-122.997365,-86.669163,125.797757
252049,-0.376844,0.106005,0.019314,-122.189721,-86.695144,124.770924
252149,-0.401019,0.080945,0.016764,-121.610482,-86.714078,123.958941
252249,-0.408931,0.077756,-0.004953,-121.169433,-86.742304,123.280755
252349,-0.385196,0.072313,-0.025797,-120.86221,-86.778939,122.750169
252449,-0.341287,0.061659,-0.038082,-120.680059,-86.818398,122.369998
252549,-0.295328,0.045471,-0.046171,-120.653646,-86.857099,122.172133
252649,-0.258683,0.032975,-0.062019,-120.802943,-86.899979,122.171227
252749,-0.242248,0.011895,-0.076554,-121.219426,-86.943782,122.447294
252849,-0.243248,-0.002816,-0.080699,-121.806779,-86.985068,122.893868
252949,-0.258004,-0.010046,-0.071401,-122.429585,-87.01937,123.367458
253049,-0.282214,-0.021927,-0.055591,-123.094088,-87.042071,123.868898
253149,-0.310463,-0.039164,-0.042308,-123.861264,-87.052637,124.456929
253249,-0.329543,-0.042296,-0.027689,-124.580254,-87.054873,124.985753
253349,-0.353792,-0.040729,-0.015191,-125.219188,-87.051444,125.420481
253449,-0.379066,-0.016302,-0.003257,-125.572825,-87.050385,125.555007
253549,-0.393309,0.023996,0.010612,-125.479417,-87.056298,125.233685
253649,-0.400064,0.069523,0.016684,-124.932597,-87.074359,124.454444
253749,-0.392352,0.110606,0.01954,-123.970056,-87.103898,123.263347
253849,-0.378498,0.135266,0.019439,-122.740504,-87.140121,121.812852
253949,-0.364481,0.14408,0.022268,-121.364432,-87.176001,120.223723
254049,-0.350221,0.13475,0.02512,-120.021002,-87.205868,118.675494
254149,-0.324987,0.12167,0.03519,-118.711235,-87.225257,117.17548
254249,-0.301032,0.094403,0.058213,-117.529951,-87.224042,115.817865
254349,-0.278478,0.052349,0.081817,-116.656303,-87.198618,114.781187
254449,-0.251077,0.006176,0.102851,-116.15763,-87.150022,114.135637
254549,-0.213899,-0.031709,0.120262,-115.956069,-87.082738,113.808877
254649,-0.183277,-0.063679,0.129947,-116.017783,-87.002432,113.763282
254749,-0.171431,-0.092882,0.127785,-116.361063,-86.915888,114.006426
254849,-0.150124,-0.09803,0.120377,-116.757923,-86.831773,114.315451
254949,-0.144677,-0.097783,0.113966,-117.160331,-86.750927,114.633147
255049,-0.159487,-0.116982,0.104121,-117.765822,-86.669905,115.145748
255149,-0.157657,-0.129333,0.091745,-118.50447,-86.591506,115.792788
255249,-0.129278,-0.098717,0.084049,-118.978536,-86.525066,116.191062
255349,-0.091928,-0.039848,0.08513,-118.932691,-86.474382,116.089876
255449,-0.046882,0.001389,0.085656,-118.52844,-86.434822,115.655411
255549,0.000249,0.022527,0.094805,-117.897276,-86.396175,115.020597
255649,0.030728,0.026563,0.09681,-117.221203,-86.357178,114.358231
255749,0.047207,0.038316,0.101814,-116.43589,-86.318178,113.595812
255849,0.054347,0.060025,0.107449,-115.468226,-86.281022,112.654711
255949,0.061541,0.094507,0.121305,-114.190923,-86.243818,111.407388
256049,0.056488,0.133017,0.138115,-112.578325,-86.204532,109.821071
256149,0.03099,0.170684,0.157387,-110.654618,-86.159766,107.908218
256249,-0.032181,0.187252,0.180581,-108.618159,-86.101347,105.845937
256349,-0.122368,0.17557,0.191266,-106.762864,-86.030434,103.913247
256449,-0.204421,0.172415,0.194893,-105.03929,-85.953009,102.065231
256549,-0.24148,0.212006,0.191221,-103.104983,-85.879159,99.984401
256649,-0.237907,0.301052,0.17053,-100.586824,-85.8218,97.319967
256749,-0.124045,0.427601,0.142515,-97.134628,-85.781624,93.78414
256849,-0.00301,0.607282,0.135455,-92.315757,-85.735451,88.947188
256949,0.09837,0.781764,0.126886,-86.25509,-85.659211,82.922808
257049,0.170163,0.889737,0.138732,-79.659162,-85.519175,76.402036
257149,0.184374,0.920738,0.149784,-73.340819,-85.313247,70.166445
257249,0.133404,0.914724,0.156369,-67.694508,-85.054111,64.57395
257349,0.078742,0.877929,0.165604,-62.912007,-84.75747,59.81495
257449,0.047646,0.762872,0.1747,-59.292753,-84.458146,56.204234
257549,0.017916,0.568881,0.157664,-56.928554,-84.208718,53.835968
257649,0.006079,0.318531,0.111304,-55.748739,-84.053942,52.65069
257749,0.011021,0.064623,0.052871,-55.573188,-84.007555,52.477802
257849,0.037805,-0.15149,-0.00367,-56.188524,-84.057593,53.115554
257949,0.081103,-0.260466,-0.045868,-57.172053,-84.161257,54.148321
258049,0.14468,-0.282207,-0.076676,-58.168781,-84.284676,55.230789
258149,0.203606,-0.228569,-0.085018,-58.884045,-84.394477,56.064178
258249,0.268137,-0.12139,-0.056562,-59.132681,-84.457947,56.465843
258349,0.312423,-0.00527,-0.010895,-58.910856,-84.464679,56.420431
258449,0.349887,0.080884,0.036849,-58.381889,-84.422287,56.088126
258549,0.36807,0.112037,0.063721,-57.780188,-84.35704,55.693297
258649,0.36348,0.080965,0.087996,-57.418866,-84.289257,55.537443
258749,0.351917,0.037472,0.111194,-57.349572,-84.223672,55.668482
258849,0.324983,0.017638,0.12922,-57.443675,-84.155559,55.948291
258949,0.284114,0.012233,0.133026,-57.593921,-84.087304,56.261021
259049,0.214862,-0.000917,0.108263,-57.767608,-84.035101,56.557415
259149,0.103329,-0.023174,0.048731,-57.932133,-84.018607,56.780299
259249,-0.023102,-0.059932,-0.019416,-58.142296,-84.046429,56.976169
259349,-0.116814,-0.097607,-0.074605,-58.42591,-84.112493,57.191835
259449,-0.16486,-0.128505,-0.102881,-58.809137,-84.201524,57.4799
259549,-0.173999,-0.143319,-0.117692,-59.237726,-84.302014,57.808225
259649,-0.152255,-0.148666,-0.135288,-59.642403,-84.412508,58.12497
259749,-0.12004,-0.121136,-0.145553,-59.87019,-84.519962,58.282483
259849,-0.096801,-0.071947,-0.156935,-59.79882,-84.618857,58.152856
259949,-0.081303,-0.014636,-0.164261,-59.386617,-84.704679,57.689881
260049,-0.072679,0.037124,-0.165601,-58.673636,-84.775452,56.929917
260149,-0.061605,0.058051,-0.159723,-57.842353,-84.836093,56.057652
260249,-0.059887,0.022076,-0.153114,-57.20774,-84.903581,55.383962
260349,-0.066515,-0.044068,-0.141294,-56.963134,-84.985505,55.098102
260449,-0.065562,-0.098891,-0.132798,-57.045909,-85.080412,55.141473
260549,-0.078462,-0.120394,-0.128655,-57.277254,-85.179994,55.326551
260649,-0.093758,-0.111607,-0.128123,-57.477471,-85.276538,55.471595
260749,-0.10917,-0.145104,-0.11886,-57.930181,-85.378763,55.861125
260849,-0.135993,-0.206274,-0.103812,-58.853925,-85.491599,56.707752
260949,-0.150128,-0.247838,-0.08763,-60.16028,-85.607162,57.929932
261049,-0.139905,-0.251894,-0.071948,-61.613275,-85.713645,59.30491
261149,-0.098156,-0.215837,-0.056776,-62.916262,-85.800236,60.553322
261249,-0.042878,-0.171758,-0.055262,-63.930708,-85.872823,61.544101
261349,0.003024,-0.12977,-0.058374,-64.637243,-85.935449,62.2525
261449,0.033389,-0.093715,-0.061242,-65.071032,-85.990248,62.704899
261549,0.049984,-0.058829,-0.063441,-65.237681,-86.0376,62.899041
261649,0.060371,-0.01852,-0.063697,-65.095986,-86.07537,62.790081
261749,0.080696,0.025672,-0.072134,-64.573292,-86.106696,62.310926
261849,0.106373,0.065931,-0.077394,-63.70194,-86.130264,61.49709
261949,0.13241,0.09563,-0.08685,-62.544138,-86.149981,60.41115
262049,0.14815,0.110807,-0.097022,-61.210906,-86.169132,59.158472
262149,0.153053,0.115713,-0.10429,-59.795108,-86.188489,57.825915
262249,0.152249,0.108697,-0.105847,-58.411613,-86.20848,56.525333
262349,0.165665,0.103998,-0.103894,-57.050923,-86.226867,55.255375
262449,0.195065,0.11191,-0.103029,-55.608967,-86.240245,53.920922
262549,0.23707,0.145203,-0.104347,-53.89208,-86.240775,52.335116
262649,0.263988,0.206136,-0.105554,-51.737065,-86.217204,50.325703
262749,0.261728,0.276501,-0.110994,-49.123001,-86.164828,47.85486
262849,0.220286,0.323219,-0.126603,-46.230208,-86.093169,45.080676
262949,0.144125,0.383828,-0.152807,-42.990808,-85.997371,41.91502
263049,0.064582,0.467281,-0.169403,-39.429094,-85.859038,38.380047
263149,0.004018,0.588916,-0.186518,-35.496305,-85.655195,34.437364
263249,-0.026172,0.721728,-0.213563,-31.287161,-85.376117,30.198803
263349,-0.055018,0.867383,-0.217061,-27.129729,-85.001753,25.993535
263449,-0.058263,0.980529,-0.199125,-23.399926,-84.541104,22.213089
263549,-0.029764,0.96371,-0.170927,-20.427936,-84.064228,19.207663
263649,0.016157,0.721003,-0.198473,-18.132358,-83.710879,16.906759
263749,-0.066231,0.320799,-0.182898,-16.770822,-83.566223,15.497146
263849,-0.198383,-0.112691,-0.11681,-16.469706,-83.646688,15.078362
263949,-0.284626,-0.410185,-0.086139,-16.808933,-83.885622,15.254166
264049,-0.287227,-0.564511,-0.099783,-17.353083,-84.211367,15.634382
264149,-0.21343,-0.624067,-0.134981,-17.816276,-84.575484,15.975448
264249,-0.147426,-0.568681,-0.145783,-18.119849,-84.911161,16.193933
264349,-0.140943,-0.380821,-0.122981,-18.201747,-85.140459,16.193488
264449,-0.149001,-0.140237,-0.101036,-17.917595,-85.234831,15.821036
264549,-0.129816,0.073428,-0.097115,-17.193484,-85.211557,15.018132
264649,-0.117055,0.245333,-0.080142,-16.254116,-85.090222,14.006469
264749,-0.173025,0.320876,-0.035443,-15.543415,-84.919078,13.191978
264849,-0.292437,0.245342,0.030497,-15.472005,-84.779131,12.950551
264949,-0.428921,0.057191,0.092535,-16.168753,-84.733413,13.402026
265049,-0.498376,-0.121026,0.137468,-17.48787,-84.77733,14.438591
265149,-0.468528,-0.213938,0.158393,-19.126107,-84.865613,15.812691
265249,-0.349734,-0.245511,0.153232,-20.788706,-84.968336,17.279399
265349,-0.191191,-0.250631,0.13493,-22.324087,-85.073996,18.709362
265449,-0.051606,-0.239727,0.114556,-23.686085,-85.175309,20.045351
265549,0.054877,-0.225984,0.093443,-24.870497,-85.271878,21.264151
265649,0.114354,-0.197914,0.082474,-25.91321,-85.354631,22.374793
265749,0.133565,-0.160437,0.076875,-26.825757,-85.418023,23.365754
265849,0.115236,-0.130264,0.080861,-27.698804,-85.463769,24.306457
265949,0.061482,-0.10346,0.093481,-28.607967,-85.49141,25.252429
266049,0.021856,-0.069999,0.107269,-29.518239,-85.497284,26.176714
266149,-0.003712,-0.043475,0.119226,-30.422722,-85.485437,27.080506
266249,0.009346,-0.044497,0.135609,-31.420057,-85.468112,28.084974
266349,0.035991,-0.102546,0.148447,-32.69813,-85.47352,29.386397
266449,0.077401,-0.195243,0.158363,-34.393954,-85.517404,31.130637
266549,0.130915,-0.282926,0.168661,-36.538006,-85.594191,33.355082
266649,0.193615,-0.325431,0.182411,-39.003196,-85.678429,35.937394
266749,0.247047,-0.327885,0.188512,-41.580325,-85.752769,38.662388
266849,0.276311,-0.340609,0.181389,-44.258557,-85.825839,41.505298
266949,0.268989,-0.358666,0.165716,-47.05272,-85.90254,44.459941
267049,0.241084,-0.357462,0.152001,-49.88517,-85.974135,47.436635
267149,0.205623,-0.329912,0.136249,-52.574625,-86.032661,50.249343
267249,0.171212,-0.282125,0.121355,-54.959941,-86.073167,52.737216
267349,0.143012,-0.220392,0.115583,-56.944768,-86.090067,54.807342
267449,0.114612,-0.152481,0.118,-58.484001,-86.080673,56.414478
267549,0.090552,-0.076977,0.123752,-59.509618,-86.043733,57.492984
267649,0.075223,-0.006597,0.132293,-60.058286,-85.981266,58.084625
267749,0.068845,0.040353,0.136846,-60.283476,-85.902887,58.348351
267849,0.065736,0.051461,0.132844,-60.409739,-85.823302,58.511122
267949,0.066488,0.043424,0.133107,-60.584922,-85.745829,58.723386
268049,0.062597,0.045112,0.133855,-60.746854,-85.667468,58.920139
268149,0.048808,0.066307,0.140961,-60.798399,-85.579603,58.998273
268249,0.00536,0.095245,0.152263,-60.728649,-85.478,58.929773
268349,-0.076991,0.121485,0.161693,-60.579418,-85.364324,58.734177
268449,-0.183235,0.123397,0.160908,-60.484257,-85.250492,58.531698
268549,-0.29583,0.107489,0.142617,-60.491849,-85.150293,58.367524
268649,-0.373449,0.129838,0.11216,-60.317726,-85.058955,57.976264
268749,-0.359882,0.205878,0.084608,-59.628168,-84.959249,57.07531
268849,-0.25357,0.339129,0.065473,-58.124005,-84.827968,55.417468
268949,-0.100966,0.545387,0.052219,-55.51747,-84.633098,52.739941
269049,0.037734,0.806431,0.066733,-51.868987,-84.329695,49.094387
269149,0.122996,1.030087,0.109745,-47.807848,-83.901775,45.080844
269249,0.133151,1.123712,0.151387,-44.109027,-83.392532,41.434255
269349,0.086721,1.085046,0.17681,-41.176203,-82.867325,38.528637
269449,0.046656,0.955569,0.21324,-39.1395,-82.370899,36.50028
269549,0.066639,0.7207,0.234227,-37.988578,-81.965257,35.375501
269649,0.102164,0.339882,0.204737,-37.738613,-81.740497,35.180589
269749,0.119289,-0.083226,0.161711,-38.371852,-81.721991,35.888046
269849,0.131736,-0.436274,0.088824,-39.661384,-81.885312,37.265669
269949,0.112523,-0.634847,0.043852,-41.417265,-82.146632,39.102381
270049,0.106565,-0.759272,0.022346,-43.600407,-82.459965,41.365545
270149,0.105633,-0.811011,0.007883,-46.096055,-82.787557,43.94163
270249,0.170353,-0.721218,0.003119,-48.455791,-83.067919,46.41643
270349,0.303315,-0.527815,-0.004374,-50.183807,-83.268199,48.330495
270449,0.426346,-0.258917,-0.004151,-50.905715,-83.365515,49.301989
270549,0.472222,-0.040196,-0.003338,-50.780241,-83.38273,49.446774
270649,0.453595,0.076708,-0.01676,-50.177765,-83.363354,49.10062
270749,0.421413,0.115891,-0.020328,-49.438816,-83.330589,48.598494
270849,0.377981,0.127394,-0.01021,-48.721129,-83.288411,48.092673
270949,0.318123,0.115592,-0.00234,-48.113257,-83.246713,47.662827
271049,0.225262,0.085236,-0.006591,-47.659008,-83.218079,47.334031
271149,0.0841,0.038419,-0.035527,-47.359936,-83.219604,47.079996
271249,-0.071169,-0.028983,-0.08692,-47.219611,-83.268907,46.896196
271349,-0.179099,-0.091196,-0.137647,-47.193082,-83.363769,46.764693
271449,-0.237237,-0.139977,-0.169897,-47.267018,-83.491208,46.70079
271549,-0.257167,-0.159524,-0.181022,-47.387542,-83.630945,46.67228
271649,-0.236959,-0.13802,-0.185029,-47.401118,-83.764031,46.547824
271749,-0.224446,-0.110092,-0.191049,-47.273329,-83.888787,46.288425
271849,-0.242701,-0.110352,-0.185039,-47.171555,-84.011046,46.044741
271949,-0.263121,-0.1422,-0.175245,-47.24195,-84.141562,45.962467
272049,-0.278164,-0.157238,-0.165117,-47.42336,-84.273653,45.983155
272149,-0.274508,-0.12808,-0.142631,-47.570743,-84.384936,45.971768
272249,-0.263797,-0.087375,-0.110033,-47.66685,-84.466689,45.915048
272349,-0.253689,-0.085656,-0.083152,-47.858633,-84.536376,45.960286
272449,-0.241699,-0.101534,-0.067498,-48.181759,-84.605449,46.144364
272549,-0.227151,-0.11529,-0.062644,-48.586158,-84.677552,46.418429
272649,-0.217582,-0.115599,-0.065811,-48.982779,-84.750941,46.690162
272749,-0.21638,-0.108833,-0.071582,-49.331905,-84.824114,46.914872
272849,-0.217645,-0.104567,-0.07338,-49.661678,-84.896338,47.119409
272949,-0.216179,-0.101284,-0.067725,-50.005639,-84.964737,47.339031
273049,-0.2032,-0.096201,-0.056179,-50.37275,-85.026035,47.589357
273149,-0.175016,-0.095864,-0.049682,-50.75707,-85.084156,47.873167
273249,-0.143162,-0.10327,-0.044805,-51.190614,-85.142566,48.224703
273349,-0.115513,-0.111906,-0.041237,-51.679166,-85.202185,48.647336
273449,-0.095798,-0.104361,-0.036346,-52.147431,-85.256597,49.060937
273549,-0.073043,-0.073599,-0.028948,-52.473918,-85.296609,49.34535
273649,-0.057481,-0.044359,-0.023339,-52.657306,-85.323754,49.495131
273749,-0.051666,-0.028498,-0.016259,-52.780432,-85.342112,49.587797
273849,-0.045756,-0.017316,-0.013131,-52.851323,-85.355134,49.631459
273949,-0.024214,-0.019535,-0.017689,-52.903115,-85.370981,49.668349
274049,0.006461,-0.018609,-0.029421,-52.881948,-85.391844,49.649682
274149,0.037921,-0.013977,-0.042262,-52.760592,-85.41694,49.548595
274249,0.065477,0.005309,-0.056111,-52.451612,-85.441572,49.275144
274349,0.098167,0.005957,-0.06446,-52.080071,-85.4696,48.957761
274449,0.153458,0.00593,-0.066753,-51.662512,-85.498459,48.626044
274549,0.205622,0.039282,-0.070166,-51.004687,-85.516614,48.083356
274649,0.234745,0.090065,-0.078353,-50.00121,-85.519214,47.210737
274749,0.219839,0.147693,-0.089657,-48.634056,-85.503739,45.96477
274849,0.173129,0.193183,-0.114926,-46.936194,-85.478814,44.360191
274949,0.113789,0.276308,-0.148423,-44.69821,-85.430079,42.179577
275049,0.067427,0.460813,-0.17287,-41.538951,-85.30559,39.047712
275149,0.051816,0.728256,-0.192237,-37.354085,-85.053732,34.876734
275249,0.051801,0.962671,-0.230324,-32.597836,-84.677625,30.130046
275349,0.006698,1.106271,-0.238771,-28.088337,-84.199864,25.601969
275449,-0.019676,1.14421,-0.235004,-24.237245,-83.671056,21.716728
275549,-0.05393,1.0612,-0.216068,-21.239904,-83.158554,18.667219
275649,-0.105019,0.820793,-0.20239,-19.103423,-82.757708,16.452719
275749,-0.188824,0.381888,-0.196483,-17.840214,-82.586618,15.068904
275849,-0.307702,-0.133208,-0.123692,-17.672989,-82.68182,14.721435
275949,-0.409267,-0.525695,-0.069553,-18.345334,-82.981589,15.161664
276049,-0.354288,-0.703888,-0.069691,-19.319406,-83.377282,15.93714
276149,-0.123101,-0.724842,-0.112246,-20.095001,-83.791111,16.645483
276249,0.137539,-0.622132,-0.170457,-20.311361,-84.160566,16.941048
276349,0.257963,-0.43564,-0.193393,-19.978934,-84.434283,16.754206
276449,0.228989,-0.240702,-0.183909,-19.292181,-84.600808,16.194773
276549,0.146223,-0.076134,-0.163489,-18.40951,-84.673576,15.391039
276649,0.052986,0.044568,-0.129993,-17.530091,-84.673487,14.536988
276749,-0.082741,0.079252,-0.063566,-17.056948,-84.642197,14.012896
276849,-0.255829,0.058349,0.044551,-17.353862,-84.603976,14.162675
276949,-0.392446,-0.004532,0.137702,-18.37783,-84.583531,14.964196
277049,-0.455581,-0.092022,0.20131,-19.970327,-84.596754,16.300513
277149,-0.442192,-0.150424,0.235688,-21.887081,-84.630335,17.970224
277249,-0.334941,-0.165481,0.239301,-23.820749,-84.665773,19.718578
277349,-0.192839,-0.139706,0.216556,-25.500526,-84.688062,21.293647
277449,-0.047735,-0.123803,0.177912,-26.851858,-84.708069,22.622307
277549,0.074213,-0.127698,0.132415,-27.904399,-84.739466,23.721009
277649,0.138862,-0.159301,0.12177,-28.969827,-84.787822,24.869768
277749,0.159201,-0.173073,0.119078,-30.072615,-84.84182,26.067623
277849,0.139809,-0.16906,0.132663,-31.271157,-84.887697,27.350344
277949,0.116182,-0.151586,0.158267,-32.58339,-84.914798,28.733525
278049,0.09993,-0.159074,0.18044,-34.064396,-84.93551,30.276728
278149,0.102523,-0.13337,0.180569,-35.458999,-84.94065,31.73464
278249,0.140581,-0.127577,0.179654,-36.806524,-84.940341,33.167172
278349,0.166968,-0.148267,0.176574,-38.20514,-84.947486,34.666163
278449,0.198228,-0.165154,0.172276,-39.63749,-84.960442,36.216973
278549,0.226777,-0.19742,0.167798,-41.176626,-84.985604,37.891351
278649,0.264276,-0.233109,0.169137,-42.874974,-85.021298,39.747027
278749,0.285918,-0.254673,0.166371,-44.672131,-85.062074,41.714208
278849,0.298572,-0.273821,0.156217,-46.537429,-85.109241,43.756909
278949,0.297748,-0.296741,0.138933,-48.4774,-85.166764,45.873891
279049,0.281156,-0.315094,0.119406,-50.484859,-85.233429,48.048832
279149,0.261412,-0.306759,0.105312,-52.453882,-85.297098,50.17361
279249,0.24236,-0.285827,0.093854,-54.31974,-85.352991,52.183709
279349,0.217372,-0.242981,0.09104,-55.979832,-85.391118,53.972838
279449,0.197454,-0.176921,0.095294,-57.296153,-85.402631,55.405544
279549,0.178463,-0.089537,0.103883,-58.131213,-85.38108,56.344502
279649,0.156809,-0.010128,0.118274,-58.5445,-85.327809,56.847882
279749,0.132171,0.042065,0.128026,-58.687103,-85.253998,57.06553
279849,0.114322,0.054071,0.133675,-58.784202,-85.173816,57.227266
279949,0.105393,0.037653,0.135876,-58.983482,-85.097385,57.486427
280049,0.100888,0.015122,0.14056,-59.321319,-85.025168,57.88209
280149,0.090436,0.006474,0.15227,-59.741172,-84.949457,58.354113
280249,0.057361,0.008191,0.165905,-60.200218,-84.866179,58.846506
280349,-0.004944,-0.002253,0.17929,-60.777501,-84.778792,59.421827
280449,-0.092608,-0.012879,0.188555,-61.470201,-84.689142,60.062671
280549,-0.177798,-0.001546,0.184931,-62.117778,-84.597597,60.609226
280649,-0.219106,0.065965,0.171692,-62.375657,-84.494377,60.740579
280749,-0.203162,0.172036,0.144074,-61.994822,-84.376828,60.239354
280849,-0.122187,0.302701,0.116487,-60.858635,-84.236712,59.025516
280949,-0.034613,0.484767,0.106274,-58.836296,-84.045952,56.970947
281049,0.040335,0.713784,0.111735,-55.907974,-83.772839,54.047586
281149,0.101329,0.900706,0.148819,-52.565521,-83.403233,50.740907
281249,0.088803,0.990512,0.183914,-49.379362,-82.965147,47.581749
281349,0.010603,1.000572,0.182414,-46.579466,-82.504896,44.763776
281449,-0.070446,0.964782,0.177046,-44.241012,-82.045786,42.361647
281549,-0.116679,0.835441,0.164202,-42.491219,-81.634465,40.524901
281649,-0.120935,0.582319,0.119406,-41.409203,-81.341934,39.35926
281749,-0.096215,0.267818,0.050206,-40.946428,-81.208902,38.833798
281849,-0.061213,-0.045449,-0.030757,-41.005634,-81.241572,38.856734
281949,-0.033807,-0.218446,-0.084524,-41.325404,-81.369163,39.15916
282049,0.007393,-0.319669,-0.109085,-41.819607,-81.549177,39.661751
282149,0.050832,-0.39077,-0.117124,-42.4766,-81.761732,40.353811
282249,0.096205,-0.369574,-0.094875,-43.150251,-81.955518,41.088658
282349,0.124725,-0.298226,-0.054245,-43.759107,-82.102416,41.774326
282449,0.171418,-0.208834,-0.013647,-44.225472,-82.195385,42.343017
282549,0.210976,-0.140412,0.008292,-44.544599,-82.250993,42.785921
282649,0.231459,-0.102678,0.013412,-44.760252,-82.28887,43.136223
282749,0.254501,-0.091484,0.007143,-44.913078,-82.324586,43.436428
282849,0.247856,-0.073579,-0.014427,-44.952633,-82.361717,43.618467
282949,0.228634,-0.037995,-0.058714,-44.761679,-82.402357,43.55679
283049,0.17998,-0.007822,-0.123858,-44.304901,-82.456845,43.198798
283149,0.127641,-0.009536,-0.197748,-43.644361,-82.541017,42.605049
283249,0.062615,-0.064439,-0.263836,-42.958465,-82.673176,41.948266
283349,0.001138,-0.117492,-0.310365,-42.28915,-82.844776,41.27288
283449,-0.047424,-0.149636,-0.331292,-41.64162,-83.037117,40.591651
283549,-0.094937,-0.154808,-0.329286,-41.007653,-83.229981,39.89693
283649,-0.121614,-0.160431,-0.317165,-40.414302,-83.419853,39.227986
283749,-0.13441,-0.169582,-0.293862,-39.912511,-83.604359,38.644071
283849,-0.138154,-0.178267,-0.260288,-39.546263,-83.779876,38.194588
283949,-0.134283,-0.167383,-0.22158,-39.279232,-83.9362,37.847291
284049,-0.15128,-0.152409,-0.181623,-39.125517,-84.071245,37.604263
284149,-0.145379,-0.119991,-0.13593,-39.044665,-84.175294,37.437964
284249,-0.140657,-0.104905,-0.098531,-39.068608,-84.259102,37.379767
284349,-0.146989,-0.097606,-0.076724,-39.167043,-84.331776,37.392812
284449,-0.157781,-0.114629,-0.07524,-39.342982,-84.41145,37.477532
284549,-0.167317,-0.14712,-0.089496,-39.585742,-84.510651,37.623889
284649,-0.181069,-0.1599,-0.111702,-39.789476,-84.623548,37.7231
284749,-0.182306,-0.156892,-0.127891,-39.911084,-84.741027,37.739101
284849,-0.179851,-0.153479,-0.133613,-39.992474,-84.859094,37.716131
284949,-0.178704,-0.158876,-0.129667,-40.116883,-84.978056,37.737024
285049,-0.157976,-0.161475,-0.113713,-40.325318,-85.09222,37.854192
285149,-0.131725,-0.149439,-0.094524,-40.572516,-85.19393,38.025357
285249,-0.098452,-0.113147,-0.075616,-40.744522,-85.27272,38.140201
285349,-0.047861,-0.06897,-0.063675,-40.752879,-85.327819,38.119941
285449,0.007645,-0.01695,-0.05683,-40.52628,-85.357713,37.895878
285549,0.052789,0.042106,-0.057724,-39.99636,-85.36197,37.39347
285649,0.084227,0.098519,-0.063966,-39.161409,-85.343085,36.603105
285749,0.10366,0.106688,-0.069096,-38.258451,-85.321398,35.755667
285849,0.105126,0.102951,-0.073884,-37.352256,-85.301981,34.90581
285949,0.111878,0.106533,-0.082392,-36.387375,-85.282698,34.000937
286049,0.121798,0.099443,-0.095364,-35.38005,-85.269773,33.059167
286149,0.13813,0.072975,-0.10745,-34.403588,-85.271895,32.157761
286249,0.179669,0.035536,-0.111384,-33.523652,-85.291849,31.377124
286349,0.24036,-0.00178,-0.11316,-32.733014,-85.329309,30.721033
286449,0.306926,-0.012511,-0.107868,-31.964759,-85.369584,30.125732
286549,0.33485,-0.004037,-0.109933,-31.124811,-85.405629,29.474612
286649,0.323147,0.033192,-0.11596,-30.107923,-85.424184,28.639295
286749,0.275045,0.109274,-0.129111,-28.764542,-85.407053,27.448785
286849,0.194715,0.233394,-0.134739,-27.03954,-85.325992,25.829118
286949,0.120304,0.405188,-0.14641,-24.844231,-85.154863,23.694404
287049,0.09628,0.591037,-0.175031,-22.181532,-84.885225,21.075975
287149,0.092974,0.772021,-0.190185,-19.338195,-84.511059,18.272873
287249,0.081129,0.894756,-0.200073,-16.61786,-84.059639,15.584586
287349,0.071837,0.918554,-0.21252,-14.196999,-83.58548,13.189876
287449,0.069242,0.748182,-0.262252,-12.049978,-83.203067,11.06732
287549,0.013102,0.372835,-0.271832,-10.429641,-83.024973,9.441647
287649,-0.113929,-0.090165,-0.214771,-9.569762,-83.098388,8.508555
287749,-0.246879,-0.470415,-0.166578,-9.286213,-83.381158,8.079472
287849,-0.27929,-0.670056,-0.144758,-9.26521,-83.77473,7.896182
287949,-0.198044,-0.726781,-0.149553,-9.206,-84.200852,7.721394
288049,-0.094222,-0.656047,-0.161628,-8.926685,-84.588009,7.385304
288149,-0.055147,-0.455419,-0.139185,-8.527563,-84.859396,6.951531
288249,-0.064733,-0.224847,-0.108229,-8.076368,-84.997192,6.460089
288349,-0.072131,-0.063356,-0.076843,-7.66756,-85.040541,6.007003
288449,-0.109433,0.040167,-0.04003,-7.42717,-85.022103,5.701535
288549,-0.204568,0.090706,0.012412,-7.541077,-84.971029,5.697007
288649,-0.325203,0.074576,0.085869,-8.206414,-84.92337,6.1767
288749,-0.441516,-0.001628,0.157475,-9.458203,-84.911881,7.178312
288849,-0.524682,-0.086632,0.202165,-11.138056,-84.941492,8.561852
288949,-0.505468,-0.192693,0.239474,-13.216752,-85.021988,10.356733
289049,-0.444922,-0.286257,0.233736,-15.450227,-85.149289,12.341515
289149,-0.319735,-0.324221,0.208272,-17.63276,-85.294955,14.346763
289249,-0.174189,-0.344345,0.187695,-19.770967,-85.448924,16.390774
289349,-0.066343,-0.329058,0.181727,-21.905818,-85.589663,18.492973
289449,-0.010949,-0.298462,0.190073,-24.107154,-85.706078,20.693307
289549,-0.001364,-0.278499,0.196882,-26.399851,-85.803843,22.990433
289649,-0.022345,-0.258307,0.20642,-28.798791,-85.881777,25.381749
289749,-0.071242,-0.230613,0.217205,-31.271741,-85.935439,27.818953
289849,-0.109386,-0.172848,0.228272,-33.641622,-85.950367,30.1308
289949,-0.12392,-0.114626,0.23323,-35.789734,-85.92979,32.211967
290049,-0.099105,-0.073187,0.226587,-37.65501,-85.887309,34.023909
290149,-0.050025,-0.048297,0.224361,-39.315133,-85.830502,35.658467
290249,0.011166,-0.041756,0.22062,-40.839839,-85.768948,37.19252
290349,0.059151,-0.050623,0.217279,-42.319088,-85.709539,38.708682
290449,0.107016,-0.06227,0.208341,-43.741265,-85.655665,40.195223
290549,0.153603,-0.078916,0.191901,-45.101827,-85.612491,41.646828
290649,0.197415,-0.091986,0.167059,-46.352398,-85.582227,43.013356
290749,0.222536,-0.086346,0.146041,-47.434767,-85.556414,44.225655
290849,0.218142,-0.05858,0.134725,-48.298497,-85.523147,45.216157
290949,0.184393,-0.024987,0.137014,-48.993876,-85.475136,46.018425
291049,0.150958,-0.008538,0.145391,-49.641081,-85.416613,46.753182
291149,0.125376,-0.009329,0.156898,-50.341035,-85.35266,47.526189
291249,0.112463,-0.015304,0.164237,-51.092205,-85.286845,48.343204
291349,0.108962,-0.008447,0.170041,-51.810891,-85.215137,49.125665
291449,0.104138,0.019773,0.173409,-52.372812,-85.131255,49.748098
291549,0.088118,0.049144,0.177248,-52.784068,-85.034957,50.210166
291649,0.070133,0.068071,0.179192,-53.09822,-84.930988,50.564466
291749,0.049954,0.081077,0.183348,-53.359757,-84.820498,50.854375
291849,0.04544,0.068651,0.190211,-53.699248,-84.710947,51.220003
291949,0.058317,0.032314,0.200303,-54.231506,-84.608718,51.786701
292049,0.076457,0.000614,0.206743,-54.909404,-84.513462,52.510217
292149,0.070515,-0.011376,0.21386,-55.648027,-84.417927,53.291425
292249,0.017032,-0.007096,0.213763,-56.370187,-84.320122,54.025403
292349,-0.076704,0.02798,0.211818,-56.947996,-84.211401,54.560426
292449,-0.14487,0.101739,0.197781,-57.157548,-84.086092,54.686073
292549,-0.148069,0.235255,0.180508,-56.705786,-83.927365,54.144923
292649,-0.073473,0.422531,0.161139,-55.370311,-83.717018,52.757673
292749,0.052774,0.655502,0.146986,-53.07195,-83.43052,50.47357
292849,0.185033,0.877428,0.160824,-50.124604,-83.04734,47.610722
292949,0.258817,1.01501,0.166469,-47.014674,-82.592252,44.624084
293049,0.260904,1.029508,0.169108,-44.228652,-82.111705,41.962324
293149,0.21306,0.934993,0.202426,-42.129534,-81.642999,39.963718
293249,0.151682,0.671629,0.204873,-40.928017,-81.278485,38.835114
293349,0.083352,0.225172,0.186115,-40.85536,-81.112612,38.808455
293449,0.059854,-0.234563,0.158216,-41.827112,-81.155152,39.825246
293549,0.071118,-0.592686,0.107224,-43.579487,-81.364622,41.638036
293649,0.078741,-0.798676,0.069594,-45.885085,-81.663289,44.013388
293749,0.120588,-0.88499,0.033807,-48.501848,-81.995313,46.725426
293849,0.131926,-0.85395,0.023897,-51.206714,-82.301946,49.530871
293949,0.156937,-0.665358,0.033304,-53.474675,-82.521306,51.908318
294049,0.209879,-0.37994,0.062527,-54.874482,-82.621138,53.440034
294149,0.268762,-0.111903,0.075117,-55.322683,-82.62394,54.046077
294249,0.330645,0.062313,0.057603,-55.058546,-82.577857,53.969606
294349,0.398645,0.151776,0.02172,-54.348366,-82.518846,53.482586
294449,0.472909,0.194222,-0.002535,-53.395128,-82.455813,52.793258
294549,0.500739,0.216906,-0.024664,-52.304795,-82.393458,51.981602
294649,0.438121,0.200506,-0.053693,-51.243276,-82.348017,51.162698
294749,0.317968,0.128396,-0.086539,-50.408934,-82.341511,50.503471
294849,0.178874,0.026289,-0.119955,-49.896678,-82.3862,50.088796
294949,0.042239,-0.0615,-0.156753,-49.643087,-82.479143,49.856109
295049,-0.069204,-0.103129,-0.188099,-49.497014,-82.601151,49.667476
295149,-0.152708,-0.08783,-0.20264,-49.298782,-82.723731,49.378032
295249,-0.215044,-0.051285,-0.211619,-48.975375,-82.836345,48.926462
295349,-0.265106,-0.006577,-0.216733,-48.497759,-82.933871,48.29067
295449,-0.278599,0.033218,-0.222211,-47.856933,-83.017751,47.482764
295549,-0.283718,0.060106,-0.221585,-47.110397,-83.089742,46.565552
295649,-0.276118,0.091772,-0.204739,-46.288698,-83.140725,45.577147
295749,-0.262643,0.105886,-0.1899,-45.447841,-83.178236,44.577328
295849,-0.254707,0.091686,-0.171525,-44.703574,-83.212376,43.679454
295949,-0.263584,0.066007,-0.157956,-44.089864,-83.250319,42.90801
296049,-0.293206,0.035568,-0.144018,-43.636786,-83.294449,42.281296
296149,-0.326135,-0.006489,-0.134584,-43.370716,-83.351866,41.823948
296249,-0.342019,-0.045734,-0.132017,-43.249934,-83.424447,41.50377
296349,-0.340145,-0.072277,-0.143541,-43.171985,-83.512555,41.22785
296449,-0.31234,-0.089446,-0.15719,-43.081964,-83.613123,40.955877
296549,-0.282765,-0.08244,-0.158348,-42.939909,-83.71112,40.648672
296649,-0.244304,-0.0634,-0.143763,-42.757077,-83.795303,40.322698
296749,-0.196446,-0.056064,-0.12126,-42.601852,-83.867511,40.052155
296849,-0.155596,-0.065696,-0.099829,-42.538569,-83.935379,39.897687
296949,-0.10937,-0.073894,-0.087269,-42.52707,-84.001793,39.821979
297049,-0.055654,-0.064627,-0.082584,-42.468363,-84.062437,39.729794
297149,0.006921,-0.03382,-0.084099,-42.250626,-84.110564,39.513809
297249,0.052451,-0.002089,-0.084948,-41.88098,-84.145375,39.171377
297349,0.082463,0.030589,-0.080832,-41.385718,-84.164334,38.719989
297449,0.09436,0.055938,-0.073562,-40.818237,-84.169155,38.202879
297549,0.089854,0.056483,-0.071215,-40.26052,-84.172322,37.693003
297649,0.088096,0.026713,-0.084046,-39.754832,-84.192775,37.234433
297749,0.0992,-0.014837,-0.09784,-39.328043,-84.236216,36.8616
297849,0.126824,-0.050629,-0.108175,-38.962266,-84.299017,36.566045
297949,0.198012,-0.052212,-0.117076,-38.513617,-84.365485,36.228254
298049,0.293774,-0.029586,-0.130434,-37.856974,-84.426149,35.736667
298149,0.36674,-0.02043,-0.133014,-37.100938,-84.482929,35.187305
298249,0.373324,-0.030863,-0.130172,-36.378646,-84.542805,34.675714
298349,0.289219,-0.001612,-0.124633,-35.614873,-84.586575,34.074103
298449,0.156513,0.093112,-0.111673,-34.652316,-84.580767,33.19645
298549,0.010125,0.270793,-0.09775,-33.25759,-84.484305,31.800282
298649,-0.080015,0.51508,-0.099073,-31.218155,-84.265865,29.703962
298749,-0.10652,0.748367,-0.109826,-28.681336,-83.926616,27.091256
298849,-0.113415,0.863244,-0.110737,-26.162735,-83.517687,24.49104
298949,-0.099553,0.843402,-0.135773,-23.873165,-83.113646,22.127283
299049,-0.130791,0.675339,-0.208296,-21.839335,-82.804508,20.001373
299149,-0.218266,0.340687,-0.277366,-20.24785,-82.680582,18.269832
299249,-0.308917,-0.069803,-0.266651,-19.403814,-82.771315,17.239391
299349,-0.389472,-0.469297,-0.206158,-19.448997,-83.065544,17.058944
299449,-0.401745,-0.73676,-0.172737,-20.099761,-83.497692,17.481315
299549,-0.288232,-0.826643,-0.174503,-20.922515,-83.977802,18.141722
299649,-0.129285,-0.728465,-0.182159,-21.523724,-84.40615,18.670389
299749,-0.028972,-0.480898,-0.170937,-21.645932,-84.699889,18.775251
299849,-0.026407,-0.216259,-0.121946,-21.445433,-84.842295,18.557477
299949,-0.066978,-0.03682,-0.063016,-21.192299,-84.876571,18.263543
300049,-0.132212,0.036306,-0.029195,-21.007898,-84.864692,18.001101
300149,-0.237658,0.053377,0.008735,-21.071393,-84.835871,17.926905
300249,-0.359316,-0.003568,0.070113,-21.696758,-84.824668,18.346909
300349,-0.476121,-0.106067,0.143101,-23.063516,-84.851209,19.44416
300449,-0.546958,-0.22282,0.20112,-25.134744,-84.922287,21.207905
300549,-0.548193,-0.318783,0.23236,-27.730462,-85.028196,23.497248
300649,-0.471022,-0.351041,0.220486,-30.423765,-85.144209,25.928556
300749,-0.30459,-0.367048,0.205079,-33.111703,-85.262762,28.449769
300849,-0.177078,-0.398252,0.168773,-35.773813,-85.397859,31.017908
300949,-0.059452,-0.385603,0.122078,-38.193596,-85.533859,33.410065
301049,0.016261,-0.372699,0.097297,-40.509777,-85.665216,35.741371
301149,0.04224,-0.365797,0.098745,-42.923023,-85.785581,38.184528
301249,0.016856,-0.335075,0.108264,-45.367132,-85.881694,40.643682
301349,-0.030193,-0.321293,0.127786,-47.973308,-85.956293,43.237999
301449,-0.055052,-0.304073,0.148653,-50.684681,-86.006753,45.923274
301549,-0.051238,-0.292035,0.161548,-53.439998,-86.038115,48.654645
301649,-0.021176,-0.305692,0.165049,-56.326002,-86.062978,51.534183
301749,0.037191,-0.334582,0.159095,-59.390185,-86.089209,54.625751
301849,0.113438,-0.351094,0.160072,-62.570138,-86.107973,57.877065
301949,0.171076,-0.362004,0.165305,-65.839824,-86.114273,61.25137
302049,0.198721,-0.363304,0.173863,-69.128936,-86.103218,64.661028
302149,0.220516,-0.344691,0.178776,-72.239462,-86.073078,67.904276
302249,0.24213,-0.320611,0.181899,-75.094089,-86.025871,70.90357
302349,0.261099,-0.320364,0.183442,-77.862489,-85.967704,73.827494
302449,0.257833,-0.334207,0.173152,-80.640971,-85.907019,76.759839
302549,0.246023,-0.321081,0.155104,-83.216632,-85.845908,79.482246
302649,0.226669,-0.296719,0.138966,-85.522805,-85.784378,81.923506
302749,0.195732,-0.266729,0.134636,-87.543527,-85.717636,84.060921
302849,0.164768,-0.222205,0.133991,-89.180025,-85.645546,85.795386
302949,0.156842,-0.142645,0.140474,-90.175758,-85.566536,86.882789
303049,0.166688,-0.04759,0.143921,-90.438608,-85.484956,87.240821
303149,0.170993,0.010183,0.152006,-90.275612,-85.398939,87.174157
303249,0.181842,0.025055,0.156306,-90.006431,-85.31047,87.007176
303349,0.173988,0.053267,0.16013,-89.556295,-85.219673,86.654073
303449,0.168266,0.067539,0.161889,-89.028368,-85.127534,86.219553
303549,0.150876,0.067894,0.169883,-88.526923,-85.030501,85.801537
303649,0.113657,0.070352,0.187999,-88.052043,-84.922765,85.388698
303749,0.046946,0.066678,0.203793,-87.660503,-84.805816,85.021063
303849,-0.041147,0.046872,0.215155,-87.460495,-84.68271,84.794981
303949,-0.142262,0.04211,0.208904,-87.35402,-84.563296,84.604562
304049,-0.234385,0.088118,0.173525,-87.024062,-84.462824,84.136509
304149,-0.244434,0.2026,0.124345,-86.030507,-84.386051,82.995783
304249,-0.138175,0.380564,0.069813,-83.954472,-84.328605,80.8283
304349,0.029114,0.583293,0.021098,-80.641685,-84.273311,77.514011
304449,0.156368,0.746053,0.00457,-76.415812,-84.187202,73.354874
304549,0.15989,0.808055,0.041648,-72.068627,-84.039925,69.074989
304649,0.016441,0.730365,0.082159,-68.496749,-83.855854,65.49086
304749,-0.137531,0.57546,0.126509,-66.054073,-83.663088,62.9527
304849,-0.207861,0.366806,0.129375,-64.751778,-83.509706,61.520752
304949,-0.20491,0.123884,0.080743,-64.486658,-83.438996,61.134169
305049,-0.150542,-0.103072,0.011986,-65.069087,-83.459467,61.632074
305149,-0.073532,-0.271531,-0.043976,-66.271192,-83.548037,62.798036
305249,0.004843,-0.36146,-0.073029,-67.832317,-83.668814,64.370238
305349,0.070558,-0.354409,-0.083655,-69.360989,-83.788996,65.94734
305449,0.182526,-0.280027,-0.105692,-70.469625,-83.902354,67.166204
305549,0.261652,-0.136905,-0.098767,-70.849857,-83.983039,67.698014
305649,0.298167,-0.019956,-0.061699,-70.680753,-84.021434,67.698517
305749,0.328391,0.015111,-0.017015,-70.393812,-84.028944,67.598015
305849,0.36376,-0.002031,0.002171,-70.210424,-84.029341,67.62205
305949,0.395721,-0.005821,0.006758,-70.036993,-84.027999,67.67453
306049,0.420694,0.036609,0.003917,-69.626022,-84.019838,67.502557
306149,0.414167,0.107451,-0.006669,-68.837717,-84.002795,66.947391
306249,0.349168,0.171488,-0.02691,-67.726447,-83.982033,66.02997
306349,0.216951,0.211136,-0.062837,-66.423502,-83.969413,64.843557
306449,0.068898,0.207473,-0.111923,-65.117226,-83.980524,63.568444
306549,-0.048403,0.174023,-0.155165,-63.933957,-84.019384,62.349446
306649,-0.111663,0.141883,-0.187497,-62.847755,-84.080561,61.191673
306749,-0.130408,0.119504,-0.21428,-61.788475,-84.15905,60.050288
306849,-0.141348,0.10568,-0.239921,-60.702894,-84.252039,58.876323
306949,-0.153852,0.093023,-0.260889,-59.589392,-84.356767,57.667298
307049,-0.160234,0.065739,-0.272589,-58.537444,-84.472988,56.516683
307149,-0.166049,0.059883,-0.268256,-57.486049,-84.586792,55.363516
307249,-0.166517,0.079902,-0.249194,-56.350683,-84.683046,54.125962
307349,-0.176475,0.060205,-0.216366,-55.396638,-84.767917,53.064979
307449,-0.179358,0.01236,-0.184724,-54.776067,-84.852241,52.337348
307549,-0.1942,-0.025227,-0.159881,-54.432854,-84.93686,51.879756
307649,-0.202239,-0.042437,-0.137106,-54.260118,-85.016419,51.588748
307749,-0.198616,-0.050227,-0.117441,-54.196828,-85.089376,51.409723
307849,-0.193187,-0.05366,-0.10182,-54.207486,-85.156199,51.308067
307949,-0.191684,-0.059184,-0.095777,-54.270928,-85.222049,51.260269
308049,-0.198488,-0.056421,-0.08827,-54.353353,-85.283465,51.227627
308149,-0.208352,-0.059604,-0.081921,-54.486318,-85.342965,51.240043
308249,-0.216527,-0.087718,-0.06752,-54.848716,-85.405014,51.477967
308349,-0.227197,-0.129733,-0.060213,-55.505471,-85.477169,52.005051
308449,-0.199921,-0.159148,-0.049841,-56.388084,-85.553233,52.774334
308549,-0.152915,-0.154745,-0.04124,-57.279149,-85.622815,53.579058
308649,-0.106179,-0.11178,-0.04733,-57.869008,-85.681302,54.108511
308749,-0.055014,-0.055789,-0.049631,-58.069721,-85.72358,54.277101
308849,-0.019888,-0.013176,-0.052536,-57.962234,-85.754296,54.156825
308949,0.008397,0.01815,-0.052088,-57.632786,-85.775164,53.83025
309049,0.018413,0.044516,-0.0459,-57.147672,-85.784699,53.353365
309149,0.024386,0.068634,-0.03941,-56.52795,-85.783191,52.744956
309249,0.032091,0.077758,-0.036909,-55.856418,-85.77705,52.089036
309349,0.054571,0.086751,-0.043181,-55.088952,-85.770317,51.349842
309449,0.097268,0.089558,-0.058344,-54.213343,-85.768937,50.526749
309549,0.163006,0.080913,-0.083304,-53.239005,-85.781015,49.64245
309649,0.244442,0.080151,-0.107152,-52.10382,-85.802994,48.643704
309749,0.33114,0.094037,-0.115468,-50.78254,-85.822124,47.508238
309849,0.365964,0.100648,-0.11546,-49.391134,-85.836805,46.32253
309949,0.332516,0.13168,-0.109943,-47.857511,-85.835099,44.97505
310049,0.271399,0.205175,-0.104494,-45.974179,-85.79937,43.241788
310149,0.203335,0.389073,-0.097002,-43.228712,-85.680453,40.604698
310249,0.175809,0.652283,-0.105984,-39.365016,-85.440413,36.829528
310349,0.181498,0.868482,-0.125622,-34.940601,-85.087832,32.493384
310449,0.180357,0.980378,-0.131486,-30.73589,-84.65729,28.374571
310549,0.177443,0.960619,-0.179836,-26.975867,-84.225631,24.697927
310649,0.151789,0.837126,-0.23681,-23.745854,-83.851151,21.536757
310749,0.054083,0.51559,-0.250526,-21.469179,-83.634623,19.276561
310849,-0.067955,0.100848,-0.204239,-20.3433,-83.623533,18.103468
310949,-0.186741,-0.28544,-0.14616,-20.251319,-83.807178,17.902257
311049,-0.245672,-0.548483,-0.108571,-20.884595,-84.124529,18.396471
311149,-0.203488,-0.672441,-0.078922,-21.991393,-84.501017,19.390489
311249,-0.101741,-0.666472,-0.086036,-23.1343,-84.873949,20.478644
311349,-0.048849,-0.54112,-0.101079,-23.974231,-85.182709,21.292462
311449,-0.08086,-0.339939,-0.081854,-24.468041,-85.381002,21.740236
311549,-0.149296,-0.175472,-0.046869,-24.76967,-85.48503,21.95577
311649,-0.216685,-0.103771,-0.011671,-25.13376,-85.54322,22.195203
311749,-0.310408,-0.116479,0.022445,-25.830124,-85.599422,22.714037
311849,-0.430426,-0.155073,0.076121,-27.1045,-85.661039,23.743583
311949,-0.530693,-0.201796,0.141951,-29.084183,-85.726281,25.422764
312049,-0.571169,-0.263089,0.201557,-31.787353,-85.799313,27.804049
312149,-0.543914,-0.293398,0.246908,-34.992062,-85.863387,30.703689
312249,-0.404513,-0.300248,0.251772,-38.268405,-85.916924,33.755044
312349,-0.252903,-0.315099,0.218914,-41.411258,-85.976725,36.759465
312449,-0.08621,-0.311558,0.168099,-44.220856,-86.043716,39.525339
312549,0.038422,-0.292224,0.131951,-46.720862,-86.108715,42.052252
312649,0.086212,-0.263609,0.112477,-48.979469,-86.163743,44.364475
312749,0.066409,-0.227112,0.113852,-51.073537,-86.198777,46.500284
312849,-0.001069,-0.220091,0.123866,-53.245641,-86.221502,48.675462
312949,-0.074946,-0.231896,0.153932,-55.715653,-86.228307,51.106715
313049,-0.12111,-0.262856,0.183991,-58.582147,-86.222818,53.908784
313149,-0.129266,-0.295055,0.208323,-61.782921,-86.204659,57.04121
313249,-0.091055,-0.31845,0.220059,-65.146512,-86.17466,60.358835
313349,-0.03167,-0.32688,0.217268,-68.471164,-86.135227,63.671665
313449,0.031413,-0.345747,0.202975,-71.794931,-86.094357,67.019987
313549,0.081953,-0.348479,0.18529,-74.993977,-86.050807,70.272482
313649,0.111766,-0.33854,0.173967,-77.996963,-86.00025,73.345745
313749,0.133236,-0.3061,0.162499,-80.630235,-85.942301,76.060901
313849,0.150206,-0.264633,0.155852,-82.839295,-85.876713,78.360702
313949,0.163994,-0.237289,0.146426,-84.747033,-85.80897,80.366479
314049,0.173199,-0.242226,0.137649,-86.618904,-85.741716,82.341731
314149,0.171256,-0.251757,0.130197,-88.500437,-85.674256,84.325698
314249,0.161092,-0.249794,0.129969,-90.311383,-85.6022,86.233181
314349,0.129431,-0.242988,0.128941,-92.028651,-85.526419,88.028655
314449,0.094557,-0.212778,0.131971,-93.487026,-85.445958,89.544539
314549,0.089914,-0.163221,0.133016,-94.545552,-85.364328,90.656749
314649,0.109614,-0.096632,0.140973,-95.089271,-85.280153,91.263856
314749,0.146932,-0.044133,0.145573,-95.231958,-85.19579,91.490047
314849,0.168663,-0.020569,0.150931,-95.195144,-85.109597,91.548599
314949,0.16548,-0.015926,0.147122,-95.131312,-85.025841,91.578191
315049,0.143807,0.002305,0.137146,-94.968136,-84.948725,91.495576
315149,0.126966,0.035778,0.132998,-94.607063,-84.87557,91.20456
315249,0.113297,0.083946,0.133414,-93.959807,-84.80404,90.618274
315349,0.085637,0.128236,0.141898,-93.067155,-84.728541,89.769553
315449,0.009848,0.160097,0.152637,-92.044883,-84.646466,88.746892
315549,-0.086061,0.188574,0.157157,-90.936157,-84.560532,87.582003
315649,-0.162863,0.245018,0.15287,-89.571954,-84.474914,86.116025
315749,-0.166692,0.364766,0.133142,-87.550791,-84.394833,83.9875
315849,-0.094215,0.543902,0.108825,-84.510065,-84.312545,80.87582
315949,0.057878,0.750503,0.089624,-80.308078,-84.206338,76.68408
316049,0.251215,0.954237,0.087162,-75.077897,-84.042415,71.569106
316149,0.396548,1.034524,0.129252,-69.756931,-83.794041,66.444715
316249,0.40722,0.964253,0.183332,-65.302563,-83.487071,62.195801
316349,0.375537,0.867678,0.2362,-61.803207,-83.145754,58.887489
316449,0.350082,0.75035,0.284659,-59.219795,-82.793457,56.485041
316549,0.296896,0.553099,0.30134,-57.660734,-82.481837,55.083038
316649,0.193133,0.302279,0.279332,-57.107606,-82.25509,54.635161
316749,0.11193,-0.001314,0.211156,-57.528598,-82.155122,55.123384
316849,0.079727,-0.24354,0.121235,-58.61426,-82.171463,56.263974
316949,0.048697,-0.366133,0.054593,-60.026946,-82.253132,57.716551
317049,0.007172,-0.396157,0.017789,-61.531166,-82.356588,59.237171
317149,-0.020378,-0.356898,0.006625,-62.918761,-82.450045,60.623881
317249,0.010145,-0.268561,-0.001039,-63.960932,-82.520864,61.679584
317349,0.063306,-0.159691,0.001243,-64.563496,-82.561394,62.322552
317449,0.068984,-0.041242,0.00208,-64.698638,-82.571851,62.497403
317549,0.091146,0.062035,-0.024617,-64.360892,-82.570691,62.208185
317649,0.13217,0.174833,-0.046491,-63.513265,-82.551997,61.428464
317749,0.196198,0.297258,-0.063189,-62.125908,-82.507814,60.141327
317849,0.237195,0.345767,-0.102026,-60.465951,-82.465393,58.602773
317949,0.224975,0.309389,-0.151534,-58.856079,-82.452305,57.107544
318049,0.161117,0.224558,-0.198438,-57.489245,-82.482643,55.820548
318149,0.071443,0.162121,-0.23266,-56.307443,-82.545236,54.668444
318249,-0.02674,0.087791,-0.248084,-55.3941,-82.636338,53.730494
318349,-0.124222,0.005597,-0.245668,-54.821556,-82.751699,53.080008
318449,-0.205311,-0.046691,-0.233962,-54.501895,-82.878281,52.637733
318549,-0.260092,-0.069765,-0.216023,-54.33638,-83.003959,52.319268
318649,-0.275901,-0.07261,-0.198859,-54.229827,-83.122493,52.051164
318749,-0.267944,-0.077961,-0.177122,-54.194661,-83.232651,51.859632
318849,-0.250116,-0.073637,-0.158948,-54.180643,-83.33287,51.699755
318949,-0.232229,-0.050319,-0.150671,-54.084081,-83.421365,51.467163
319049,-0.208538,-0.023969,-0.144289,-53.881372,-83.497922,51.141463
319149,-0.189209,-0.012953,-0.129757,-53.660115,-83.563873,50.808314
319249,-0.187651,-0.017373,-0.111923,-53.50504,-83.622968,50.542716
319349,-0.187576,-0.069179,-0.100787,-53.595888,-83.694539,50.524644
319449,-0.180046,-0.131948,-0.098522,-53.956248,-83.786311,50.782051
319549,-0.187464,-0.163955,-0.111281,-54.429357,-83.894519,51.148545
319649,-0.190858,-0.174669,-0.130944,-54.905544,-84.015118,51.516114
319749,-0.186707,-0.165299,-0.141248,-55.320912,-84.137154,51.824867
319849,-0.174085,-0.138108,-0.144995,-55.60445,-84.251887,52.008343
319949,-0.15846,-0.111039,-0.136911,-55.784887,-84.353927,52.097204
320049,-0.135651,-0.076306,-0.125482,-55.82538,-84.439294,52.058602
320149,-0.112301,-0.025271,-0.110607,-55.650761,-84.5011,51.817358
320249,-0.098715,0.030229,-0.098022,-55.232377,-84.538762,51.339098
320349,-0.08711,0.077903,-0.095412,-54.575811,-84.559025,50.628299
320449,-0.062546,0.117539,-0.093168,-53.715208,-84.564014,49.726711
320549,-0.023691,0.139682,-0.09223,-52.728055,-84.559566,48.720376
320649,0.029771,0.133287,-0.090339,-51.749285,-84.554836,47.753239
320749,0.083947,0.104185,-0.09197,-50.870751,-84.55974,46.91799
320849,0.135895,0.080671,-0.096625,-50.05167,-84.574068,46.172395
320949,0.190093,0.062493,-0.102562,-49.257512,-84.596707,45.483075
321049,0.229667,0.031716,-0.1068,-48.558106,-84.631885,44.911767
321149,0.265743,-0.00153,-0.11422,-47.951124,-84.682271,44.454124
321249,0.30754,-0.010492,-0.111729,-47.361675,-84.734568,44.038223
321349,0.341847,0.031956,-0.098348,-46.60621,-84.764163,43.475415
321449,0.364552,0.109809,-0.085241,-45.537838,-84.756522,42.61149
321549,0.364176,0.213044,-0.082262,-44.037583,-84.70387,41.313597
321649,0.320497,0.331092,-0.076631,-42.130187,-84.596028,39.581461
321749,0.259264,0.486077,-0.06719,-39.783323,-84.411591,37.372124
321849,0.219709,0.686744,-0.060188,-36.954497,-84.125088,34.654686
321949,0.201095,0.869542,-0.077023,-33.785126,-83.74491,31.582378
322049,0.197233,0.963292,-0.093553,-30.676723,-83.307169,28.566745
322149,0.208563,0.932885,-0.122262,-27.89335,-82.87587,25.882347
322249,0.262388,0.763034,-0.151301,-25.601349,-82.525225,23.722155
322349,0.305784,0.478386,-0.169421,-23.900429,-82.317824,22.181998
322449,0.250009,0.173231,-0.138732,-22.927123,-82.259309,21.343401
322549,0.162074,-0.036312,-0.122789,-22.414431,-82.306693,20.918776
322649,0.118302,-0.183869,-0.135844,-22.10673,-82.434824,20.675725
322749,0.153837,-0.321258,-0.139215,-21.981071,-82.636597,20.636838
322849,0.180187,-0.409486,-0.148863,-21.944758,-82.887376,20.703171
322949,0.099772,-0.395546,-0.152431,-21.915221,-83.131564,20.72979
323049,-0.051626,-0.244121,-0.122618,-21.832276,-83.288909,20.615184
323149,-0.176768,-0.073583,-0.075359,-21.72181,-83.345477,20.400659
323249,-0.272621,-0.01247,-0.045522,-21.689522,-83.363196,20.209543
323349,-0.333785,-0.006365,-0.012731,-21.831104,-83.370759,20.158198
323449,-0.399732,-0.041463,0.044601,-22.33845,-83.38467,20.437066
323549,-0.465324,-0.118235,0.10605,-23.314901,-83.425074,21.150367
323649,-0.469294,-0.196667,0.148515,-24.66057,-83.494999,22.232995
323749,-0.390244,-0.256998,0.164965,-26.196826,-83.588991,23.552882
323849,-0.251971,-0.269209,0.146636,-27.640467,-83.690086,24.859086
323949,-0.089486,-0.283451,0.113587,-28.918427,-83.80387,26.092032
324049,0.014713,-0.317194,0.079325,-30.114365,-83.941219,27.302254
324149,0.086281,-0.334593,0.07529,-31.355123,-84.085535,28.598471
324249,0.085928,-0.344162,0.095329,-32.783651,-84.225207,30.082908
324349,0.03953,-0.349557,0.131864,-34.502539,-84.35165,31.832089
324449,-0.019725,-0.365495,0.166749,-36.55534,-84.468121,33.882289
324549,-0.083925,-0.374555,0.200257,-38.922131,-84.569172,36.210575
324649,-0.11685,-0.36093,0.226589,-41.458215,-84.644923,38.6896
324749,-0.110888,-0.341887,0.234072,-44.009026,-84.699339,41.186569
324849,-0.078685,-0.317507,0.227809,-46.451519,-84.736312,43.593094
324949,-0.050103,-0.292906,0.204738,-48.696528,-84.764445,45.81761
325049,-0.015647,-0.268153,0.182371,-50.733109,-84.785565,47.852551
325149,0.009626,-0.230427,0.163938,-52.509834,-84.795373,49.641032
325249,0.006671,-0.211693,0.150334,-54.147246,-84.800191,51.287881
325349,-0.000783,-0.220918,0.13276,-55.776179,-84.812044,52.921881
325449,-0.010194,-0.243192,0.111965,-57.464337,-84.836597,54.609861
325549,-0.005297,-0.245003,0.086003,-59.088933,-84.869952,56.236729
325649,0.027614,-0.217205,0.060289,-60.477522,-84.904186,57.645461
325749,0.072872,-0.172536,0.040951,-61.544212,-84.93302,58.756956
325849,0.107816,-0.126381,0.034076,-62.316052,-84.951311,59.592478
325949,0.101738,-0.099488,0.035693,-62.945401,-84.960801,60.28141
326049,0.070782,-0.069766,0.044834,-63.447813,-84.957341,60.825077
326149,0.04859,-0.015406,0.053713,-63.670998,-84.935154,61.07565
326249,0.043741,0.055954,0.062018,-63.507097,-84.890503,60.934811
326349,0.055481,0.113926,0.072079,-63.039401,-84.82569,60.495681
326449,0.077561,0.144715,0.071878,-62.39892,-84.752508,59.895693
326549,0.093087,0.147195,0.066899,-61.738505,-84.680566,59.284543
326649,0.091534,0.141127,0.070698,-61.139184,-84.607759,58.73378
326749,0.075815,0.132211,0.086212,-60.656037,-84.529194,58.290586
326849,0.04474,0.118266,0.102845,-60.323526,-84.445982,57.980768
326949,0.004553,0.098114,0.118117,-60.168724,-84.360791,57.826309
327049,-0.049287,0.071961,0.127648,-60.205646,-84.278318,57.833465
327149,-0.117106,0.057874,0.122827,-60.335586,-84.202279,57.895008
327249,-0.173644,0.091201,0.104901,-60.283886,-84.125733,57.741348
327349,-0.193734,0.179901,0.08196,-59.760771,-84.035136,57.102076
327449,-0.125234,0.317871,0.059511,-58.516586,-83.914026,55.777012
327549,-0.03017,0.515182,0.05247,-56.382623,-83.731401,53.611354
327649,0.079313,0.769973,0.07878,-53.355212,-83.44202,50.608782
327749,0.183519,0.986678,0.125134,-49.883476,-83.036047,47.216854
327849,0.258102,1.079421,0.163639,-46.576626,-82.555278,44.031052
327949,0.250934,1.07171,0.190653,-43.777375,-82.046081,41.349789
328049,0.228386,0.987357,0.223047,-41.634037,-81.544877,39.314926
328149,0.253847,0.760892,0.22563,-40.252446,-81.132119,38.063012
328249,0.280452,0.389823,0.228571,-39.8168,-80.878209,37.783191
328349,0.271593,-0.052497,0.198631,-40.322506,-80.829382,38.451642
328449,0.247168,-0.430437,0.105752,-41.476329,-80.977623,39.762225
328549,0.244192,-0.627767,0.022807,-42.9444,-81.236821,41.388439
328649,0.230371,-0.67682,-0.0088,-44.559731,-81.522018,43.154424
328749,0.188522,-0.621773,-0.00109,-46.178886,-81.774325,44.89885
328849,0.138943,-0.520596,0.026523,-47.701795,-81.968425,46.516429
328949,0.080329,-0.347424,0.057918,-48.878417,-82.077597,47.749869
329049,0.117312,-0.326623,0.065113,-50.019693,-82.172381,48.968746
329149,0.115283,-0.20555,0.070122,-50.807921,-82.217908,49.829906
329249,0.172414,0.007567,0.058064,-50.84342,-82.190813,49.964333
329349,0.224159,0.160555,0.015101,-50.244274,-82.127124,49.488044
329449,0.273454,0.207023,-0.05132,-49.302803,-82.074466,48.694559
329549,0.277183,0.191646,-0.127293,-48.210849,-82.058473,47.751171
329649,0.249285,0.162547,-0.20072,-47.021412,-82.082263,46.693167
329749,0.192296,0.122749,-0.254037,-45.822674,-82.140912,45.592851
329849,0.094458,0.092243,-0.290987,-44.642894,-82.223804,44.45522
329949,-0.011942,0.051394,-0.304173,-43.578565,-82.325753,43.372781
330049,-0.114654,-0.014102,-0.300707,-42.747191,-82.45132,42.466255
330149,-0.18965,-0.064283,-0.28258,-42.136871,-82.589585,41.739604
330249,-0.250517,-0.095617,-0.258728,-41.709862,-82.731214,41.16284
330349,-0.289668,-0.08428,-0.229199,-41.353049,-82.856241,40.634401
330449,-0.301765,-0.055727,-0.193555,-41.025848,-82.955085,40.128972
330549,-0.299822,-0.038017,-0.163268,-40.739688,-83.034533,39.666143
330649,-0.30197,-0.030387,-0.137585,-40.51562,-83.1008,39.264732
330749,-0.315975,-0.034193,-0.111621,-40.400208,-83.158901,38.964768
330849,-0.351502,-0.047167,-0.090614,-40.419428,-83.214807,38.779956
330949,-0.382569,-0.057749,-0.086886,-40.502306,-83.273942,38.641361
331049,-0.411519,-0.053244,-0.0887,-40.580233,-83.331804,38.481102
331149,-0.409765,-0.057322,-0.103108,-40.615312,-83.396817,38.278742
331249,-0.391385,-0.0914,-0.111945,-40.715391,-83.479951,38.152444
331349,-0.377851,-0.140229,-0.109986,-40.977061,-83.583535,38.19661
331449,-0.369502,-0.172896,-0.095557,-41.406738,-83.695695,38.41465
331549,-0.351076,-0.180726,-0.075457,-41.944179,-83.803297,38.751703
331649,-0.324417,-0.1649,-0.055984,-42.501626,-83.896279,39.124217
331749,-0.291918,-0.159888,-0.055314,-43.038829,-83.986451,39.495075
331849,-0.239315,-0.14766,-0.059358,-43.496848,-84.072709,39.816596
331949,-0.196503,-0.09691,-0.063644,-43.727947,-84.139349,39.934633
332049,-0.170986,-0.018824,-0.072532,-43.608034,-84.177079,39.714533
332149,-0.141382,0.047698,-0.073114,-43.20902,-84.187204,39.230962
332249,-0.10103,0.091484,-0.069705,-42.632368,-84.177171,38.592089
332349,-0.042012,0.117282,-0.072857,-41.914334,-84.156647,37.845094
332449,0.020965,0.130179,-0.077733,-41.097848,-84.131391,37.0354
332549,0.096441,0.119121,-0.088794,-40.238314,-84.113832,36.225902
332649,0.161929,0.064619,-0.096758,-39.504913,-84.121982,35.580953
332749,0.223452,-0.017115,-0.102056,-38.998791,-84.167567,35.199985
332849,0.273314,-0.083001,-0.109145,-38.659156,-84.244777,35.015163
332949,0.330453,-0.091546,-0.114608,-38.285618,-84.327602,34.829245
333049,0.366416,-0.034251,-0.116823,-37.66748,-84.385112,34.418302
333149,0.358653,0.061404,-0.122623,-36.678484,-84.400324,33.630293
333249,0.309917,0.146809,-0.128225,-35.395219,-84.376252,32.518529
333349,0.248841,0.211358,-0.136596,-33.907686,-84.321795,31.166226
333449,0.197007,0.312469,-0.140126,-32.152086,-84.216068,29.514409
333549,0.165911,0.490332,-0.161154,-29.882153,-84.023435,27.32712
333649,0.169751,0.69224,-0.18562,-27.147726,-83.726211,24.673833
333749,0.17843,0.812096,-0.218487,-24.262653,-83.361777,21.872198
333849,0.188398,0.784874,-0.227657,-21.680302,-82.999251,19.379088
333949,0.204833,0.583099,-0.252355,-19.538964,-82.738183,17.33825
334049,0.194409,0.209958,-0.26156,-18.014778,-82.673431,15.912864
334149,0.069206,-0.223327,-0.194568,-17.445304,-82.830298,15.377751
334249,-0.100545,-0.562344,-0.139767,-17.671516,-83.162794,15.54661
334349,-0.209494,-0.71679,-0.107449,-18.379813,-83.573624,16.137794
334449,-0.204556,-0.755666,-0.110574,-19.22656,-84.005229,16.870543
334549,-0.163462,-0.691622,-0.134498,-19.910069,-84.405802,17.462244
334649,-0.134096,-0.515059,-0.15229,-20.185055,-84.71434,17.660049
334749,-0.140871,-0.258732,-0.107283,-20.190041,-84.876086,17.582729
334849,-0.162622,-0.010117,-0.051494,-19.991688,-84.893055,17.288743
334949,-0.192721,0.129049,-0.005729,-19.784085,-84.826028,16.968159
335049,-0.23751,0.208537,0.059921,-19.827328,-84.703373,16.873693
335149,-0.315197,0.197754,0.145108,-20.421634,-84.569794,17.28805
335249,-0.40913,0.085004,0.226021,-21.73267,-84.479222,18.368507
335349,-0.487903,-0.047248,0.293572,-23.719797,-84.44069,20.083078
335449,-0.461823,-0.17064,0.313486,-26.085573,-84.455243,22.193193
335549,-0.378936,-0.290193,0.300905,-28.685411,-84.525104,24.586054
335649,-0.212146,-0.382556,0.240986,-31.228049,-84.647608,27.017075
335749,-0.024432,-0.441926,0.181736,-33.670898,-84.806961,29.455328
335849,0.101035,-0.463241,0.136179,-36.032436,-84.981727,31.88346
335949,0.155282,-0.433755,0.115777,-38.298425,-85.141221,34.246237
336049,0.139676,-0.374165,0.115657,-40.455651,-85.266396,36.490353
336149,0.095983,-0.307008,0.122424,-42.466788,-85.353265,38.562376
336249,0.043423,-0.231638,0.131401,-44.251235,-85.399554,40.37651
336349,0.000568,-0.167729,0.135553,-45.786142,-85.414028,41.915551
336449,-0.025927,-0.128619,0.139051,-47.156237,-85.408491,43.273988
336549,-0.021413,-0.104713,0.137281,-48.383909,-85.392036,44.492151
336649,0.011639,-0.106325,0.136655,-49.589232,-85.374387,45.706919
336749,0.069307,-0.127656,0.135745,-50.864565,-85.362843,47.025105
336849,0.12089,-0.153957,0.135862,-52.250393,-85.358149,48.483818
336949,0.171934,-0.208768,0.129026,-53.887078,-85.372347,50.223542
337049,0.218791,-0.256908,0.109584,-55.710462,-85.407302,52.177435
337149,0.24028,-0.291612,0.081663,-57.651626,-85.461378,54.261694
337249,0.242277,-0.30052,0.056233,-59.599524,-85.5249,56.353659
337349,0.227526,-0.284055,0.044172,-61.460871,-85.584308,58.350128
337449,0.206935,-0.244748,0.042093,-63.113164,-85.629537,60.124916
337549,0.17476,-0.21202,0.0524,-64.626957,-85.657449,61.742184
337649,0.137774,-0.197139,0.065584,-66.117393,-85.671735,63.314682
337749,0.107013,-0.17628,0.075507,-67.516088,-85.673113,64.777432
337849,0.095243,-0.123684,0.081649,-68.566934,-85.657621,65.884538
337949,0.105937,-0.040999,0.085722,-69.033334,-85.621731,66.411646
338049,0.118346,0.051785,0.088059,-68.847746,-85.565396,66.291972
338149,0.119489,0.118369,0.092805,-68.226465,-85.49251,65.735905
338249,0.120675,0.139895,0.0927,-67.480329,-85.414518,65.055199
338349,0.109966,0.121916,0.097783,-66.894019,-85.337217,64.528598
338449,0.101435,0.094971,0.104833,-66.520583,-85.261962,64.210615
338549,0.088439,0.081814,0.120252,-66.289148,-85.181498,64.027605
338649,0.059879,0.084803,0.139577,-66.114438,-85.09017,63.885059
338749,-0.000998,0.095467,0.158848,-65.967349,-84.98626,63.735174
338849,-0.08461,0.109473,0.167505,-65.814234,-84.874544,63.531076
338949,-0.149451,0.15057,0.167569,-65.47136,-84.753039,63.099045
339049,-0.158365,0.245924,0.15414,-64.590059,-84.615053,62.120989
339149,-0.073164,0.394372,0.14636,-62.90244,-84.441423,60.381684
339249,0.065134,0.586887,0.16014,-60.325836,-84.20228,57.828037
339349,0.216746,0.798756,0.189602,-56.99616,-83.872752,54.603321
339449,0.325837,0.964763,0.238551,-53.421627,-83.446223,51.192926
339549,0.338164,0.99063,0.260372,-50.248982,-82.979285,48.191383
339649,0.242949,0.826651,0.280928,-48.112549,-82.549037,46.176543
339749,0.117007,0.472171,0.311191,-47.441071,-82.236472,45.565214
339849,0.015623,0.069412,0.292057,-48.035505,-82.087239,46.172815
339949,-0.010806,-0.262484,0.226778,-49.472801,-82.090133,47.616227
340049,0.021618,-0.490589,0.131328,-51.381993,-82.21272,49.554546
340149,0.098007,-0.620971,0.058172,-53.56868,-82.404571,51.816335
340249,0.140232,-0.674281,0.017658,-55.937649,-82.620844,54.285328
340349,0.141611,-0.633998,0.008474,-58.269386,-82.815593,56.716487
340449,0.156482,-0.502822,0.011773,-60.197339,-82.958617,58.74848
340549,0.210888,-0.252857,0.020564,-61.157362,-83.020649,59.836277
340649,0.297294,-0.088091,-0.013581,-61.325668,-83.053066,60.176276
340749,0.296923,0.043518,-0.040852,-60.89042,-83.062816,59.908045
340849,0.308509,0.130319,-0.065415,-60.035003,-83.059929,59.223237
340949,0.323946,0.142521,-0.070133,-59.110887,-83.054568,58.478111
341049,0.321826,0.115286,-0.078164,-58.278593,-83.059911,57.824225
341149,0.273745,0.074962,-0.105057,-57.5654,-83.089585,57.262527
341249,0.165934,0.009218,-0.150264,-57.054032,-83.160764,56.841877
341349,0.032262,-0.061532,-0.193429,-56.781267,-83.274535,56.58438
341449,-0.114348,-0.090617,-0.227723,-56.610399,-83.413837,56.344885
341549,-0.238426,-0.075969,-0.250659,-56.375887,-83.559424,55.969781
341649,-0.301289,-0.082665,-0.264991,-56.150716,-83.713832,55.5679
341749,-0.328956,-0.094124,-0.263814,-55.979678,-83.8712,55.204626
341849,-0.354215,-0.067793,-0.249697,-55.733636,-84.013251,54.751472
341949,-0.374701,-0.026515,-0.237105,-55.332878,-84.13567,54.131096
342049,-0.376196,0.009163,-0.217258,-54.810829,-84.236505,53.388101
342149,-0.366735,0.032526,-0.186931,-54.254348,-84.314665,52.616113
342249,-0.359495,0.049253,-0.157669,-53.69837,-84.372837,51.848939
342349,-0.356151,0.059985,-0.129102,-53.177438,-84.413448,51.119013
342449,-0.369842,0.060335,-0.102687,-52.748394,-84.441234,50.473605
342549,-0.388029,0.051144,-0.084259,-52.434165,-84.463398,49.933133
342649,-0.385545,0.051095,-0.073705,-52.153821,-84.480499,49.428167
342749,-0.37434,0.053177,-0.079087,-51.834941,-84.499023,48.890958
342849,-0.336956,0.044785,-0.088292,-51.496517,-84.524347,48.355663
342949,-0.298296,0.025442,-0.099829,-51.178707,-84.561434,47.863373
343049,-0.257135,0.005546,-0.110809,-50.883096,-84.610292,47.417134
343149,-0.245402,-0.001674,-0.1129,-50.600064,-84.662431,46.990361
343249,-0.235661,-0.010641,-0.107498,-50.368724,-84.715209,46.621199
343349,-0.211734,-0.000226,-0.098742,-50.103028,-84.760095,46.23139
343449,-0.183893,0.013544,-0.09614,-49.760262,-84.798505,45.780291
343549,-0.147655,0.0235,-0.097893,-49.335829,-84.833643,45.268113
343649,-0.11077,0.027262,-0.090797,-48.895592,-84.86389,44.761353
343749,-0.08034,0.034899,-0.081193,-48.436489,-84.886709,44.253206
343849,-0.073064,0.035219,-0.078928,-47.97699,-84.908031,43.748881
343949,-0.081052,0.018531,-0.082872,-47.580175,-84.937074,43.302927
344049,-0.087639,-0.001889,-0.091873,-47.239735,-84.977532,42.909811
344149,-0.072871,-0.000161,-0.1007,-46.836597,-85.020747,42.462288
344249,-0.0349,0.003658,-0.108616,-46.349508,-85.065408,41.952383
344349,0.043152,-0.003729,-0.128514,-45.751099,-85.120761,41.375704
344449,0.146517,-0.002127,-0.162799,-44.90771,-85.18878,40.612701
344549,0.270243,0.013293,-0.193614,-43.743483,-85.261634,39.599021
344649,0.33716,0.007732,-0.201924,-42.491107,-85.338216,38.535543
344749,0.31672,0.039226,-0.202711,-41.060245,-85.399504,37.281396
344849,0.222129,0.164659,-0.198228,-39.101674,-85.401019,35.443539
344949,0.119309,0.356352,-0.171369,-36.542436,-85.300388,32.943789
345049,0.040928,0.582426,-0.135579,-33.490441,-85.071965,29.90383
345149,0.044515,0.755006,-0.134767,-30.167259,-84.745366,26.592338
345249,0.098068,0.802846,-0.150169,-27.002966,-84.382846,23.469384
345349,0.114967,0.724689,-0.158972,-24.349425,-84.048457,20.867609
345449,0.09249,0.530361,-0.174074,-22.302901,-83.809445,18.861937
345549,0.027976,0.308348,-0.213765,-20.654642,-83.690593,17.219034
345649,-0.06049,0.093904,-0.274671,-19.184096,-83.694485,15.703738
345749,-0.147224,-0.149181,-0.266037,-18.197858,-83.825282,14.625847
345849,-0.199589,-0.361343,-0.222393,-17.77178,-84.062612,14.081457
345949,-0.154507,-0.467808,-0.184806,-17.669287,-84.351289,13.888501
346049,-0.018838,-0.496427,-0.171041,-17.603389,-84.653227,13.81044
346149,0.09202,-0.433733,-0.177073,-17.304083,-84.921951,13.561745
346249,0.091335,-0.289513,-0.149338,-16.869138,-85.106905,13.176524
346349,0.013955,-0.141554,-0.095833,-16.511086,-85.201644,12.824021
346449,-0.082118,-0.096318,-0.056139,-16.370682,-85.264997,12.634701
346549,-0.187886,-0.10623,-0.045136,-16.380173,-85.332043,12.534972
346649,-0.292217,-0.084564,-0.017801,-16.591305,-85.382788,12.577578
346749,-0.389304,-0.078016,0.033287,-17.19801,-85.421442,12.961242
346849,-0.488226,-0.094551,0.08924,-18.291459,-85.458916,13.776361
346949,-0.485074,-0.153471,0.165825,-20.069368,-85.512244,15.279899
347049,-0.4571,-0.2499,0.209608,-22.439422,-85.603677,17.393357
347149,-0.347913,-0.303287,0.209532,-25.008826,-85.716012,19.769232
347249,-0.19802,-0.305739,0.181185,-27.431154,-85.828853,22.083422
347349,-0.079291,-0.278545,0.147101,-29.564666,-85.930443,24.175937
347449,-0.016124,-0.238627,0.127132,-31.454021,-86.012791,26.059723
347549,-0.000175,-0.209047,0.116613,-33.201414,-86.079803,27.810169
347649,-0.007545,-0.205722,0.121366,-35.028394,-86.139922,29.635983
347749,-0.027532,-0.202815,0.132871,-36.986165,-86.190706,31.581245
347849,-0.042462,-0.189449,0.139282,-38.972421,-86.228692,33.546341
347949,-0.047098,-0.17075,0.141526,-40.906064,-86.253177,35.455945
348049,-0.041141,-0.151324,0.145621,-42.769454,-86.263642,37.298514
348149,-0.026094,-0.145652,0.154054,-44.650191,-86.264479,39.167088
348249,-0.005078,-0.149062,0.163796,-46.598032,-86.25862,41.114978
348349,0.015705,-0.149795,0.172518,-48.580731,-86.244999,43.109751
348449,0.039266,-0.150275,0.177106,-50.561555,-86.225052,45.116201
348549,0.065078,-0.165942,0.176504,-52.608324,-86.206337,47.203592
348649,0.09924,-0.184747,0.172645,-54.725056,-86.190796,49.380742
348749,0.143866,-0.20339,0.162869,-56.883533,-86.180523,51.625366
348849,0.184705,-0.244987,0.150953,-59.256942,-86.18276,54.108839
348949,0.192568,-0.282596,0.142303,-61.873539,-86.192708,56.840513
349049,0.189755,-0.289706,0.138985,-64.542302,-86.19781,59.6228
349149,0.177772,-0.272587,0.141074,-67.089419,-86.189407,62.27626
349249,0.157638,-0.245337,0.148397,-69.433855,-86.163834,64.715033
349349,0.133275,-0.231651,0.153084,-71.657976,-86.126679,67.01927
349449,0.120358,-0.186794,0.154583,-73.485637,-86.07558,68.918783
349549,0.115788,-0.120756,0.150914,-74.73245,-86.012721,70.233521
349649,0.113642,-0.056787,0.159685,-75.456286,-85.934038,71.022845
349749,0.118111,-0.014657,0.160006,-75.825799,-85.848677,71.459557
349849,0.134615,0.012531,0.156059,-75.957735,-85.761585,71.667568
349949,0.146786,0.026482,0.157384,-75.975278,-85.671804,71.767863
350049,0.152255,0.032007,0.162878,-75.956927,-85.578208,71.8353
350149,0.139024,0.027029,0.175071,-76.001017,-85.478528,71.957762
350249,0.090018,0.02574,0.195234,-76.112032,-85.367808,72.119197
350349,0.002932,0.023089,0.222286,-76.327587,-85.242379,72.335464
350449,-0.083452,0.020373,0.240536,-76.626556,-85.107103,72.58577
350549,-0.144096,0.053794,0.241316,-76.733709,-84.966966,72.608643
350649,-0.152855,0.150809,0.224489,-76.219604,-84.823275,72.002666
350749,-0.105009,0.309236,0.18353,-74.700824,-84.678635,70.415082
350849,0.027738,0.489993,0.141821,-72.082911,-84.522159,67.799412
350949,0.149384,0.705295,0.120092,-68.338752,-84.32215,64.121381
351049,0.248965,0.899587,0.11434,-63.822492,-84.05467,59.723158
351149,0.278,0.99038,0.12955,-59.327088,-83.720528,55.3603
351249,0.231255,0.963684,0.150778,-55.493586,-83.35156,51.633738
351349,0.170758,0.914446,0.167495,-52.332692,-82.966623,48.5469
351449,0.148276,0.79394,0.17476,-49.942066,-82.604505,46.221074
351549,0.143619,0.550389,0.166608,-48.522554,-82.327635,44.87051
351649,0.157142,0.233436,0.123935,-48.044156,-82.187046,44.476934
351749,0.191022,-0.047614,0.05091,-48.223944,-82.185005,44.767286
351849,0.249057,-0.224998,-0.009599,-48.762349,-82.276073,45.453154
351949,0.26456,-0.269343,-0.033557,-49.384587,-82.393225,46.232457
352049,0.262166,-0.255617,-0.031182,-49.99155,-82.503109,46.994836
352149,0.234554,-0.17135,-0.001577,-50.431388,-82.568095,47.572647
352249,0.219105,-0.099908,0.041878,-50.76595,-82.587302,48.035399
352349,0.229424,-0.027571,0.070967,-50.929794,-82.567115,48.332021
352449,0.26334,0.03211,0.074379,-50.879697,-82.523787,48.432538
352549,0.313795,0.055538,0.053862,-50.665507,-82.481111,48.396723
352649,0.357742,0.061897,0.01141,-50.289623,-82.454889,48.223178
352749,0.367856,0.075275,-0.048498,-49.698982,-82.449902,47.838783
352849,0.345165,0.105448,-0.116285,-48.831083,-82.462497,47.161524
352949,0.284152,0.131731,-0.183473,-47.715198,-82.492338,46.198818
353049,0.18901,0.131934,-0.233345,-46.495275,-82.540533,45.076208
353149,0.099473,0.113867,-0.269842,-45.255157,-82.607855,43.881577
353249,0.012223,0.084039,-0.292691,-44.06234,-82.693283,42.684385
353349,-0.067264,0.070182,-0.295952,-42.919134,-82.782638,41.491491
353449,-0.113718,0.053106,-0.287708,-41.854013,-82.873119,40.350686
353549,-0.137436,0.031849,-0.281615,-40.860391,-82.967853,39.26846
353649,-0.143305,0.026812,-0.278808,-39.867522,-83.061403,38.183833
353749,-0.147808,0.051904,-0.264908,-38.826127,-83.136406,37.047947
353849,-0.150061,0.069785,-0.239423,-37.80694,-83.191828,35.933318
353949,-0.160908,0.052219,-0.21063,-36.939571,-83.243026,34.965478
354049,-0.171122,-0.005538,-0.185786,-36.328626,-83.310795,34.250093
354149,-0.202712,-0.082117,-0.162491,-36.037625,-83.405429,33.83873
354249,-0.238653,-0.153753,-0.137512,-36.070623,-83.524707,33.732861
354349,-0.270749,-0.21754,-0.126713,-36.35976,-83.669842,33.866267
354449,-0.286491,-0.264934,-0.12684,-36.817219,-83.836713,34.159892
354549,-0.29323,-0.278293,-0.127692,-37.339812,-84.009683,34.515048
354649,-0.273006,-0.28734,-0.126433,-37.913483,-84.185914,34.933108
354749,-0.244065,-0.285372,-0.115197,-38.545216,-84.356764,35.426085
354849,-0.212588,-0.28537,-0.100815,-39.260373,-84.521788,36.020898
354949,-0.202828,-0.280753,-0.087054,-40.057153,-84.678903,36.703194
355049,-0.194496,-0.248702,-0.084063,-40.775866,-84.819989,37.31177
355149,-0.162005,-0.205851,-0.08756,-41.312139,-84.943184,37.755785
355249,-0.107775,-0.13878,-0.089467,-41.536978,-85.037953,37.918328
355349,-0.067773,-0.053667,-0.095937,-41.335446,-85.098554,37.675932
355449,-0.031366,0.009295,-0.09906,-40.813007,-85.13295,37.132438
355549,-0.003845,0.030787,-0.103585,-40.149808,-85.159133,36.463548
355649,0.010579,0.026918,-0.104675,-39.482118,-85.186707,35.798495
355749,0.026486,0.02759,-0.104198,-38.797336,-85.213094,35.125488
355849,0.054909,0.035863,-0.102276,-38.064115,-85.234332,34.420264
355949,0.093664,0.03372,-0.102247,-37.311577,-85.255722,33.717991
356049,0.151024,-0.001325,-0.09738,-36.692325,-85.29073,33.182506
356149,0.200714,-0.019137,-0.102364,-36.081724,-85.335128,32.684346
356249,0.265881,0.017034,-0.107424,-35.246006,-85.363816,31.997866
356349,0.325662,0.056302,-0.11408,-34.170769,-85.375198,31.105517
356449,0.343072,0.092488,-0.118471,-32.914956,-85.369159,30.042044
356549,0.324201,0.127793,-0.133393,-31.452738,-85.348446,28.760618
356649,0.288911,0.202963,-0.157995,-29.612003,-85.294731,27.079019
356749,0.232823,0.366111,-0.170978,-27.249099,-85.157273,24.84088
356849,0.186661,0.581215,-0.193603,-24.322967,-84.90594,22.010102
356949,0.163155,0.771296,-0.200892,-21.222512,-84.543217,18.989288
357049,0.136515,0.89775,-0.170294,-18.461734,-84.092716,16.292358
357149,0.124815,0.900195,-0.161767,-16.13673,-83.62813,14.024717
357249,0.115566,0.765039,-0.219337,-14.021348,-83.237994,11.960852
357349,0.106524,0.528999,-0.241397,-12.272,-82.974878,10.259077
357449,0.083103,0.143836,-0.224923,-11.065691,-82.920995,9.090391
357549,-0.040966,-0.262032,-0.177549,-10.499794,-83.088438,8.49543
357649,-0.161085,-0.54531,-0.164355,-10.281117,-83.41381,8.181067
357749,-0.242698,-0.691693,-0.177304,-10.149232,-83.823034,7.907143
357849,-0.296741,-0.647588,-0.186994,-9.922825,-84.208303,7.50716
357949,-0.353996,-0.438383,-0.145281,-9.722265,-84.471245,7.100336
358049,-0.352767,-0.171988,-0.106152,-9.46096,-84.579781,6.633284
358149,-0.31395,0.018357,-0.070334,-9.194598,-84.57716,6.183522
358249,-0.275684,0.113418,-0.031706,-9.047687,-84.517106,5.875775
358349,-0.30928,0.171097,0.029249,-9.226644,-84.418907,5.876088
358449,-0.393585,0.148456,0.106442,-9.911679,-84.326189,6.336462
358549,-0.473356,0.047215,0.182701,-11.15906,-84.281813,7.316176
358649,-0.497263,-0.075077,0.233081,-12.834955,-84.297558,8.712874
358749,-0.476452,-0.154307,0.246989,-14.699,-84.351234,10.310607
358849,-0.383025,-0.19452,0.229349,-16.508856,-84.424747,11.907544
358949,-0.302357,-0.218474,0.195603,-18.16997,-84.51237,13.401286
359049,-0.156001,-0.235494,0.197122,-19.840345,-84.604703,14.988367
359149,-0.072871,-0.301572,0.204062,-21.708451,-84.726337,16.821602
359249,-0.028282,-0.328856,0.200412,-23.684077,-84.857413,18.788069
359349,-0.014363,-0.312176,0.217208,-25.80299,-84.969318,20.905996
359449,-0.038365,-0.276343,0.238906,-28.043787,-85.050055,23.132117
359549,-0.07329,-0.223595,0.252429,-30.274516,-85.092998,25.327802
359649,-0.100369,-0.176603,0.253605,-32.393519,-85.105393,27.395656
359749,-0.094181,-0.130327,0.25244,-34.335259,-85.089732,29.28914
359849,-0.075441,-0.099389,0.248409,-36.109073,-85.055675,31.024909
359949,-0.044274,-0.083909,0.236851,-37.717034,-85.014117,32.612213
360049,-0.009061,-0.090439,0.2252,-39.245396,-84.975896,34.139958
360149,0.030928,-0.125123,0.218845,-40.842372,-84.951612,35.759652
360249,0.081749,-0.177436,0.211229,-42.585897,-84.948474,37.555727
360349,0.130946,-0.217053,0.202803,-44.437927,-84.960168,39.488998
360449,0.174028,-0.230188,0.191133,-46.281058,-84.976422,41.438053
360549,0.203614,-0.240224,0.176112,-48.100341,-84.997434,43.380094
360649,0.205536,-0.255561,0.162301,-49.950624,-85.024746,45.354248
360749,0.19568,-0.267329,0.151493,-51.841918,-85.055504,47.363766
360849,0.186588,-0.270104,0.145778,-53.752144,-85.084053,49.386921
360949,0.182306,-0.263275,0.141438,-55.630421,-85.106608,51.375422
361049,0.170801,-0.234922,0.148739,-57.395921,-85.111293,53.24403
361149,0.171714,-0.150305,0.16286,-58.725939,-85.079155,54.676076
361249,0.156201,-0.052008,0.175426,-59.527245,-85.009662,55.568579
361349,0.134979,0.022489,0.182649,-59.922607,-84.914273,56.04144
361449,0.113603,0.057902,0.176278,-60.099323,-84.811697,56.28252
361549,0.095403,0.053206,0.161664,-60.257983,-84.717663,56.495002
361649,0.07042,0.044067,0.148584,-60.432818,-84.632682,56.709349
361749,0.062022,0.052631,0.146175,-60.553833,-84.546441,56.864795
361849,0.051149,0.075768,0.157333,-60.589391,-84.448109,56.928121
361949,0.025825,0.091252,0.176515,-60.613408,-84.335859,56.965244
362049,-0.035934,0.108877,0.198463,-60.644612,-84.207725,56.973982
362149,-0.117251,0.139112,0.213532,-60.615669,-84.063609,56.875357
362249,-0.186227,0.188757,0.213016,-60.394474,-83.905764,56.543573
362349,-0.186971,0.282758,0.19774,-59.721943,-83.728372,55.757212
362449,-0.108267,0.433868,0.187283,-58.364433,-83.510092,54.326637
362549,0.031146,0.653722,0.203966,-56.174811,-83.210766,52.138015
362649,0.18661,0.877755,0.227892,-53.323353,-82.815195,49.37082
362749,0.308751,1.000703,0.263726,-50.392697,-82.343411,46.591778
362849,0.306307,0.987735,0.266498,-47.846325,-81.858705,44.196249
362949,0.239218,0.791086,0.265905,-46.153137,-81.439354,42.621574
363049,0.143449,0.405916,0.252971,-45.634242,-81.174705,42.177994
363149,0.063746,-0.021072,0.22895,-46.235253,-81.090236,42.821509
363249,0.046584,-0.380576,0.168808,-47.651092,-81.169942,44.279811
363349,0.110544,-0.614675,0.097178,-49.546725,-81.362694,46.260106
363449,0.193868,-0.775704,0.045363,-51.846228,-81.625793,48.695871
363549,0.20216,-0.865923,0.018576,-54.52318,-81.916293,51.51613
363649,0.222176,-0.895587,-0.002749,-57.443139,-82.206344,54.591375
363749,0.23051,-0.773309,0.003122,-60.133186,-82.435978,57.437634
363849,0.240413,-0.517384,0.022359,-62.019481,-82.569554,59.477823
363949,0.275289,-0.210909,0.03451,-62.761246,-82.609368,60.383646
364049,0.29546,0.041841,0.03338,-62.501611,-82.582658,60.291321
364149,0.332138,0.183761,0.011702,-61.629191,-82.528698,59.602201
364249,0.377029,0.251218,-0.019525,-60.421188,-82.470067,58.600449
364349,0.401895,0.260816,-0.055189,-59.102542,-82.423495,57.501303
364449,0.391818,0.206555,-0.086788,-57.930394,-82.405536,56.543998
364549,0.295205,0.120597,-0.12849,-57.031172,-82.432003,55.806124
364649,0.154191,0.048398,-0.17425,-56.357785,-82.501851,55.214555
364749,0.021914,-0.033666,-0.215723,-55.945273,-82.616971,54.809693
364849,-0.073843,-0.117296,-0.236384,-55.833537,-82.768592,54.652809
364949,-0.154964,-0.175629,-0.242313,-55.970331,-82.941817,54.69956
365049,-0.210026,-0.210245,-0.240564,-56.284544,-83.125259,54.893217
365149,-0.243891,-0.21935,-0.237166,-56.678286,-83.309806,55.147332
365249,-0.250912,-0.21013,-0.235081,-57.06107,-83.490235,55.386274
365349,-0.260149,-0.168743,-0.218927,-57.332125,-83.649838,55.507396
365449,-0.250917,-0.118864,-0.203623,-57.429705,-83.786557,55.45932
365549,-0.243021,-0.062363,-0.186419,-57.318293,-83.897472,55.205641
365649,-0.229953,-0.004786,-0.157264,-57.016102,-83.976322,54.767728
365749,-0.236381,0.043493,-0.12495,-56.584537,-84.024199,54.196112
365849,-0.249402,0.047945,-0.107956,-56.18443,-84.062091,53.648699
365949,-0.257766,0.012555,-0.106028,-55.951581,-84.110046,53.264686
366049,-0.250061,-0.028072,-0.114036,-55.872223,-84.174715,53.039468
366149,-0.237774,-0.044475,-0.126827,-55.818471,-84.250665,52.847114
366249,-0.237777,-0.049999,-0.136617,-55.755859,-84.332974,52.645907
366349,-0.245472,-0.047617,-0.13575,-55.685105,-84.414034,52.432149
366449,-0.245457,-0.049186,-0.12241,-55.662648,-84.489213,52.266995
366549,-0.247485,-0.050998,-0.107976,-55.696851,-84.558081,52.157664
366649,-0.23815,-0.056719,-0.102615,-55.771846,-84.626193,52.094743
366749,-0.202029,-0.081632,-0.095674,-55.977405,-84.698959,52.183801
366849,-0.154337,-0.06447,-0.098524,-56.060288,-84.767487,52.177139
366949,-0.093802,0.006755,-0.107579,-55.703705,-84.817351,51.764053
367049,-0.032964,0.074047,-0.110526,-54.942292,-84.846239,50.979538
367149,0.02107,0.135273,-0.109835,-53.827964,-84.853157,49.871815
367249,0.060993,0.156257,-0.108997,-52.58521,-84.850378,48.658156
367349,0.096312,0.133071,-0.109701,-51.436521,-84.853754,47.559308
367449,0.091538,0.108017,-0.109139,-50.414703,-84.863989,46.585156
367549,0.081751,0.079188,-0.110569,-49.529066,-84.883955,45.742171
367649,0.106741,0.040386,-0.111366,-48.807047,-84.917691,45.077917
367749,0.185515,0.035231,-0.122605,-48.007132,-84.95737,44.380863
367849,0.302454,0.061189,-0.137947,-46.935941,-84.992418,43.478841
367949,0.384583,0.062383,-0.149036,-45.747728,-85.029971,42.506687
368049,0.382174,0.071529,-0.146337,-44.514714,-85.060862,41.488262
368149,0.279546,0.115308,-0.132522,-43.192979,-85.066116,40.32179
368249,0.156896,0.198693,-0.122376,-41.620161,-85.029533,38.83269
368349,0.09267,0.348926,-0.125877,-39.463595,-84.924585,36.72041
368449,0.092373,0.538018,-0.132971,-36.64616,-84.728831,33.943802
368549,0.096203,0.694203,-0.14054,-33.478715,-84.4495,30.816668
368649,0.072761,0.780726,-0.140342,-30.388871,-84.112428,27.752322
368749,0.077724,0.733216,-0.159262,-27.664258,-83.789531,25.05626
368849,0.092389,0.492802,-0.22647,-25.417151,-83.595277,22.847747
368949,0.07009,0.131714,-0.242956,-23.969047,-83.585432,21.430002
369049,0.003025,-0.286925,-0.208014,-23.580083,-83.784642,21.039515
369149,-0.082325,-0.579269,-0.186246,-23.968618,-84.132226,21.3819
369249,-0.093438,-0.684226,-0.177884,-24.714483,-84.532343,22.076713
369349,-0.020839,-0.615636,-0.151582,-25.492742,-84.889597,22.845332
369449,0.048815,-0.431891,-0.129179,-25.929663,-85.145707,23.310924
369549,0.059966,-0.221926,-0.100524,-25.938296,-85.286336,23.352926
369649,0.010941,-0.043594,-0.039247,-25.815361,-85.319751,23.234684
369749,-0.068509,0.02931,0.010633,-25.829103,-85.303149,23.207887
369849,-0.136479,0.009727,0.048952,-26.18102,-85.287057,23.481334
369949,-0.192872,-0.039703,0.096681,-27.01343,-85.283857,24.204512
370049,-0.265922,-0.087938,0.164422,-28.459947,-85.285905,25.501928
370149,-0.335175,-0.144098,0.24403,-30.622248,-85.290127,27.477803
370249,-0.348824,-0.232766,0.286614,-33.380407,-85.317561,30.043725
370349,-0.284961,-0.327674,0.283796,-36.508512,-85.379698,33.017438
370449,-0.150737,-0.375785,0.264505,-39.748147,-85.45687,36.179946
370549,0.006938,-0.336421,0.205302,-42.483461,-85.52607,38.926895
370649,0.155159,-0.29604,0.150115,-44.710975,-85.590887,41.249457
370749,0.201511,-0.30429,0.110042,-46.814658,-85.668603,43.474231
370849,0.195833,-0.295208,0.092281,-48.854396,-85.744188,45.631367
370949,0.142919,-0.267207,0.096349,-50.846818,-85.801927,47.710432
371049,0.065809,-0.23078,0.119998,-52.820317,-85.830792,49.726059
371149,0.002087,-0.194116,0.137285,-54.697333,-85.834318,51.608244
371249,-0.035023,-0.162366,0.152019,-56.452053,-85.816284,53.346458
371349,-0.036281,-0.141375,0.16251,-58.094877,-85.782963,54.971781
371449,-0.006907,-0.13834,0.166634,-59.689656,-85.743385,56.565856
371549,0.028416,-0.140144,0.162868,-61.231799,-85.702997,58.127511
371649,0.063397,-0.153132,0.15359,-62.779007,-85.66768,59.714408
371749,0.093558,-0.173387,0.145934,-64.394491,-85.638175,61.387166
371849,0.11396,-0.195433,0.141178,-66.110596,-85.612759,63.172614
371949,0.128443,-0.218435,0.138522,-67.947083,-85.589683,65.087163
372049,0.144431,-0.233414,0.128244,-69.830211,-85.570454,67.057707
372149,0.164044,-0.23823,0.115991,-71.68823,-85.55384,69.01435
372249,0.191823,-0.23477,0.10108,-73.458162,-85.54003,70.898603
372349,0.220068,-0.234322,0.089691,-75.173762,-85.528025,72.744576
372449,0.224583,-0.243183,0.078882,-76.920019,-85.51896,74.623866
372549,0.202871,-0.2407,0.069387,-78.637355,-85.510524,76.461633
372649,0.173085,-0.187093,0.065505,-79.97324,-85.494788,77.899629
372749,0.162215,-0.099935,0.071201,-80.687449,-85.465461,78.707762
372849,0.155347,-0.02433,0.081475,-80.8706,-85.422909,78.979213
372949,0.147322,0.024248,0.088846,-80.721764,-85.371752,78.912975
373049,0.128868,0.05479,0.089738,-80.375353,-85.317221,78.637863
373149,0.10164,0.08818,0.089192,-79.82308,-85.259563,78.140482
373249,0.074248,0.124423,0.094947,-79.063047,-85.194419,77.418794
373349,0.033865,0.126393,0.108584,-78.350969,-85.120645,76.721914
373449,-0.006115,0.108588,0.12856,-77.825203,-85.037162,76.188944
373549,-0.070717,0.063738,0.152708,-77.671065,-84.945363,75.991773
373649,-0.149066,0.028448,0.169797,-77.809592,-84.848327,76.043287
373749,-0.188546,0.056212,0.168898,-77.795714,-84.748489,75.918986
373849,-0.169213,0.173005,0.154343,-77.055933,-84.642209,75.07668
373949,-0.083876,0.340673,0.120455,-75.274211,-84.53016,73.23665
374049,0.05865,0.545394,0.11211,-72.326904,-84.382891,70.307166
374149,0.166252,0.767217,0.112584,-68.308092,-84.175531,66.361899
374249,0.235162,0.929922,0.150733,-63.84201,-83.881696,62.004949
374349,0.254828,0.951662,0.190763,-59.797147,-83.528885,58.080569
374449,0.209933,0.895972,0.22462,-56.515762,-83.149692,54.896211
374549,0.156947,0.795038,0.257794,-54.068211,-82.7699,52.518988
374649,0.104727,0.579068,0.247104,-52.602572,-82.459317,51.099961
374749,0.056235,0.298766,0.19348,-52.061887,-82.268177,50.585343
374849,0.05958,0.02552,0.109888,-52.22474,-82.210821,50.78256
374949,0.122565,-0.169916,0.011525,-52.749815,-82.266286,51.381779
375049,0.181639,-0.288078,-0.048945,-53.501184,-82.389247,52.243382
375149,0.165366,-0.319468,-0.060434,-54.37124,-82.526488,53.21509
375249,0.170604,-0.298712,-0.050722,-55.22207,-82.650363,54.170232
375349,0.159012,-0.198849,-0.027088,-55.797728,-82.729066,54.841134
375449,0.14515,-0.074845,0.018113,-56.04298,-82.745833,55.170971
375549,0.169502,0.031894,0.030147,-55.907501,-82.722583,55.13113
375649,0.201602,0.092405,0.035165,-55.543968,-82.677397,54.879944
375749,0.232685,0.110654,0.016931,-55.054078,-82.634628,54.519285
375849,0.285693,0.130674,-0.028113,-54.351573,-82.605872,53.974789
375949,0.324048,0.151252,-0.089651,-53.398098,-82.597726,53.199274
376049,0.32746,0.166143,-0.146392,-52.239805,-82.608595,52.219096
376149,0.251821,0.197289,-0.193849,-50.882506,-82.627001,50.994475
376249,0.121249,0.218076,-0.235972,-49.402185,-82.652498,49.570334
376349,-0.033119,0.216601,-0.266056,-47.915765,-82.686839,48.050879
376449,-0.155529,0.182177,-0.273527,-46.574994,-82.732972,46.607624
376549,-0.249858,0.135378,-0.265129,-45.44833,-82.790342,45.32584
376649,-0.317604,0.094376,-0.253682,-44.509933,-82.856786,44.194839
376749,-0.35209,0.063017,-0.248013,-43.690925,-82.931689,43.164414
376849,-0.366225,0.051513,-0.248255,-42.896205,-83.009659,42.15049
376949,-0.360251,0.082052,-0.231523,-42.040494,-83.06641,41.078759
377049,-0.337506,0.124532,-0.205377,-41.117708,-83.092936,39.95274
377149,-0.323362,0.140608,-0.179908,-40.222854,-83.100757,38.86312
377249,-0.326111,0.14044,-0.146738,-39.449987,-83.094524,37.894845
377349,-0.341917,0.121223,-0.121727,-38.837179,-83.08634,37.078704
377449,-0.365661,0.089295,-0.107063,-38.387553,-83.086269,36.413255
377549,-0.384505,0.060652,-0.102874,-38.04767,-83.09703,35.847505
377649,-0.389775,0.034981,-0.102122,-37.786669,-83.11875,35.358205
377749,-0.393983,0.002544,-0.103309,-37.615343,-83.155342,34.956849
377849,-0.390952,-0.020545,-0.101062,-37.515121,-83.201486,34.62891
377949,-0.383682,-0.042557,-0.091846,-37.507962,-83.254337,34.398942
378049,-0.360224,-0.064046,-0.083797,-37.580543,-83.314096,34.262862
378149,-0.317103,-0.097495,-0.060394,-37.820166,-83.380785,34.319901
378249,-0.278167,-0.122926,-0.045541,-38.177197,-83.453595,34.517641
378349,-0.224754,-0.121925,-0.044065,-38.51265,-83.525198,34.724507
378449,-0.157463,-0.088194,-0.049059,-38.688159,-83.583281,34.809251
378549,-0.08743,-0.026441,-0.056207,-38.599161,-83.616186,34.668255
378649,-0.030544,0.023266,-0.062994,-38.290423,-83.629066,34.339001
378749,0.02173,0.038452,-0.069192,-37.877392,-83.63698,33.934991
378849,0.063233,0.013338,-0.068018,-37.523148,-83.655494,33.614112
378949,0.09907,-0.015791,-0.065862,-37.246502,-83.686248,33.392024
379049,0.121104,-0.023336,-0.065886,-36.978426,-83.720271,33.191319
379149,0.148013,-0.003799,-0.069593,-36.615859,-83.74642,32.911117
379249,0.203261,0.024918,-0.078412,-36.092777,-83.762021,32.501342
379349,0.238037,0.015669,-0.092474,-35.515907,-83.786154,32.057566
379449,0.316449,0.018028,-0.113681,-34.791348,-83.815569,31.510499
379549,0.39716,0.042933,-0.141744,-33.816997,-83.841307,30.758766
379649,0.441953,0.104971,-0.165885,-32.522878,-83.843164,29.711262
379749,0.448031,0.189754,-0.192486,-30.871428,-83.808696,28.307802
379849,0.404588,0.29181,-0.223838,-28.858348,-83.727535,26.515323
379949,0.338779,0.424455,-0.238213,-26.560143,-83.575552,24.39754
380049,0.268066,0.584801,-0.24454,-24.051732,-83.332298,22.02646
380149,0.22098,0.736631,-0.243782,-21.484315,-82.996912,19.567264
380249,0.14121,0.821801,-0.211804,-19.203648,-82.597406,17.348985
380349,0.054409,0.754255,-0.226417,-17.22916,-82.227388,15.387411
380449,-0.051412,0.543782,-0.225435,-15.726272,-81.965386,13.839255
380549,-0.095435,0.185601,-0.268221,-14.535185,-81.903206,12.579932
380649,-0.161925,-0.202613,-0.249723,-13.843007,-82.051414,11.786122
380749,-0.22616,-0.507125,-0.202366,-13.651529,-82.361983,11.460963
380849,-0.220104,-0.643967,-0.186212,-13.647443,-82.746639,11.328501
380949,-0.148614,-0.677953,-0.195704,-13.586987,-83.151606,11.180558
381049,-0.113827,-0.603852,-0.207818,-13.345806,-83.516926,10.87076
381149,-0.146453,-0.447555,-0.189269,-12.999733,-83.792474,10.436748
381249,-0.207072,-0.263308,-0.154448,-12.61938,-83.960368,9.933489
381349,-0.248293,-0.128296,-0.12016,-12.265838,-84.048167,9.433576
381449,-0.26506,-0.060039,-0.079188,-12.054286,-84.09257,9.066858
381549,-0.291676,-0.039563,-0.011565,-12.199355,-84.11739,9.043415
381649,-0.331472,-0.084004,0.065505,-12.843299,-84.157566,9.49863
381749,-0.38713,-0.163734,0.128556,-13.9807,-84.233127,10.417829
381849,-0.416175,-0.227266,0.162146,-15.445423,-84.336923,11.649192
381949,-0.422426,-0.214231,0.185954,-17.075608,-84.426405,13.043074
382049,-0.337476,-0.192513,0.175591,-18.605841,-84.502066,14.385294
382149,-0.227943,-0.217845,0.163372,-20.095568,-84.59031,15.749722
382249,-0.101749,-0.24753,0.146083,-21.527031,-84.694647,17.128052
382349,0.011261,-0.270205,0.128067,-22.899645,-84.811745,18.51206
382449,0.082673,-0.271699,0.124384,-24.275629,-84.927401,19.940254
382549,0.111076,-0.23923,0.130077,-25.640059,-85.021719,21.372915
382649,0.094905,-0.200988,0.138373,-26.999212,-85.091275,22.790747
382749,0.06189,-0.168441,0.143822,-28.343462,-85.13996,24.174454
382849,0.031663,-0.145683,0.146159,-29.668328,-85.173827,25.521194
382949,0.03224,-0.116238,0.139829,-30.870136,-85.192425,26.744688
383049,0.059999,-0.076613,0.130895,-31.869636,-85.192313,27.781089
383149,0.099658,-0.056639,0.124262,-32.73434,-85.183139,28.705022
383249,0.135793,-0.06395,0.122373,-33.591528,-85.176899,29.642199
383349,0.16736,-0.095323,0.12222,-34.548058,-85.184356,30.697221
383449,0.200698,-0.139782,0.126086,-35.686447,-85.209758,31.95388
383549,0.227314,-0.190644,0.130369,-37.055958,-85.254868,33.457685
383649,0.23972,-0.243215,0.126706,-38.653699,-85.321806,35.197477
383749,0.243901,-0.288123,0.113512,-40.431135,-85.409171,37.119722
383849,0.248,-0.317927,0.095771,-42.325844,-85.511055,39.161658
383949,0.24435,-0.315454,0.074632,-44.184638,-85.614864,41.165124
384049,0.225178,-0.294785,0.053374,-45.917937,-85.714022,43.031376
384149,0.193598,-0.267358,0.036509,-47.504192,-85.805318,44.731727
384249,0.153836,-0.238783,0.028293,-48.968565,-85.88585,46.286772
384349,0.120894,-0.191316,0.026526,-50.204271,-85.946845,47.593439
384449,0.102129,-0.11862,0.030765,-51.045358,-85.977832,48.493595
384549,0.090889,-0.037352,0.045246,-51.457006,-85.972493,48.956738
384649,0.075544,0.035471,0.060231,-51.487808,-85.934304,49.029247
384749,0.061636,0.0695,0.067048,-51.346414,-85.880894,48.921107
384849,0.047486,0.069062,0.073436,-51.249611,-85.82476,48.849513
384949,0.03082,0.055568,0.088652,-51.319099,-85.766651,48.935054
385049,0.021179,0.072545,0.112986,-51.405998,-85.691561,49.032506
385149,-0.013124,0.101296,0.139038,-51.461969,-85.594517,49.079223
385249,-0.088152,0.087261,0.161423,-51.738782,-85.492408,49.304313
385349,-0.185312,0.064219,0.175888,-52.251122,-85.391791,49.709818
385449,-0.272721,0.089624,0.180921,-52.67312,-85.279771,49.974428
385549,-0.300936,0.172901,0.173655,-52.615871,-85.142041,49.741869
385649,-0.256281,0.31095,0.173633,-51.82915,-84.955695,48.802677
385749,-0.153257,0.498786,0.181397,-50.173836,-84.69639,47.050271
385849,0.001867,0.726287,0.19992,-47.675488,-84.337722,44.539407
385949,0.172947,0.979422,0.270861,-44.690958,-83.838026,41.636555
386049,0.243819,1.105873,0.299767,-41.80671,-83.259464,38.872654
386149,0.215424,1.138441,0.331413,-39.406442,-82.641265,36.576724
386249,0.108133,0.979499,0.357637,-37.916536,-82.075742,35.134316
386349,-0.020811,0.577372,0.34992,-37.61372,-81.692332,34.814785
386449,-0.116906,0.08141,0.306652,-38.421422,-81.548446,35.561927
386549,-0.152343,-0.338923,0.217658,-39.988914,-81.621369,37.056678
386649,-0.142775,-0.620244,0.122942,-42.03994,-81.844746,39.045005
386749,-0.087594,-0.748543,0.050611,-44.32592,-82.139219,41.301239
386849,-0.0687,-0.791885,0.012433,-46.797262,-82.453457,43.753808
386949,-0.06777,-0.770994,0.007397,-49.390689,-82.747009,46.328348
387049,0.005868,-0.672621,0.015922,-51.815765,-82.986147,48.774299
387149,0.102573,-0.471797,0.025371,-53.60032,-83.139842,50.629878
387249,0.192214,-0.227753,0.021373,-54.436422,-83.20799,51.581601
387349,0.240775,-0.033126,-0.002363,-54.425957,-83.221471,51.708776
387449,0.274288,0.07249,-0.03245,-53.898709,-83.213547,51.334892
387549,0.315053,0.116953,-0.057373,-53.10635,-83.201454,50.717538
387649,0.32336,0.116434,-0.092477,-52.210823,-83.204509,50.001036
387749,0.281769,0.100101,-0.132648,-51.279108,-83.230161,49.224048
387849,0.19584,0.051137,-0.172072,-50.451693,-83.289728,48.502492
387949,0.077401,-0.010589,-0.211423,-49.785207,-83.388264,47.87466
388049,-0.042306,-0.060108,-0.237307,-49.271437,-83.515827,47.331571
388149,-0.137422,-0.113839,-0.249182,-48.959394,-83.668294,46.936725
388249,-0.217796,-0.163718,-0.248276,-48.878118,-83.839026,46.727789
388349,-0.272401,-0.195326,-0.24076,-48.977149,-84.018411,46.668773
388449,-0.295688,-0.203659,-0.240292,-49.128039,-84.20071,46.648504
388549,-0.299782,-0.190745,-0.241404,-49.224363,-84.378619,46.571069
388649,-0.274328,-0.171935,-0.252357,-49.177955,-84.554192,46.364944
388749,-0.258722,-0.128328,-0.244571,-48.942067,-84.709923,45.977587
388849,-0.240021,-0.067044,-0.213149,-48.517179,-84.828696,45.411335
388949,-0.221317,-0.026803,-0.174267,-48.033464,-84.915038,44.796914
389049,-0.21301,-0.005328,-0.141116,-47.569125,-84.978551,44.206822
389149,-0.215957,0.007247,-0.118382,-47.134497,-85.027166,43.644929
389249,-0.216145,0.001611,-0.104332,-46.781493,-85.071745,43.164905
389349,-0.210841,-0.017092,-0.102058,-46.519236,-85.122494,42.779055
389449,-0.226664,-0.021553,-0.107515,-46.25539,-85.1771,42.382545
389549,-0.225773,-0.017884,-0.115757,-45.925929,-85.233452,41.920747
389649,-0.220033,-0.02118,-0.122501,-45.567219,-85.293618,41.432963
389749,-0.20394,-0.033659,-0.119205,-45.267196,-85.357173,41.013392
389849,-0.183518,-0.052066,-0.110854,-45.080917,-85.424557,40.719759
389949,-0.172596,-0.059713,-0.103163,-44.960134,-85.491785,40.498182
390049,-0.155208,-0.053511,-0.104058,-44.787383,-85.556742,40.23454
390149,-0.115815,-0.03494,-0.108859,-44.462596,-85.615901,39.841114
390249,-0.069397,0.006176,-0.113231,-43.861641,-85.659595,39.197455
390349,-0.028846,0.053963,-0.115624,-42.963145,-85.683639,38.278764
390449,0.021124,0.085389,-0.112579,-41.883189,-85.69196,37.20686
390549,0.053042,0.085429,-0.112811,-40.779661,-85.698758,36.129698
390649,0.077599,0.075626,-0.115807,-39.689259,-85.70934,35.079856
390749,0.091674,0.063107,-0.119356,-38.624626,-85.725222,34.064
390849,0.099641,0.050537,-0.120136,-37.602517,-85.745595,33.095432
390949,0.112187,0.022981,-0.114338,-36.727863,-85.775287,32.282015
391049,0.147104,-0.01878,-0.099945,-36.105094,-85.818489,31.741322
391149,0.229821,-0.010862,-0.09092,-35.445127,-85.854477,31.210953
391249,0.330791,0.01868,-0.098949,-34.530977,-85.878633,30.483836
391349,0.389249,0.065211,-0.112624,-33.278165,-85.883957,29.45084
391449,0.369017,0.101077,-0.130494,-31.762607,-85.875562,28.142834
391549,0.278347,0.13228,-0.129797,-30.18503,-85.848971,26.720543
391649,0.174171,0.220094,-0.122955,-28.40478,-85.773442,25.035055
391749,0.076081,0.389779,-0.111018,-26.250593,-85.604091,22.917855
391849,0.033871,0.565963,-0.104742,-23.810704,-85.335425,20.489073
391949,0.001759,0.694587,-0.094345,-21.408967,-84.988583,18.078949
392049,-0.034503,0.758488,-0.084073,-19.271649,-84.597688,15.912028
392149,-0.069967,0.69656,-0.079193,-17.577774,-84.23341,14.168836
392249,-0.119296,0.485471,-0.12909,-16.173811,-83.988956,12.687715
392349,-0.174975,0.170665,-0.190622,-15.029192,-83.924649,11.434882
392449,-0.252883,-0.19792,-0.178399,-14.507325,-84.061084,10.763469
392549,-0.309757,-0.525521,-0.153448,-14.589456,-84.375518,10.666681
392649,-0.224401,-0.687629,-0.157993,-14.848054,-84.780607,10.796314
392749,0.000246,-0.710046,-0.182521,-14.882253,-85.201774,10.829738
392849,0.168417,-0.581545,-0.189603,-14.527359,-85.55281,10.569355
