SampleTimeFine,Gyr_X,Gyr_Y,Gyr_Z,Roll,Pitch,Yaw
140819,-0.034449,-0.081425,-0.016348,-15.619913,-77.444548,15.264001
140919,-0.031229,-0.103838,-0.018556,-15.661167,-77.506054,15.288499
141019,-0.037068,-0.123121,-0.017728,-15.721762,-77.578054,15.329371
141119,-0.036411,-0.12807,-0.016616,-15.788922,-77.652592,15.377333
141219,-0.03305,-0.118725,-0.015432,-15.851126,-77.721773,15.422182
141319,-0.026851,-0.108394,-0.014016,-15.906433,-77.785026,15.463598
141419,-0.019123,-0.098239,-0.016606,-15.943682,-77.843087,15.491065
141519,-0.014096,-0.086391,-0.022643,-15.954066,-77.895571,15.493996
141619,-0.019184,-0.06415,-0.029564,-15.933173,-77.936893,15.46196
141719,-0.028657,-0.049037,-0.03381,-15.895458,-77.970551,15.407177
141819,-0.035607,-0.04617,-0.039187,-15.845478,-78.003458,15.335785
141919,-0.03591,-0.048651,-0.038237,-15.799698,-78.037565,15.268516
142019,-0.030382,-0.054952,-0.037101,-15.758079,-78.074949,15.208742
142119,-0.02374,-0.057457,-0.034229,-15.721738,-78.113249,15.158258
142219,-0.021385,-0.057535,-0.028272,-15.6995,-78.150653,15.12357
142319,-0.014137,-0.052358,-0.025108,-15.67745,-78.184701,15.09332
142419,-0.012477,-0.044457,-0.021604,-15.657741,-78.213838,15.066435
142519,-0.009047,-0.034954,-0.020539,-15.63177,-78.237555,15.035162
142619,-0.006591,-0.023831,-0.018277,-15.602072,-78.254773,15.00152
142719,-0.009598,-0.014997,-0.013322,-15.580645,-78.266348,14.974565
142819,-0.015789,-0.015548,-0.010632,-15.570259,-78.277812,14.955267
142919,-0.022187,-0.033313,-0.007067,-15.586155,-78.298532,14.95907
143019,-0.029896,-0.045859,-0.007377,-15.615016,-78.326217,14.9716
143119,-0.031294,-0.045995,-0.012589,-15.630918,-78.354769,14.970081
143219,-0.028287,-0.033347,-0.017516,-15.622429,-78.377088,14.945418
143319,-0.014997,-0.024668,-0.018809,-15.596279,-78.394808,14.9105
143419,-0.005391,-0.022991,-0.016324,-15.569969,-78.41122,14.881037
143519,-0.000468,-0.038937,-0.018853,-15.545902,-78.436828,14.856746
143619,0.000677,-0.050335,-0.021153,-15.523421,-78.469078,14.834744
143719,0.002184,-0.051273,-0.024207,-15.492396,-78.502301,14.804906
143819,-0.006877,-0.04169,-0.021731,-15.465952,-78.529834,14.774446
143919,-0.012982,-0.026065,-0.018807,-15.439098,-78.54827,14.74
144019,-0.014465,-0.014725,-0.014545,-15.416106,-78.559778,14.708629
144119,-0.019386,-0.007417,-0.016099,-15.386152,-78.567473,14.667279
144219,-0.020258,-0.010276,-0.01488,-15.362175,-78.576552,14.631516
144319,-0.016499,-0.011911,-0.012879,-15.342773,-78.586219,14.602615
144419,-0.008891,-0.009943,-0.010395,-15.324352,-78.594407,14.57916
144519,-0.003196,-0.013391,-0.006592,-15.315656,-78.603912,14.568956
144619,-0.007661,-0.018343,-0.007916,-15.30955,-78.616346,14.558786
144719,-0.019449,-0.012487,-0.008884,-15.303056,-78.625681,14.541333
144819,-0.023514,0.009979,-0.00691,-15.287368,-78.622296,14.512131
144919,-0.026567,0.039925,-0.008416,-15.2469,-78.602584,14.455864
145019,-0.032282,0.048335,-0.007903,-15.205054,-78.578147,14.394846
145119,-0.032973,0.03851,-0.006856,-15.174013,-78.558975,14.344441
145219,-0.034783,0.00947,-0.005383,-15.169689,-78.555622,14.320232
145319,-0.024446,-0.016405,0.002119,-15.199172,-78.565431,14.336551
145419,-0.005234,-0.004338,0.008546,-15.226251,-78.567587,14.361656
145519,0.00713,0.012307,0.012187,-15.243784,-78.559995,14.384246
145619,0.005072,0.019373,0.014851,-15.264442,-78.548097,14.408824
145719,-0.001554,0.025555,0.017217,-15.29062,-78.532423,14.435168
145819,-0.009334,0.02563,0.015786,-15.317202,-78.516921,14.457374
145919,-0.014822,0.014069,0.014402,-15.351671,-78.508017,14.484427
146019,-0.01673,-3.9e-05,0.009693,-15.38489,-78.507628,14.509092
146119,-0.016687,-0.014418,0.005084,-15.416264,-78.515887,14.5319
146219,-0.020202,-0.024249,0.000948,-15.445731,-78.53022,14.55071
146319,-0.02813,-0.027016,-0.005778,-15.463465,-78.547115,14.552917
146419,-0.028956,-0.02153,-0.013032,-15.457688,-78.562092,14.53066
146519,-0.030612,-0.01268,-0.017806,-15.43312,-78.572899,14.488259
146619,-0.028891,-0.000191,-0.020798,-15.389966,-78.577245,14.427903
146719,-0.02643,0.007123,-0.022693,-15.334793,-78.577824,14.356722
146819,-0.027506,-0.00351,-0.020816,-15.293435,-78.583991,14.298998
146919,-0.025395,-0.023517,-0.015452,-15.280549,-78.600402,14.271554
147019,-0.020225,-0.045812,-0.008352,-15.30093,-78.628064,14.281062
147119,-0.013834,-0.0557,-0.005387,-15.333324,-78.660742,14.306563
147219,-0.014658,-0.057601,-0.00616,-15.36563,-78.694582,14.331486
147319,-0.018116,-0.042789,-0.010695,-15.376179,-78.720922,14.332205
147419,-0.026875,-0.029564,-0.01184,-15.378482,-78.740133,14.319397
147519,-0.03511,-0.017181,-0.014568,-15.368436,-78.752921,14.289193
147619,-0.038225,-0.014944,-0.017052,-15.351532,-78.764857,14.250174
147719,-0.038967,-0.028009,-0.01401,-15.353457,-78.783557,14.229921
147819,-0.038652,-0.045782,-0.010421,-15.378834,-78.811537,14.233759
147919,-0.033821,-0.057647,-0.008937,-15.41482,-78.845854,14.251232
148019,-0.03203,-0.062266,-0.00659,-15.460124,-78.882358,14.279246
148119,-0.028738,-0.055417,-0.006364,-15.499078,-78.915034,14.302706
148219,-0.024823,-0.044987,-0.009247,-15.519671,-78.942382,14.309739
148319,-0.019877,-0.031703,-0.010854,-15.522546,-78.962639,14.301603
148419,-0.015598,-0.024645,-0.00903,-15.522613,-78.978716,14.293105
148519,-0.016122,-0.031518,-0.004705,-15.540689,-78.997925,14.302645
148619,-0.023569,-0.042943,-0.002818,-15.577469,-79.023153,14.326894
148719,-0.029097,-0.05272,-6.6e-05,-15.633144,-79.05335,14.367163
148819,-0.032252,-0.058629,-0.000997,-15.692904,-79.086945,14.40975
148919,-0.033648,-0.059174,-0.002571,-15.749654,-79.121075,14.448455
149019,-0.024863,-0.051368,-0.010085,-15.773665,-79.152058,14.458946
149119,-0.015955,-0.036781,-0.014418,-15.768307,-79.175667,14.444729
149219,-0.003621,-0.023612,-0.020967,-15.726273,-79.193025,14.400363
149319,0.003755,-0.0216,-0.020251,-15.680439,-79.209151,14.356428
149419,0.009152,-0.025827,-0.015538,-15.648627,-79.226866,14.32991
149519,0.015326,-0.037037,-0.008744,-15.642147,-79.249709,14.332776
149619,0.018095,-0.046889,0.002907,-15.676096,-79.276181,14.378403
149719,0.017826,-0.053445,0.008416,-15.731842,-79.305405,14.446054
149819,0.013758,-0.048903,0.009221,-15.78876,-79.331985,14.512523
149919,0.005926,-0.039331,0.009052,-15.8419,-79.353307,14.570581
150019,-0.008339,-0.034556,0.00631,-15.891297,-79.372423,14.616515
150119,-0.020516,-0.02635,0.003638,-15.933024,-79.387433,14.647548
150219,-0.027853,-0.019596,-0.003188,-15.953268,-79.399789,14.652447
150319,-0.030938,-0.013073,-0.010543,-15.948177,-79.409703,14.629771
150419,-0.031636,-0.009824,-0.009729,-15.943184,-79.417689,14.606786
150519,-0.026919,-0.01065,-0.006406,-15.946004,-79.425602,14.594498
150619,-0.02002,-0.01449,-0.000311,-15.966082,-79.434668,14.603788
150719,-0.014521,-0.01776,0.002402,-15.993748,-79.445111,14.624005
150819,-0.012665,-0.024983,-8.5e-05,-16.019077,-79.459929,14.642929
150919,-0.014144,-0.029381,-0.008461,-16.024158,-79.478498,14.640399
151019,-0.019278,-0.029798,-0.015373,-16.011992,-79.498386,14.617337
151119,-0.023106,-0.033898,-0.017215,-15.999991,-79.520809,14.592211
151219,-0.025659,-0.02632,-0.023652,-15.963741,-79.540058,14.54094
151319,-0.035109,-0.022101,-0.025225,-15.924526,-79.557204,14.481146
151419,-0.049287,-0.015997,-0.013343,-15.923689,-79.5691,14.452118
151519,-0.046775,0.002657,-0.003077,-15.93616,-79.569096,14.438087
151619,-0.03932,0.026646,-0.001604,-15.928254,-79.555653,14.407679
151719,-0.04647,0.023715,0.002535,-15.939311,-79.543188,14.39239
151819,-0.056469,0.00307,0.00465,-15.980009,-79.541772,14.401416
151919,-0.067003,-0.028157,0.009522,-16.068068,-79.556768,14.452464
152019,-0.064607,-0.037304,0.012684,-16.172329,-79.576262,14.52138
152119,-0.053374,-0.011963,0.009664,-16.23933,-79.582265,14.558953
152219,-0.045618,0.017946,0.009353,-16.274885,-79.57186,14.569071
152319,-0.047526,0.029431,0.011445,-16.307642,-79.554808,14.575236
152419,-0.047481,0.028233,0.007842,-16.33053,-79.539004,14.571396
152519,-0.047185,0.008336,0.002673,-16.355102,-79.534983,14.569445
152619,-0.040134,-0.011957,-0.004815,-16.371025,-79.543332,14.562808
152719,-0.023068,-0.019366,-0.012099,-16.361942,-79.556927,14.540687
152819,-0.001817,-0.020855,-0.014567,-16.334595,-79.57173,14.512376
152919,0.017522,-0.010251,-0.017634,-16.277697,-79.581178,14.465283
153019,0.025181,0.005847,-0.01704,-16.204186,-79.58165,14.405756
153119,0.022518,0.00966,-0.009516,-16.151509,-79.578796,14.365856
153219,0.016326,0.006783,-0.005247,-16.117703,-79.576828,14.341534
153319,0.012161,0.00891,-0.003085,-16.090909,-79.573335,14.321917
153419,0.006006,0.01043,0.001035,-16.078633,-79.568347,14.313478
153519,-0.002487,0.01357,0.004105,-16.077684,-79.561144,14.311608
153619,-0.006708,0.008674,0.007372,-16.093116,-79.556119,14.323937
153719,-0.005867,0.011337,0.011191,-16.117153,-79.549018,14.345506
153819,-0.002624,0.021147,0.014308,-16.140109,-79.536014,14.367866
153919,-0.008955,0.031658,0.014813,-16.159046,-79.517143,14.382454
154019,-0.023772,0.038112,0.013229,-16.176092,-79.494981,14.386488
154119,-0.040688,0.020617,0.016093,-16.226232,-79.481995,14.414327
154219,-0.055445,0.010757,0.014768,-16.289233,-79.474653,14.446652
154319,-0.063738,0.006354,0.01015,-16.347007,-79.470478,14.468832
154419,-0.064277,-0.003834,0.007666,-16.406536,-79.472305,14.492484
154519,-0.055429,-0.006141,0.00385,-16.451718,-79.476011,14.506702
154619,-0.041734,-0.001869,0.000433,-16.475221,-79.477917,14.506848
154719,-0.03102,0.001008,-0.006213,-16.470411,-79.479316,14.484444
154819,-0.023661,0.004029,-0.012065,-16.441429,-79.479999,14.441741
154919,-0.022214,0.012489,-0.016526,-16.391067,-79.476745,14.378135
155019,-0.027642,0.026538,-0.01822,-16.326702,-79.46603,14.29712
155119,-0.042014,0.041897,-0.018144,-16.257769,-79.446846,14.203075
155219,-0.051107,0.040955,-0.013828,-16.207917,-79.427485,14.123133
155319,-0.066963,0.019407,-0.004424,-16.213477,-79.418481,14.090315
155419,-0.080262,-0.008083,-0.001059,-16.260123,-79.424068,14.091542
155519,-0.079265,-0.018528,0.003061,-16.327331,-79.434731,14.114268
155619,-0.071227,-0.018303,-0.001583,-16.376077,-79.446005,14.1229
155719,-0.059192,-0.008119,-0.007106,-16.392815,-79.452565,14.105989
155819,-0.050692,0.004712,-0.016316,-16.366365,-79.453553,14.050102
155919,-0.043792,0.016367,-0.02066,-16.313112,-79.448826,13.970968
156019,-0.031795,0.014619,-0.020728,-16.254441,-79.445062,13.893311
156119,-0.020377,0.000872,-0.020146,-16.202874,-79.448761,13.829529
156219,-0.00868,-0.01834,-0.016982,-16.170456,-79.462523,13.792041
156319,-0.001279,-0.034839,-0.014966,-16.15388,-79.485041,13.774979
156419,-0.002475,-0.031275,-0.011916,-16.143924,-79.505108,13.763954
156519,-0.015045,-0.025589,-0.009791,-16.142553,-79.521706,13.754336
156619,-0.025055,-0.011049,-0.00563,-16.146742,-79.529642,13.744541
156719,-0.03066,-0.004901,-0.00347,-16.15527,-79.533858,13.735893
156819,-0.027005,-0.007534,0.001545,-16.17896,-79.538728,13.744792
156919,-0.019089,-0.013361,0.00516,-16.214021,-79.546227,13.769862
157019,-0.004752,-0.019155,0.010259,-16.261215,-79.556092,13.815621
157119,0.007941,-0.023252,0.011784,-16.309402,-79.567954,13.869781
157219,0.015758,-0.021286,0.011595,-16.350949,-79.578757,13.921739
157319,0.020766,-0.019572,0.006655,-16.373433,-79.589411,13.957232
157419,0.022359,-0.022298,0.000627,-16.37942,-79.602538,13.976878
157519,0.022526,-0.02156,-0.004841,-16.36829,-79.616147,13.979218
157619,0.026293,-0.015831,-0.006315,-16.345501,-79.626849,13.971899
157719,0.027239,-0.014099,-0.006391,-16.320363,-79.636616,13.962745
157819,0.024176,-0.017742,-0.004692,-16.305238,-79.64812,13.961986
157919,0.019463,-0.028344,-0.003063,-16.307019,-79.665198,13.97567
158019,0.011702,-0.032675,-0.002876,-16.317646,-79.684623,13.993825
158119,0.020358,-0.013727,-0.000168,-16.31475,-79.693188,14.003277
158219,0.026564,0.002746,-0.002677,-16.286125,-79.693098,13.990192
158319,0.025898,0.016304,-0.00563,-16.237041,-79.68603,13.955922
158419,0.02988,0.024944,-0.006223,-16.176421,-79.6743,13.912242
158519,0.008533,0.017794,-0.006102,-16.134803,-79.666478,13.875442
158619,-0.02249,-0.001359,-0.00078,-16.143819,-79.668347,13.872039
158719,-0.030959,-0.002124,0.009168,-16.188393,-79.669049,13.899848
158819,-0.032262,0.010827,0.016304,-16.243855,-79.661484,13.937967
158919,-0.027316,0.020723,0.014684,-16.282819,-79.648735,13.962199
159019,-0.018766,0.031464,0.010467,-16.294651,-79.630751,13.963831
159119,-0.013627,0.036778,0.007883,-16.291058,-79.610251,13.952778
159219,-0.015451,0.037006,0.004083,-16.276926,-79.590231,13.929947
159319,-0.017293,0.033519,0.00041,-16.255944,-79.57272,13.899079
159419,-0.023216,0.030196,-0.002043,-16.233988,-79.557438,13.86377
159519,-0.031772,0.021079,-0.004102,-16.218766,-79.547515,13.830322
159619,-0.036485,0.012154,-0.006422,-16.207097,-79.542884,13.797741
159719,-0.042132,-0.001794,-0.002958,-16.221111,-79.545376,13.787984
159819,-0.051726,-0.008622,-0.001499,-16.250944,-79.551382,13.788722
159919,-0.054016,-0.007997,0.003902,-16.297733,-79.556158,13.805367
160019,-0.048259,-0.004917,0.004173,-16.339414,-79.55918,13.820168
160119,-0.042317,-0.005596,0.001408,-16.370083,-79.563013,13.827232
160219,-0.037827,-0.009473,0.000341,-16.398443,-79.569154,13.834563
160319,-0.034907,-0.016621,-0.003129,-16.421097,-79.579793,13.837792
160419,-0.028168,-0.027665,-0.003659,-16.448107,-79.5966,13.849374
160519,-0.022132,-0.044823,-0.001105,-16.494615,-79.62243,13.884294
160619,-0.02473,-0.059726,-0.001538,-16.554841,-79.65652,13.931642
160719,-0.032202,-0.074725,0.002607,-16.645726,-79.698157,14.005796
160819,-0.035091,-0.074277,0.004459,-16.744124,-79.739217,14.085894
160919,-0.043446,-0.057472,0.003847,-16.830713,-79.771136,14.149119
161019,-0.048639,-0.03794,0.001787,-16.896429,-79.792676,14.188104
161119,-0.052072,-0.030826,-0.001479,-16.947807,-79.810858,14.210518
161219,-0.050162,-0.036721,-0.002608,-17.000318,-79.832458,14.235192
161319,-0.046234,-0.046574,-0.003459,-17.057422,-79.8596,14.266816
161419,-0.041156,-0.06346,-0.004295,-17.125264,-79.896132,14.312298
161519,-0.038704,-0.082479,-0.009317,-17.194737,-79.94392,14.360859
161619,-0.037958,-0.102227,-0.006732,-17.291362,-80.002064,14.437419
161719,-0.040449,-0.113083,-0.002417,-17.414445,-80.065378,14.539382
161819,-0.047681,-0.112296,-0.000296,-17.548926,-80.127853,14.648693
161919,-0.052631,-0.099132,-0.000999,-17.672278,-80.183209,14.743812
162019,-0.052106,-0.079294,-0.003798,-17.767512,-80.228191,14.81069
162119,-0.055507,-0.061852,-0.009087,-17.830798,-80.264566,14.843164
162219,-0.061244,-0.059336,-0.014788,-17.876998,-80.300563,14.854964
162319,-0.06745,-0.062307,-0.020012,-17.913364,-80.339094,14.853178
162419,-0.068898,-0.069101,-0.019647,-17.958968,-80.381265,14.859919
162519,-0.070766,-0.076227,-0.019076,-18.015198,-80.427217,14.876351
162619,-0.064196,-0.093447,-0.016176,-18.095652,-80.482033,14.921162
162719,-0.053597,-0.11924,-0.010156,-18.218098,-80.549804,15.014695
162819,-0.041304,-0.131446,-0.004025,-18.368525,-80.623071,15.143712
162919,-0.033351,-0.130378,0.001494,-18.533642,-80.69469,15.292207
163019,-0.034651,-0.117699,0.003619,-18.694662,-80.758961,15.43577
163119,-0.042335,-0.103908,0.005984,-18.854328,-80.815246,15.573478
163219,-0.048669,-0.093834,0.01065,-19.023474,-80.865143,15.717092
163319,-0.058497,-0.089958,0.016129,-19.213951,-80.911846,15.876587
163419,-0.066955,-0.09877,0.01932,-19.432472,-80.962624,16.059551
163519,-0.071547,-0.113451,0.022582,-19.68489,-81.020585,16.274145
163619,-0.071383,-0.125562,0.026127,-19.967409,-81.084225,16.519272
163719,-0.066112,-0.134275,0.02399,-20.254309,-81.152778,16.771848
163819,-0.063337,-0.135306,0.024115,-20.545524,-81.221655,17.030354
163919,-0.066521,-0.127791,0.02289,-20.828606,-81.286542,17.278739
164019,-0.070309,-0.115648,0.02503,-21.108907,-81.344302,17.522075
164119,-0.072834,-0.109819,0.02534,-21.387226,-81.398709,17.761906
164219,-0.068831,-0.113033,0.026868,-21.676449,-81.454334,18.015049
164319,-0.069565,-0.121995,0.024018,-21.972264,-81.515144,18.274396
164419,-0.063914,-0.110981,0.019197,-22.235312,-81.570963,18.503853
164519,-0.059548,-0.083885,0.009232,-22.422907,-81.614459,18.659542
164619,-0.068557,-0.071862,0.001015,-22.569712,-81.653328,18.76877
164719,-0.072041,-0.080517,-0.00273,-22.719284,-81.697558,18.878765
164819,-0.074485,-0.099358,-0.004521,-22.894132,-81.752077,19.012871
164919,-0.073559,-0.113178,0.003879,-23.122975,-81.81191,19.202043
165019,-0.058522,-0.104914,0.015971,-23.377755,-81.864521,19.42609
165119,-0.035838,-0.077535,0.023362,-23.605811,-81.900912,19.636245
165219,-0.020484,-0.058848,0.025258,-23.80361,-81.926956,19.824706
165319,-0.015204,-0.060257,0.019122,-23.979259,-81.955084,19.993837
165419,-0.0171,-0.064837,0.020261,-24.169043,-81.985269,20.176134
165519,-0.027768,-0.076809,0.020589,-24.387743,-82.021543,20.381445
165619,-0.035745,-0.096436,0.022749,-24.65461,-82.067416,20.630756
165719,-0.038652,-0.10854,0.028959,-24.97054,-82.117918,20.92789
165819,-0.036211,-0.109129,0.034261,-25.309988,-82.167199,21.250141
165919,-0.034422,-0.098976,0.035577,-25.63906,-82.210645,21.562921
166019,-0.035287,-0.083004,0.030016,-25.921632,-82.247008,21.828243
166119,-0.039065,-0.069671,0.020134,-26.146488,-82.278832,22.033115
166219,-0.041634,-0.065135,0.011691,-26.333866,-82.310362,22.198668
166319,-0.039545,-0.065209,0.002913,-26.488121,-82.344097,22.331994
166419,-0.042424,-0.062843,-0.00174,-26.622936,-82.377762,22.444033
166519,-0.049208,-0.070129,-0.000592,-26.781242,-82.414821,22.575839
166619,-0.058393,-0.078392,0.002371,-26.973827,-82.455284,22.736906
166719,-0.06802,-0.091447,0.007134,-27.218171,-82.501082,22.944603
166819,-0.073116,-0.097617,0.012176,-27.500198,-82.548563,23.18734
166919,-0.08112,-0.09996,0.012064,-27.794467,-82.5971,23.437773
167019,-0.084282,-0.090025,0.007129,-28.053975,-82.641772,23.651304
167119,-0.085999,-0.082205,0.005255,-28.293354,-82.682878,23.843528
167219,-0.087733,-0.07217,-0.00196,-28.4862,-82.720791,23.987822
167319,-0.088305,-0.06202,-0.001333,-28.661711,-82.753358,24.114298
167419,-0.096865,-0.069547,-0.001241,-28.860382,-82.789616,24.259164
167519,-0.095313,-0.078541,0.002688,-29.095532,-82.829207,24.44168
167619,-0.087087,-0.096294,0.009591,-29.395826,-82.875615,24.69458
167719,-0.078793,-0.109616,0.015866,-29.750717,-82.926684,25.007257
167819,-0.068974,-0.116772,0.022809,-30.149493,-82.979043,25.369785
167919,-0.061129,-0.121198,0.025805,-30.572088,-83.03239,25.760799
168019,-0.055393,-0.120971,0.026016,-30.9979,-83.085199,26.158321
168119,-0.048088,-0.120777,0.019458,-31.398606,-83.139508,26.534726
168219,-0.0367,-0.116125,0.008142,-31.740872,-83.194645,26.858804
168319,-0.022656,-0.108334,-0.001875,-32.019243,-83.248811,27.126605
168419,-0.012312,-0.104542,-0.01092,-32.248753,-83.303752,27.351148
168519,-0.00775,-0.105878,-0.014018,-32.469976,-83.360176,27.569954
168619,-0.001233,-0.104564,-0.018695,-32.668081,-83.417303,27.769221
168719,0.004638,-0.103709,-0.017412,-32.869323,-83.473524,27.97501
168819,0.004536,-0.104049,-0.014167,-33.088804,-83.528795,28.199075
168919,0.003441,-0.097016,-0.007937,-33.319524,-83.578628,28.433796
169019,0.005675,-0.096132,0.000575,-33.586375,-83.625227,28.706141
169119,0.01193,-0.098634,0.007331,-33.889666,-83.67071,29.018734
169219,0.025344,-0.108625,0.009092,-34.226391,-83.720168,29.37267
169319,0.039015,-0.106801,0.009788,-34.558193,-83.7683,29.729503
169419,0.044617,-0.088454,0.007191,-34.82533,-83.808419,30.024488
169519,0.045756,-0.066392,0.007615,-35.029929,-83.837896,30.257207
169619,0.042523,-0.067468,0.010996,-35.256503,-83.866669,30.510152
169719,0.040849,-0.084458,0.013631,-35.550665,-83.902378,30.830093
169819,0.048528,-0.096855,0.017995,-35.902218,-83.942195,31.212154
169919,0.062514,-0.099426,0.023139,-36.281233,-83.9812,31.629861
170019,0.084477,-0.098078,0.0293,-36.67527,-84.01718,32.075301
170119,0.106601,-0.107889,0.033964,-37.114541,-84.0557,32.578937
170219,0.113395,-0.119462,0.031879,-37.585838,-84.09978,33.118649
170319,0.110664,-0.122299,0.028488,-38.060934,-84.145856,33.660566
170419,0.093791,-0.122673,0.02833,-38.554119,-84.191672,34.210907
170519,0.06848,-0.118106,0.030362,-39.062397,-84.23422,34.761804
170619,0.047845,-0.109642,0.031933,-39.566103,-84.271952,35.296189
170719,0.03488,-0.100347,0.029152,-40.037064,-84.306161,35.790173
170819,0.033544,-0.087878,0.028934,-40.466444,-84.334617,36.24158
170919,0.042165,-0.076325,0.021429,-40.818193,-84.360555,36.619923
171019,0.049389,-0.078898,0.016088,-41.155407,-84.389391,36.987805
171119,0.051283,-0.089009,0.010878,-41.511513,-84.424317,37.37574
171219,0.049845,-0.08728,0.012279,-41.872404,-84.457705,37.767632
171319,0.038643,-0.095147,0.016387,-42.293668,-84.492566,38.21371
171419,0.026622,-0.100884,0.026789,-42.796104,-84.525442,38.73439
171519,0.024001,-0.092304,0.039468,-43.325965,-84.549303,39.281091
171619,0.029507,-0.087139,0.049314,-43.878283,-84.566639,39.853504
171719,0.037086,-0.083616,0.057998,-44.452061,-84.578539,40.451826
171819,0.046402,-0.085225,0.05458,-45.014992,-84.591929,41.044606
171919,0.056714,-0.092002,0.042986,-45.554657,-84.612251,41.619939
172019,0.068339,-0.102313,0.032085,-46.090832,-84.640665,42.198436
172119,0.083403,-0.103395,0.025198,-46.599876,-84.67186,42.758326
172219,0.106059,-0.100394,0.025612,-47.090202,-84.701231,43.312427
172319,0.124559,-0.091085,0.02484,-47.529653,-84.726874,43.826057
172419,0.136067,-0.077812,0.028733,-47.921784,-84.745398,44.298769
172519,0.151162,-0.055523,0.035746,-48.233305,-84.752128,44.699211
172619,0.162636,-0.037333,0.038815,-48.466522,-84.750448,45.02762
172719,0.162387,-0.039369,0.039932,-48.713604,-84.748946,45.369814
172819,0.156814,-0.050359,0.035779,-48.998235,-84.75325,45.746513
172919,0.142231,-0.065937,0.03382,-49.357403,-84.764058,46.189669
173019,0.124347,-0.079959,0.031533,-49.786083,-84.780804,46.692331
173119,0.109112,-0.088721,0.032011,-50.270555,-84.800207,47.24224
173219,0.099157,-0.090183,0.030123,-50.763908,-84.820553,47.795324
173319,0.090261,-0.089188,0.02589,-51.244408,-84.842001,48.330372
173419,0.095763,-0.080173,0.019754,-51.656377,-84.862605,48.79976
173519,0.110152,-0.087769,0.016039,-52.087253,-84.887262,49.296393
173619,0.122599,-0.094844,0.013756,-52.542693,-84.91509,49.824828
173719,0.13434,-0.102026,0.01095,-53.02322,-84.946302,50.385172
173819,0.138172,-0.122114,0.010852,-53.613321,-84.983965,51.057686
173919,0.140109,-0.135514,0.016458,-54.305114,-85.022872,51.833351
174019,0.155793,-0.141504,0.021313,-55.050499,-85.060628,52.67178
174119,0.172957,-0.14549,0.026765,-55.840702,-85.096113,53.565015
174219,0.186687,-0.139503,0.03059,-56.615734,-85.1268,54.450871
174319,0.194444,-0.120926,0.032142,-57.296704,-85.149955,55.246748
174419,0.195948,-0.103496,0.034415,-57.891895,-85.165882,55.957379
174519,0.189573,-0.099465,0.036571,-58.479424,-85.178896,56.656636
174619,0.18519,-0.107288,0.033239,-59.107146,-85.195213,57.393689
174719,0.18341,-0.120253,0.032018,-59.81306,-85.215166,58.208166
174819,0.186796,-0.118051,0.029106,-60.500356,-85.235093,59.005879
174919,0.198125,-0.121353,0.030427,-61.211675,-85.254453,59.834189
175019,0.221278,-0.132277,0.029905,-61.981047,-85.27615,60.734035
175119,0.250298,-0.148108,0.024612,-62.822572,-85.303671,61.72293
175219,0.279272,-0.15916,0.018541,-63.708663,-85.33589,62.773154
175319,0.302868,-0.167441,0.010052,-64.62156,-85.373162,63.863784
175419,0.328707,-0.183923,0.005805,-65.630186,-85.415076,65.065243
175519,0.349028,-0.182484,0.007555,-66.642259,-85.453972,66.281772
175619,0.388321,-0.208133,-0.008645,-67.77848,-85.505234,67.645345
175719,0.403179,-0.187257,-0.017967,-68.765392,-85.554957,68.8676
175819,0.413183,-0.127834,-0.00475,-69.390017,-85.584032,69.732171
175919,0.393031,-0.101597,0.003975,-69.873382,-85.60248,70.443458
176019,0.36748,-0.111544,0.005016,-70.448304,-85.62175,71.231875
176119,0.332832,-0.129352,0.003654,-71.171532,-85.644398,72.149106
176219,0.28555,-0.122985,-0.002832,-71.868166,-85.66853,73.012478
176319,0.243894,-0.099036,-0.008229,-72.410049,-85.690682,73.696705
176419,0.217922,-0.092526,-0.013749,-72.912144,-85.714269,74.326097
176519,0.209225,-0.115887,-0.023759,-73.575261,-85.746726,75.111943
176619,0.209627,-0.155938,-0.034057,-74.526926,-85.790325,76.187323
176719,0.228512,-0.196668,-0.046119,-75.775241,-85.845029,77.570929
176819,0.261339,-0.238217,-0.051843,-77.35226,-85.905914,79.30285
176919,0.284483,-0.286691,-0.05338,-79.348187,-85.969315,81.467896
177019,0.307872,-0.320736,-0.055856,-81.668328,-86.031473,83.971214
177119,0.32918,-0.332486,-0.062503,-84.139616,-86.090848,86.638095
177219,0.349617,-0.324546,-0.065664,-86.602721,-86.143682,89.308335
177319,0.363542,-0.299131,-0.059983,-88.904628,-86.185099,91.824869
177419,0.34091,-0.28843,-0.051092,-91.172166,-86.214664,94.293863
177519,0.295489,-0.287427,-0.043637,-93.484789,-86.233415,96.781897
177619,0.255521,-0.283082,-0.031849,-95.790354,-86.239023,99.23988
177719,0.196119,-0.286057,-0.014024,-98.134832,-86.227751,101.702768
177819,0.138214,-0.296967,-0.004284,-100.569553,-86.203243,104.222908
177919,0.110542,-0.29494,0.004176,-102.949051,-86.16729,106.671908
178019,0.094487,-0.278445,0.007981,-105.144079,-86.125075,108.926923
178119,0.098029,-0.263272,0.001739,-107.178722,-86.08318,111.023337
178219,0.118285,-0.253315,-0.013807,-109.118305,-86.046637,113.036209
178319,0.14636,-0.249244,-0.031937,-111.023997,-86.016059,115.031322
178419,0.164953,-0.248578,-0.049666,-112.936869,-85.99048,117.044389
178519,0.162743,-0.241048,-0.060321,-114.803039,-85.96764,119.009437
178619,0.14987,-0.228244,-0.066075,-116.579669,-85.946616,120.877388
178719,0.13684,-0.209567,-0.069252,-118.221565,-85.928257,122.602833
178819,0.125353,-0.181851,-0.074663,-119.680872,-85.917052,124.138666
178919,0.118498,-0.155337,-0.075861,-120.956707,-85.911563,125.486643
179019,0.114125,-0.130306,-0.076151,-122.061051,-85.911772,126.660191
179119,0.116497,-0.118448,-0.076222,-123.083027,-85.914161,127.752526
179219,0.120223,-0.124392,-0.074005,-124.131686,-85.912224,128.873756
179319,0.127714,-0.135916,-0.065698,-125.210036,-85.901143,130.029071
179419,0.148,-0.157655,-0.058353,-126.373412,-85.877759,131.281314
179519,0.178795,-0.166613,-0.054586,-127.541299,-85.847753,132.555818
179619,0.215571,-0.158848,-0.056573,-128.630646,-85.819605,133.772753
179719,0.242362,-0.140438,-0.064759,-129.617428,-85.800184,134.902284
179819,0.249445,-0.111505,-0.080235,-130.495707,-85.796919,135.927112
179919,0.243007,-0.083829,-0.093392,-131.279881,-85.808709,136.853885
180019,0.226164,-0.017591,-0.108596,-131.769026,-85.85152,137.475145
180119,0.199032,0.075174,-0.124207,-131.815314,-85.936327,137.636778
180219,0.158583,0.161879,-0.139507,-131.436145,-86.060851,137.348666
180319,0.104106,0.22632,-0.153915,-130.726778,-86.215801,136.69837
180419,0.063401,0.281107,-0.163367,-129.655682,-86.394581,135.662345
180519,0.052798,0.32203,-0.170984,-128.217951,-86.590086,134.253118
180619,0.055275,0.344201,-0.165102,-126.388529,-86.78811,132.453247
180719,0.085526,0.337072,-0.147975,-124.263969,-86.972026,130.375483
180819,0.144784,0.281893,-0.124051,-122.226739,-87.122804,128.419466
180919,0.220724,0.180375,-0.112089,-120.89964,-87.234096,127.218212
181019,0.282809,0.058034,-0.111613,-120.72696,-87.308282,127.208376
181119,0.300433,-0.061677,-0.128386,-121.924202,-87.354879,128.580041
181219,0.290587,-0.144361,-0.151941,-124.203678,-87.384908,131.029377
181319,0.254314,-0.174223,-0.173881,-127.025599,-87.41015,134.000847
181419,0.187479,-0.173761,-0.189052,-130.056709,-87.435482,137.143318
181519,0.090765,-0.142385,-0.196144,-132.963461,-87.468504,140.105762
181619,-0.033991,-0.080061,-0.187406,-135.357612,-87.516779,142.483465
181719,-0.163384,-0.017363,-0.170875,-137.18135,-87.580677,144.215921
181819,-0.275929,0.030901,-0.157348,-138.58067,-87.657814,145.458953
181919,-0.363108,0.050634,-0.150825,-139.865481,-87.739832,146.537312
182019,-0.417744,0.067248,-0.141217,-141.002839,-87.824695,147.436707
182119,-0.448057,0.079614,-0.124727,-141.919285,-87.908476,148.097594
182219,-0.455674,0.066284,-0.104145,-142.772993,-87.978487,148.691291
182319,-0.428249,0.035436,-0.081921,-143.672279,-88.026244,149.346283
182419,-0.365075,-0.002287,-0.066217,-144.729241,-88.050675,150.195238
182519,-0.268114,-0.034397,-0.052574,-145.871576,-88.054844,151.185187
182619,-0.168652,-0.051194,-0.038375,-146.917117,-88.045749,152.135302
182719,-0.086135,-0.045273,-0.026102,-147.681274,-88.035123,152.851176
182819,-0.025776,-0.026444,-0.014907,-148.08086,-88.029925,153.236868
182919,0.005065,-0.00941,0.002014,-148.073615,-88.027808,153.233168
183019,-0.000534,0.005467,0.021491,-147.665162,-88.026962,152.824813
183119,-0.037566,0.007471,0.0282,-147.168139,-88.024902,152.306605
183219,-0.090081,0.010416,0.025118,-146.720075,-88.02509,151.807279
183319,-0.153799,0.011205,0.018818,-146.390127,-88.027563,151.389612
183419,-0.205149,0.02259,0.010962,-146.092874,-88.037931,150.975224
183519,-0.237004,0.035228,0.00713,-145.744956,-88.055505,150.491886
183619,-0.277261,0.040332,0.007941,-145.352714,-88.075181,149.941127
183719,-0.287166,0.040141,0.010455,-144.92358,-88.093868,149.347787
183819,-0.285505,0.029477,0.019746,-144.459995,-88.104398,148.720937
183919,-0.284907,0.017639,0.027778,-143.997956,-88.106618,148.095983
184019,-0.268941,0.007971,0.037345,-143.491481,-88.100994,147.435724
184119,-0.238724,0.014872,0.050713,-142.71514,-88.093718,146.522775
184219,-0.210004,0.02419,0.062617,-141.668895,-88.086011,145.356236
184319,-0.178985,0.016106,0.070974,-140.590961,-88.070977,144.175769
184419,-0.150378,-0.009849,0.074641,-139.749727,-88.042524,143.248528
184519,-0.128148,-0.048049,0.077108,-139.301541,-87.996166,142.727299
184619,-0.111115,-0.092832,0.076101,-139.344532,-87.930684,142.707309
184719,-0.098373,-0.13097,0.07113,-139.815973,-87.850451,143.12337
184819,-0.092954,-0.166134,0.066178,-140.636845,-87.756421,143.892255
184919,-0.079846,-0.182215,0.065434,-141.534717,-87.655108,144.745776
185019,-0.060785,-0.181176,0.065429,-142.340595,-87.553823,145.518221
185119,-0.04823,-0.169975,0.063751,-143.006827,-87.457877,146.158149
185219,-0.034009,-0.152013,0.064699,-143.47487,-87.369645,146.607895
185319,-0.01829,-0.131071,0.06459,-143.755712,-87.291052,146.87929
185419,0.001004,-0.115937,0.061192,-143.937367,-87.220636,147.062474
185519,0.019708,-0.100872,0.056257,-144.043393,-87.158926,147.180684
185619,0.04351,-0.079879,0.058564,-143.970359,-87.106261,147.133278
185719,0.07149,-0.049454,0.061926,-143.6526,-87.066619,146.856886
185819,0.097838,-0.018796,0.06176,-143.126469,-87.041131,146.386963
185919,0.111049,0.006972,0.062575,-142.421781,-87.026951,145.745821
186019,0.119814,0.035507,0.06498,-141.503118,-87.024417,144.895447
186119,0.118673,0.062844,0.074355,-140.315263,-87.02994,143.774872
186219,0.11221,0.106121,0.082145,-138.746973,-87.050131,142.269668
186319,0.098591,0.137191,0.099051,-136.790524,-87.07468,140.368022
186419,0.074395,0.143222,0.122948,-134.579395,-87.088649,138.197526
186519,0.043803,0.139303,0.144365,-132.237729,-87.087823,135.878799
186619,0.007282,0.152076,0.158593,-129.70914,-87.080709,133.351961
186719,-0.029317,0.180583,0.169072,-126.892773,-87.073109,130.515971
186819,-0.064949,0.216431,0.173993,-123.754764,-87.067687,127.337478
186919,-0.087828,0.244928,0.173658,-120.378473,-87.061989,123.907267
187019,-0.09382,0.268978,0.170727,-116.805864,-87.053844,120.27704
187119,-0.074019,0.311403,0.162105,-112.858793,-87.048306,116.283216
187219,-0.027942,0.386508,0.16435,-108.121203,-87.041177,111.52426
187319,0.025354,0.495765,0.177873,-102.201101,-87.020224,105.611753
187419,0.086165,0.607162,0.198148,-95.167407,-86.962957,98.618833
187519,0.125654,0.658511,0.214749,-87.934739,-86.851751,91.448792
187619,0.114545,0.674515,0.214809,-81.138183,-86.693196,84.708272
187719,0.073029,0.676041,0.206445,-75.025876,-86.497528,78.628193
187819,0.029762,0.623312,0.193318,-70.033107,-86.284221,73.643713
187919,-0.034684,0.490498,0.18281,-66.624842,-86.082404,70.209077
188019,-0.097151,0.321159,0.161314,-64.740169,-85.921607,68.265122
188119,-0.130349,0.156724,0.130149,-64.059495,-85.814759,67.508905
188219,-0.132221,0.009161,0.100161,-64.333582,-85.760087,67.708875
188319,-0.099535,-0.12703,0.069916,-65.434059,-85.754131,68.756281
188419,-0.053957,-0.261118,0.037439,-67.364233,-85.793993,70.661791
188519,-5.1e-05,-0.361324,0.005661,-69.953709,-85.866166,73.259166
188619,0.089468,-0.397837,-0.023936,-72.789721,-85.952047,76.154853
188719,0.198605,-0.360557,-0.049339,-75.329511,-86.036206,78.815958
188819,0.305477,-0.269876,-0.060663,-77.148744,-86.107077,80.81592
188919,0.412098,-0.132773,-0.053194,-77.840601,-86.153615,81.747007
189019,0.498311,0.037518,-0.029368,-77.116211,-86.165556,81.30812
189119,0.53283,0.191803,-0.00353,-75.146186,-86.141113,79.640594
189219,0.503214,0.276518,0.028656,-72.617149,-86.080999,77.395665
189319,0.43565,0.30194,0.077307,-70.141867,-85.983162,75.1656
189419,0.36415,0.302109,0.13966,-68.006973,-85.845789,73.235393
189519,0.283749,0.28925,0.188625,-66.290026,-85.680944,71.677718
189619,0.207218,0.270072,0.207221,-64.922775,-85.508017,70.426453
189719,0.111318,0.212661,0.184716,-64.000945,-85.35917,69.566634
189819,-0.022098,0.106126,0.124258,-63.679947,-85.26773,69.232821
189919,-0.118021,-0.001092,0.064858,-63.902061,-85.234033,69.388816
190019,-0.139658,-0.058929,0.021402,-64.36115,-85.237186,69.770172
190119,-0.132558,-0.080627,-0.013007,-64.851053,-85.263261,70.186524
190219,-0.125185,-0.097421,-0.044751,-65.355597,-85.309604,70.621781
190319,-0.113532,-0.113575,-0.072869,-65.885489,-85.37412,71.089133
190419,-0.099833,-0.121935,-0.097053,-66.406805,-85.452884,71.555704
190519,-0.085637,-0.130172,-0.121513,-66.922407,-85.546026,72.02464
190619,-0.059426,-0.137438,-0.147526,-67.419128,-85.654166,72.489631
190719,-0.027303,-0.137237,-0.15885,-67.887367,-85.767921,72.944437
190819,0.007945,-0.115312,-0.153707,-68.213897,-85.873963,73.277333
190919,0.046998,-0.090643,-0.132441,-68.412097,-85.963292,73.503955
191019,0.074329,-0.08232,-0.105444,-68.621728,-86.036368,73.757699
191119,0.080254,-0.109797,-0.077122,-69.138291,-86.099806,74.322473
191219,0.065872,-0.148228,-0.053316,-70.059266,-86.157581,75.284278
191319,0.038643,-0.169599,-0.039968,-71.236802,-86.210927,76.487508
191419,0.00121,-0.178911,-0.026876,-72.581334,-86.256942,77.836532
191519,-0.033259,-0.176941,-0.016348,-73.986874,-86.294635,79.226837
191619,-0.064155,-0.187963,-0.00707,-75.553425,-86.32643,80.760694
191719,-0.088114,-0.193029,-0.006433,-77.204612,-86.355712,82.365554
191819,-0.097168,-0.189664,-0.022868,-78.826465,-86.390822,83.935767
191919,-0.092337,-0.203416,-0.043989,-80.567524,-86.436285,85.628124
192019,-0.075587,-0.237277,-0.070398,-82.622022,-86.496,87.644036
192119,-0.050689,-0.261719,-0.096019,-84.93899,-86.567032,89.93705
192219,-0.03228,-0.266434,-0.124591,-87.370723,-86.648755,92.35541
192319,-0.013983,-0.246052,-0.135225,-89.702553,-86.730224,94.683998
192419,-0.009046,-0.197714,-0.130451,-91.647608,-86.804168,96.627846
192519,-0.022385,-0.144057,-0.124945,-93.123591,-86.872897,98.094113
192619,-0.051499,-0.100361,-0.12866,-94.216335,-86.943489,99.15978
192719,-0.080947,-0.081122,-0.130895,-95.167427,-87.015195,100.066626
192819,-0.09048,-0.069066,-0.131764,-96.034278,-87.087269,100.883589
192919,-0.074175,-0.064641,-0.141263,-96.895151,-87.164354,101.703863
193019,-0.035162,-0.058727,-0.156772,-97.733691,-87.250014,102.524094
193119,0.03383,-0.029946,-0.1746,-98.264518,-87.347532,103.075775
193219,0.113727,0.03163,-0.17968,-98.014433,-87.452779,102.891513
193319,0.162515,0.0963,-0.17392,-96.843236,-87.559339,101.813253
193419,0.170407,0.149169,-0.161268,-94.807521,-87.660324,99.874327
193519,0.140865,0.212382,-0.150447,-91.679804,-87.753373,96.825714
193619,0.081333,0.298202,-0.14231,-87.031094,-87.832711,92.221026
193719,0.024314,0.431581,-0.136414,-80.05987,-87.881759,85.259709
193819,-0.003291,0.583049,-0.134848,-70.658681,-87.870336,75.851028
193919,0.004938,0.680281,-0.130286,-60.363202,-87.773716,65.5518
194019,0.031848,0.709305,-0.120338,-50.95295,-87.597405,56.15298
194119,0.054384,0.693906,-0.115503,-43.173266,-87.370575,48.397805
194219,0.046885,0.634057,-0.121763,-37.083212,-87.133228,42.328425
194319,-0.040541,0.516009,-0.141731,-32.508904,-86.932369,37.725471
194419,-0.152676,0.320816,-0.147157,-29.496397,-86.814051,34.621584
194519,-0.198522,0.065201,-0.113193,-28.22998,-86.808678,33.239974
194619,-0.199683,-0.1995,-0.093643,-28.437682,-86.931031,33.334083
194719,-0.153046,-0.386574,-0.099804,-29.598368,-87.148993,34.409186
194819,-0.095927,-0.427066,-0.111729,-31.040819,-87.389286,35.798924
194919,-0.086888,-0.334007,-0.112106,-32.074198,-87.582864,36.784144
195019,-0.138145,-0.148,-0.088679,-32.145968,-87.678675,36.777437
195119,-0.201866,0.038869,-0.045932,-31.364199,-87.670632,35.879947
195219,-0.236975,0.131646,-0.013777,-30.342705,-87.607054,34.722368
195319,-0.263887,0.108869,0.005908,-29.774121,-87.54862,34.002613
195419,-0.287265,0.06158,0.038878,-29.93296,-87.504319,33.997516
195519,-0.306319,0.047424,0.096923,-30.841044,-87.450328,34.731454
195619,-0.316248,0.020484,0.153094,-32.503235,-87.391976,36.214593
195719,-0.322227,-0.02747,0.185375,-34.763616,-87.344096,38.293181
195819,-0.304282,-0.084569,0.186618,-37.367216,-87.318318,40.725713
195919,-0.249163,-0.107562,0.159174,-39.81058,-87.30776,43.029487
196019,-0.181019,-0.09053,0.11929,-41.694642,-87.300734,44.812445
196119,-0.12804,-0.052366,0.07525,-42.831826,-87.292362,45.878094
196219,-0.087189,-0.023628,0.037185,-43.36584,-87.286205,46.36334
196319,-0.064879,0.00486,0.010218,-43.411781,-87.278741,46.372766
196419,-0.063849,0.036721,-0.003442,-43.074606,-87.263391,45.999235
196519,-0.089093,0.070432,-0.003229,-42.485659,-87.233683,45.359156
196619,-0.122382,0.106778,0.009432,-41.755338,-87.183349,44.558421
196719,-0.156794,0.130437,0.029649,-41.068087,-87.114743,43.781029
196819,-0.178802,0.12591,0.046179,-40.599591,-87.041558,43.210004
196919,-0.19435,0.097532,0.059059,-40.470417,-86.975817,42.969807
197019,-0.19122,0.055384,0.061306,-40.656975,-86.927623,43.047572
197119,-0.168661,0.009891,0.059635,-41.128032,-86.899765,43.423197
197219,-0.128637,-0.03635,0.058184,-41.881264,-86.892112,44.104381
197319,-0.073489,-0.08144,0.052721,-42.880442,-86.905116,45.063514
197419,-0.011396,-0.117335,0.047594,-44.0787,-86.934089,46.257622
197519,0.051188,-0.128157,0.041465,-45.299729,-86.968595,47.510408
197619,0.100038,-0.120268,0.039643,-46.443932,-86.999335,48.714253
197719,0.133335,-0.114114,0.042482,-47.563293,-87.025243,49.912296
197819,0.145499,-0.117357,0.048883,-48.768999,-87.048413,51.203756
197919,0.141051,-0.126202,0.046439,-50.054108,-87.074517,52.572145
198019,0.146049,-0.136935,0.041314,-51.417545,-87.105186,54.0218
198119,0.167774,-0.137891,0.04,-52.796418,-87.135029,55.499337
198219,0.208397,-0.101033,0.035632,-53.806009,-87.152702,56.630413
198319,0.245074,-0.044407,0.038813,-54.294792,-87.149101,57.261072
198419,0.25533,-0.001777,0.053648,-54.475632,-87.124167,57.589297
198519,0.252456,0.005766,0.075152,-54.723957,-87.086613,57.983456
198619,0.241757,-0.00683,0.091912,-55.191109,-87.045209,58.590606
198719,0.228726,-0.028883,0.107248,-55.944393,-87.003375,59.476825
198819,0.197634,-0.032233,0.120336,-56.799609,-86.955732,60.44732
198919,0.153345,-0.011954,0.133335,-57.543294,-86.89485,61.280764
199019,0.091759,0.012745,0.144891,-58.136493,-86.820352,61.928216
199119,0.011078,0.020898,0.152103,-58.713624,-86.739588,62.513332
199219,-0.073298,0.009603,0.14565,-59.372585,-86.665047,63.132041
199319,-0.13067,0.016594,0.132667,-59.914275,-86.59461,63.600402
199419,-0.132209,0.065762,0.116909,-59.959426,-86.517793,63.570486
199519,-0.077926,0.178639,0.105269,-59.025574,-86.413905,62.590871
199619,0.064654,0.314095,0.10803,-57.067225,-86.266063,60.666404
199719,0.207647,0.484945,0.131452,-54.123972,-86.046597,57.836542
199819,0.32056,0.669954,0.166495,-50.481084,-85.735706,54.369216
199919,0.382112,0.825938,0.243427,-46.858589,-85.317427,50.956083
200019,0.403189,0.861626,0.325781,-44.030727,-84.836852,48.350446
200119,0.370486,0.824878,0.380142,-42.064645,-84.341511,46.589607
200219,0.354792,0.782514,0.397425,-40.625758,-83.8532,45.348228
200319,0.345896,0.743169,0.408666,-39.556599,-83.375423,44.472623
200419,0.306526,0.621146,0.40048,-38.965428,-82.953565,44.054899
200519,0.253888,0.348364,0.349487,-39.041006,-82.671555,44.278475
200619,0.193402,0.016839,0.253696,-39.734951,-82.571215,45.090718
200719,0.154922,-0.230404,0.130415,-40.726711,-82.623324,46.181077
200819,0.126218,-0.35102,0.030549,-41.776722,-82.762765,47.313335
200919,0.13053,-0.394218,-0.046525,-42.741886,-82.947773,48.362153
201019,0.133968,-0.3316,-0.072069,-43.466206,-83.114691,49.16991
201119,0.184602,-0.222952,-0.08274,-43.796193,-83.239865,49.60948
201219,0.242846,-0.099479,-0.085131,-43.678732,-83.314767,49.632
201319,0.276688,0.054112,-0.060269,-43.111528,-83.31594,49.221204
201419,0.276796,0.151946,-0.042683,-42.286268,-83.268502,48.550603
201519,0.250834,0.137889,-0.027011,-41.588738,-83.220028,47.993564
201619,0.233748,0.115437,-0.01303,-41.031603,-83.175237,47.567992
201719,0.219946,0.136134,-0.002046,-40.464944,-83.116903,47.124809
201819,0.192746,0.200456,0.008513,-39.766844,-83.025965,46.533446
201919,0.143075,0.272588,0.003304,-38.885505,-82.904046,45.728644
202019,0.056296,0.288916,-0.019864,-37.95398,-82.781583,44.822937
202119,-0.050985,0.242841,-0.053214,-37.119483,-82.690038,43.952865
202219,-0.123146,0.163092,-0.081396,-36.45609,-82.643375,43.213487
202319,-0.140008,0.07827,-0.096635,-35.976407,-82.64017,42.649559
202419,-0.131382,0.018866,-0.107478,-35.606424,-82.667682,42.201236
202519,-0.11574,-0.007523,-0.125399,-35.226955,-82.713088,41.75242
202619,-0.122643,-0.012732,-0.149323,-34.771062,-82.768378,41.222625
202719,-0.131448,0.007538,-0.167401,-34.19293,-82.819338,40.564592
202819,-0.135966,0.03631,-0.172016,-33.518495,-82.857158,39.806952
202919,-0.142201,0.061691,-0.1599,-32.824015,-82.877858,39.025555
203019,-0.146674,0.083103,-0.130451,-32.190419,-82.877999,38.302946
203119,-0.142993,0.085197,-0.098354,-31.675267,-82.866481,37.701816
203219,-0.145342,0.063829,-0.074717,-31.30651,-82.857744,37.246851
203319,-0.146501,0.036649,-0.056889,-31.073354,-82.856736,36.927873
203419,-0.156831,0.005898,-0.048272,-30.952365,-82.86816,36.715972
203519,-0.171853,-0.020366,-0.039199,-30.937186,-82.889784,36.602034
203619,-0.190519,-0.052652,-0.036387,-31.02018,-82.926441,36.576253
203719,-0.216377,-0.081744,-0.029878,-31.214264,-82.975434,36.647478
203819,-0.234416,-0.101848,-0.019095,-31.513,-83.030985,36.813714
203919,-0.230424,-0.116157,-0.004156,-31.909013,-83.088854,37.080227
204019,-0.215907,-0.111977,0.008643,-32.343378,-83.140519,37.393714
204119,-0.183311,-0.095716,0.012475,-32.738148,-83.18283,37.686101
204219,-0.152169,-0.077367,0.018249,-33.094503,-83.21424,37.957746
204319,-0.126003,-0.050708,0.017736,-33.365888,-83.232811,38.158905
204419,-0.110578,-0.023511,0.013476,-33.539849,-83.239595,38.270854
204519,-0.096616,0.005432,0.005459,-33.596344,-83.235043,38.272569
204619,-0.069652,0.022017,-0.003989,-33.555118,-83.22554,38.191435
204719,-0.043609,0.016059,-0.012977,-33.478881,-83.221696,38.09007
204819,-0.019333,0.007974,-0.023114,-33.369516,-83.224879,37.96935
204919,0.007606,0.017402,-0.034608,-33.173368,-83.227102,37.77678
205019,0.048129,0.022277,-0.0502,-32.878032,-83.231735,37.507706
205119,0.085147,-0.003213,-0.062611,-32.577114,-83.252316,37.254373
205219,0.113716,-0.050253,-0.067104,-32.362324,-83.296859,37.104262
205319,0.142092,-0.084068,-0.065175,-32.225627,-83.357101,37.049158
205419,0.176729,-0.070642,-0.064893,-32.033246,-83.410683,36.957981
205519,0.210143,-0.008042,-0.070793,-31.629939,-83.435472,36.673756
205619,0.222871,0.074138,-0.080726,-30.962568,-83.422623,36.131066
205719,0.212841,0.145649,-0.091735,-30.077978,-83.376781,35.363894
205819,0.179592,0.204313,-0.11443,-28.986825,-83.306516,34.36949
205919,0.137352,0.275908,-0.143021,-27.658243,-83.20542,33.111466
206019,0.085027,0.391856,-0.179179,-26.002509,-83.050511,31.4934
206119,0.04438,0.52907,-0.223938,-23.99743,-82.829029,29.499214
206219,0.00218,0.67434,-0.274127,-21.69484,-82.532915,27.179571
206319,-0.0368,0.826938,-0.301306,-19.274094,-82.148417,24.716369
206419,-0.055799,0.945158,-0.294303,-16.98527,-81.685181,22.372903
206519,-0.070799,0.935662,-0.259996,-15.083904,-81.210136,20.40974
206619,-0.084372,0.715594,-0.19147,-13.807616,-80.839689,19.069268
206719,-0.140367,0.25787,-0.181251,-13.050728,-80.719525,18.221549
206819,-0.252219,-0.221546,-0.148693,-12.855409,-80.861934,17.877819
206919,-0.276614,-0.545385,-0.117285,-13.039412,-81.18128,17.904181
207019,-0.221426,-0.652303,-0.122896,-13.27165,-81.5611,18.011287
207119,-0.101415,-0.642451,-0.143552,-13.358617,-81.93817,18.040984
207219,-0.002,-0.558238,-0.157131,-13.254452,-82.270099,17.935208
207319,-0.004634,-0.365796,-0.133064,-13.053769,-82.491475,17.730608
207419,-0.05339,-0.132132,-0.089179,-12.828584,-82.576631,17.473195
207519,-0.074581,0.054145,-0.060596,-12.554354,-82.553935,17.154095
207619,-0.07831,0.175275,-0.03904,-12.264021,-82.460632,16.816554
207719,-0.109725,0.240267,0.003616,-12.119654,-82.325651,16.608022
207819,-0.194485,0.197283,0.071817,-12.346552,-82.206543,16.725084
207919,-0.313657,0.042922,0.128019,-13.004599,-82.166609,17.208428
208019,-0.407584,-0.142405,0.160483,-14.026052,-82.224674,18.00424
208119,-0.43034,-0.263825,0.171724,-15.254114,-82.346328,18.995215
208219,-0.364026,-0.301936,0.157095,-16.465015,-82.488435,20.006899
208319,-0.251244,-0.28259,0.130293,-17.514091,-82.621762,20.920231
208419,-0.138963,-0.238022,0.100484,-18.34334,-82.734079,21.676538
208519,-0.051309,-0.193608,0.073534,-18.964387,-82.825977,22.273433
208619,-0.002622,-0.172328,0.056641,-19.466789,-82.908793,22.778759
208719,0.01666,-0.169963,0.049885,-19.936417,-82.991092,23.262104
208819,0.018986,-0.178734,0.049752,-20.429638,-83.077629,23.770476
208919,0.0169,-0.184625,0.053469,-20.963167,-83.166014,24.318151
209019,0.008337,-0.188339,0.061201,-21.557037,-83.254127,24.921553
209119,-0.009138,-0.189511,0.069498,-22.216544,-83.340304,25.580854
209219,-0.025094,-0.19972,0.076203,-22.952907,-83.429462,26.308205
209319,-0.021857,-0.219311,0.083075,-23.778954,-83.526209,27.127555
209419,-0.011821,-0.251348,0.094249,-24.744755,-83.635593,28.093159
209519,0.003159,-0.277414,0.107472,-25.857014,-83.753266,29.214532
209619,0.027633,-0.31047,0.121167,-27.142998,-83.881786,30.524488
209719,0.053524,-0.342801,0.128218,-28.587161,-84.0214,32.008095
209819,0.078636,-0.375931,0.120318,-30.140524,-84.175643,33.61555
209919,0.096142,-0.397651,0.106052,-31.764161,-84.340123,35.303261
210019,0.107651,-0.408628,0.089509,-33.4322,-84.510089,37.041724
210119,0.116423,-0.399664,0.072786,-35.086042,-84.67623,38.770487
210219,0.109484,-0.359107,0.058707,-36.625517,-84.823642,40.379971
210319,0.101976,-0.297872,0.044993,-37.94434,-84.944162,41.763264
210419,0.084561,-0.236063,0.037841,-39.042786,-85.03687,42.915094
210519,0.068383,-0.181235,0.034273,-39.937473,-85.104859,43.852967
210619,0.070819,-0.135932,0.04016,-40.685828,-85.149701,44.645301
210719,0.087544,-0.116425,0.047098,-41.386039,-85.182642,45.398892
210819,0.103604,-0.115371,0.05239,-42.108688,-85.212313,46.1842
210919,0.100651,-0.13441,0.062533,-42.982481,-85.245164,47.119446
211019,0.083753,-0.139704,0.076579,-43.973623,-85.273396,48.162688
211119,0.053594,-0.108459,0.094857,-44.93,-85.280031,49.153684
211219,0.01103,-0.047873,0.119843,-45.732668,-85.250817,49.965992
211319,-0.055014,0.018382,0.143894,-46.348136,-85.184506,50.552531
211419,-0.143857,0.067638,0.158164,-46.822278,-85.092407,50.946215
211519,-0.243386,0.062342,0.15727,-47.358134,-85.00248,51.344661
211619,-0.31807,0.042933,0.140321,-47.938867,-84.926914,51.745252
211719,-0.34645,0.064557,0.112611,-48.300849,-84.854627,51.909944
211819,-0.303323,0.148222,0.089092,-48.141305,-84.760421,51.5758
211919,-0.207051,0.286236,0.068225,-47.226969,-84.621512,50.538952
212019,-0.074271,0.457489,0.05017,-45.487308,-84.420118,48.749138
212119,0.055557,0.652261,0.0481,-43.038201,-84.133419,46.320352
212219,0.138714,0.779576,0.071139,-40.427896,-83.773003,43.775973
212319,0.142891,0.79866,0.103868,-38.170296,-83.381171,41.587112
212419,0.067692,0.789877,0.125147,-36.309697,-82.977424,39.752922
212519,0.01027,0.785919,0.151997,-34.79037,-82.560345,38.227953
212619,0.027854,0.743906,0.189966,-33.651782,-82.146646,37.095851
212719,0.059601,0.596342,0.210148,-32.993555,-81.795018,36.466181
212819,0.075576,0.337307,0.203636,-32.895207,-81.569502,36.411122
212919,0.06208,0.016222,0.159745,-33.335701,-81.511936,36.892981
213019,0.076777,-0.307199,0.081757,-34.210147,-81.632519,37.82199
213119,0.100014,-0.470793,0.040383,-35.338646,-81.841274,39.020768
213219,0.128329,-0.496306,0.02423,-36.520624,-82.063808,40.289288
213319,0.176274,-0.434194,0.015071,-37.554048,-82.257619,41.434936
213419,0.281902,-0.337428,0.003846,-38.284294,-82.409204,42.335267
213519,0.382741,-0.197706,-0.00472,-38.577011,-82.500035,42.85227
213619,0.447352,-0.066368,0.008013,-38.525048,-82.52732,43.058894
213719,0.449756,0.001281,0.014332,-38.309801,-82.522044,43.102216
213819,0.431086,0.034544,0.011404,-38.00586,-82.50284,43.045293
213919,0.412135,0.073515,0.014885,-37.622105,-82.464737,42.896906
214019,0.378371,0.093106,0.01085,-37.195314,-82.419012,42.685576
214119,0.318957,0.092574,-0.002169,-36.762998,-82.377855,42.434306
214219,0.222438,0.06866,-0.030764,-36.351824,-82.357275,42.148553
214319,0.080082,0.032397,-0.068365,-35.985039,-82.365981,41.825289
214419,-0.043723,-0.013382,-0.104132,-35.678112,-82.407742,41.490868
214519,-0.125594,-0.044056,-0.131124,-35.396067,-82.472592,41.13427
214619,-0.168055,-0.058477,-0.13435,-35.157487,-82.545045,40.797032
214719,-0.194081,-0.058469,-0.130298,-34.942812,-82.615973,40.468921
214819,-0.21647,-0.040188,-0.1223,-34.718692,-82.675499,40.118402
214919,-0.232316,-0.01257,-0.11473,-34.457018,-82.719317,39.720911
215019,-0.229991,0.011379,-0.113881,-34.132815,-82.751241,39.26176
215119,-0.206484,0.019724,-0.118089,-33.755065,-82.78017,38.76224
215219,-0.180659,0.010751,-0.107761,-33.420733,-82.809704,38.32143
215319,-0.173538,-0.002399,-0.09536,-33.15939,-82.841338,37.958325
215419,-0.180763,-0.022276,-0.077057,-33.019443,-82.876624,37.713419
215519,-0.198421,-0.047357,-0.052397,-33.045999,-82.916218,37.62613
215619,-0.208452,-0.068589,-0.041173,-33.175361,-82.962497,37.636648
215719,-0.220513,-0.091462,-0.038684,-33.38101,-83.018936,37.717065
215819,-0.233801,-0.104575,-0.034514,-33.647251,-83.080268,37.850843
215919,-0.253844,-0.098635,-0.030895,-33.927161,-83.137523,37.986806
216019,-0.267781,-0.075636,-0.026684,-34.173444,-83.182408,38.080843
216119,-0.273919,-0.057081,-0.021726,-34.39483,-83.216832,38.14626
216219,-0.257036,-0.060672,-0.0143,-34.647504,-83.250472,38.252922
216319,-0.225654,-0.094944,-0.006951,-35.008859,-83.297719,38.487116
216419,-0.194398,-0.133078,0.003726,-35.507844,-83.359026,38.877884
216519,-0.15168,-0.120825,0.007936,-35.97174,-83.412798,39.257925
216619,-0.116486,-0.072237,0.008526,-36.280941,-83.443547,39.502514
216719,-0.084008,-0.021636,0.004737,-36.408443,-83.45209,39.582934
216819,-0.046775,9e-05,0.004696,-36.450179,-83.450592,39.598498
216919,-0.009742,-0.008192,0.000781,-36.479527,-83.45422,39.622952
217019,0.021994,-0.040257,-0.005215,-36.562087,-83.474635,39.719269
217119,0.047585,-0.074389,-0.017181,-36.684781,-83.514798,39.870734
217219,0.080183,-0.098191,-0.036889,-36.782706,-83.572594,40.016054
217319,0.123823,-0.136236,-0.062773,-36.868742,-83.656688,40.174553
217419,0.184286,-0.186372,-0.089719,-36.968563,-83.77298,40.381741
217519,0.260335,-0.206696,-0.106309,-37.025168,-83.90424,40.589241
217619,0.333983,-0.170982,-0.115826,-36.885616,-84.022412,40.641876
217719,0.368823,-0.099751,-0.119501,-36.470883,-84.109096,40.437908
217819,0.359404,-0.011197,-0.123108,-35.743639,-84.155736,39.914385
217919,0.315049,0.086793,-0.131981,-34.675357,-84.158519,39.022526
218019,0.254229,0.22579,-0.146945,-33.144248,-84.097848,37.630328
218119,0.212016,0.429554,-0.164168,-31.009917,-83.938876,35.607019
218219,0.189578,0.637018,-0.18538,-28.379733,-83.67396,33.071226
218319,0.147059,0.749618,-0.218623,-25.595219,-83.347548,30.354143
218419,0.061675,0.744152,-0.249999,-22.995295,-83.017373,27.771872
218519,-0.054887,0.671164,-0.256687,-20.785902,-82.714954,25.514118
218619,-0.148052,0.573225,-0.248407,-18.979632,-82.454167,23.60763
218719,-0.224083,0.450725,-0.236329,-17.543606,-82.25113,22.029724
218819,-0.255796,0.239639,-0.210186,-16.551761,-82.155048,20.881233
218919,-0.242069,-0.008941,-0.155766,-16.074825,-82.185006,20.260338
219019,-0.181348,-0.234547,-0.108233,-16.01047,-82.331335,20.091056
219119,-0.045113,-0.373022,-0.075511,-16.166324,-82.548771,20.222726
219219,0.08955,-0.408619,-0.059995,-16.364928,-82.783271,20.475223
219319,0.119669,-0.357345,-0.040871,-16.578073,-82.986388,20.759643
219419,0.052405,-0.236638,-0.005629,-16.838848,-83.117325,21.053121
219519,-0.018316,-0.116669,0.020569,-17.1016,-83.177997,21.307719
219619,-0.070568,-0.049788,0.017199,-17.287424,-83.202552,21.454668
219719,-0.115113,-0.012252,0.015631,-17.438578,-83.206841,21.540992
219819,-0.179223,0.009316,0.043031,-17.720834,-83.194611,21.722353
219919,-0.256694,-0.005026,0.089855,-18.281419,-83.181789,22.13932
220019,-0.322245,-0.060077,0.137909,-19.181216,-83.189408,22.860086
220119,-0.33731,-0.134987,0.167229,-20.348184,-83.230227,23.841179
220219,-0.296382,-0.190903,0.174051,-21.635001,-83.297086,24.966454
220319,-0.217515,-0.216092,0.155727,-22.865173,-83.378375,26.080021
220419,-0.121661,-0.216085,0.128887,-23.946148,-83.463155,27.098497
220519,-0.040948,-0.215193,0.0996,-24.871244,-83.552351,28.006455
220619,0.01365,-0.219753,0.072713,-25.675739,-83.648929,28.824369
220719,0.045127,-0.222048,0.045628,-26.365206,-83.752297,29.544542
220819,0.057911,-0.212307,0.030463,-26.975164,-83.853671,30.191967
220919,0.053547,-0.182028,0.027448,-27.518164,-83.939698,30.769425
221019,0.029616,-0.135458,0.033691,-28.00121,-83.999887,31.272731
221119,-0.003423,-0.08813,0.046521,-28.450976,-84.032267,31.723499
221219,-0.040172,-0.053763,0.061792,-28.908754,-84.042797,32.161135
221319,-0.056786,-0.050546,0.070341,-29.409861,-84.048949,32.632756
221419,-0.055567,-0.095757,0.08376,-30.09982,-84.073266,33.294938
221519,-0.04149,-0.142071,0.093567,-30.965804,-84.116651,34.142152
221619,-0.008464,-0.18872,0.099237,-31.990672,-84.179687,35.168022
221719,0.027678,-0.223569,0.10473,-33.151211,-84.255846,36.350943
221819,0.06776,-0.234253,0.102578,-34.344089,-84.335307,37.589283
221919,0.108915,-0.230266,0.09789,-35.511188,-84.411873,38.825245
222019,0.137008,-0.23434,0.083988,-36.642996,-84.492564,40.041757
222119,0.155621,-0.234415,0.070644,-37.734904,-84.575607,41.228733
222219,0.164776,-0.238973,0.061937,-38.832159,-84.66161,42.426183
222319,0.168259,-0.24806,0.054128,-39.963236,-84.752269,43.659432
222419,0.161862,-0.252017,0.050867,-41.139552,-84.84355,44.934249
222519,0.153315,-0.231905,0.049999,-42.272269,-84.924198,46.160203
222619,0.146545,-0.167842,0.053702,-43.176187,-84.974468,47.152451
222719,0.153037,-0.078534,0.060604,-43.721145,-84.983743,47.788048
222819,0.173632,-0.003624,0.06489,-43.936044,-84.959969,48.104164
222919,0.194723,0.033198,0.068931,-43.989392,-84.919324,48.270246
223019,0.211135,0.040862,0.077808,-44.038063,-84.871962,48.441087
223119,0.209691,0.034395,0.093096,-44.183154,-84.821126,48.707924
223219,0.193106,0.026061,0.107712,-44.435298,-84.767767,49.072737
223319,0.173879,0.032483,0.130757,-44.765117,-84.702343,49.504528
223419,0.144373,0.055554,0.155048,-45.106905,-84.6175,49.931415
223519,0.087953,0.070739,0.178151,-45.500561,-84.516885,50.377996
223619,0.011011,0.082992,0.191287,-45.924357,-84.405698,50.810648
223719,-0.052025,0.10726,0.195499,-46.282923,-84.282872,51.141542
223819,-0.055784,0.14707,0.195419,-46.466653,-84.144209,51.29462
223919,0.005678,0.204603,0.186536,-46.346564,-83.986497,51.177689
224019,0.107838,0.310655,0.17221,-45.718515,-83.792403,50.608734
224119,0.220427,0.506977,0.175265,-44.371939,-83.516513,49.381488
224219,0.312962,0.735469,0.202759,-42.430362,-83.130802,47.607771
224319,0.366889,0.86837,0.251051,-40.434264,-82.662764,45.808664
224419,0.348035,0.875215,0.289897,-38.78614,-82.170665,44.347764
224519,0.303701,0.836287,0.297265,-37.463241,-81.688687,43.187974
224619,0.275347,0.782304,0.313541,-36.460384,-81.222653,42.33398
224719,0.240529,0.647243,0.323289,-35.878144,-80.814162,41.884607
224819,0.215498,0.3818,0.310753,-35.847919,-80.532868,41.979657
224919,0.191366,0.024167,0.255933,-36.39185,-80.435654,42.642889
225019,0.166246,-0.304926,0.168497,-37.378038,-80.517972,43.739962
225119,0.179725,-0.536834,0.078152,-38.632413,-80.733387,45.116191
225219,0.172363,-0.600959,0.03312,-39.977457,-80.988495,46.579049
225319,0.161573,-0.540907,0.022267,-41.23218,-81.216208,47.943245
225419,0.160598,-0.449015,0.023974,-42.325697,-81.399628,49.143035
225519,0.199808,-0.303891,0.051622,-43.139716,-81.508158,50.082442
225619,0.22349,-0.152558,0.081889,-43.641385,-81.540138,50.719594
225719,0.214991,-0.049425,0.097697,-43.919417,-81.522541,51.125707
225819,0.208654,0.009551,0.087679,-44.014759,-81.484416,51.343457
225919,0.207664,0.051561,0.059601,-43.921152,-81.440153,51.369591
226019,0.21522,0.090835,0.006315,-43.574792,-81.400798,51.144491
226119,0.202007,0.122719,-0.069646,-42.946912,-81.377739,50.626982
226219,0.145081,0.130224,-0.147906,-42.116935,-81.3809,49.872062
226319,0.067212,0.09684,-0.212342,-41.230982,-81.421257,49.01545
226419,-0.004998,0.042059,-0.263063,-40.366164,-81.502447,48.13851
226519,-0.067574,-0.005737,-0.293879,-39.546358,-81.614077,47.271049
226619,-0.126975,-0.034954,-0.296186,-38.803129,-81.737779,46.446849
226719,-0.196852,-0.042903,-0.273134,-38.168838,-81.855373,45.692518
226819,-0.256227,-0.038834,-0.243103,-37.635223,-81.95943,45.005725
226919,-0.295605,-0.022629,-0.210336,-37.175697,-82.043836,44.371127
227019,-0.298583,0.008611,-0.180261,-36.729062,-82.102846,43.747937
227119,-0.284733,0.036319,-0.149417,-36.302048,-82.137893,43.152639
227219,-0.27703,0.05952,-0.117488,-35.917518,-82.150814,42.604718
227319,-0.280647,0.074249,-0.089676,-35.592329,-82.14709,42.114615
227419,-0.293164,0.060706,-0.069366,-35.376121,-82.142598,41.727281
227519,-0.314409,0.03397,-0.051989,-35.295335,-82.144701,41.464364
227619,-0.320902,-0.009306,-0.044643,-35.346875,-82.164587,41.331276
227719,-0.320069,-0.078097,-0.048957,-35.54965,-82.218054,41.351332
227819,-0.315803,-0.146609,-0.058453,-35.888169,-82.306545,41.510843
227919,-0.300803,-0.181977,-0.06898,-36.276966,-82.414809,41.729718
228019,-0.279372,-0.18261,-0.074252,-36.64533,-82.524935,41.940315
228119,-0.254917,-0.169596,-0.068101,-36.995378,-82.626766,42.146522
228219,-0.226183,-0.158661,-0.055819,-37.350793,-82.719139,42.374699
228319,-0.185882,-0.150821,-0.03637,-37.738659,-82.800911,42.658824
228419,-0.134297,-0.145127,-0.016164,-38.161392,-82.87267,43.007836
228519,-0.083323,-0.147086,-0.004162,-38.611745,-82.940645,43.414063
228619,-0.037106,-0.123026,0.00114,-38.99234,-82.995551,43.776636
228719,-0.002584,-0.078137,0.001501,-39.226771,-83.030084,44.011848
228819,0.018277,-0.024229,-0.002685,-39.275459,-83.04211,44.07197
228919,0.036292,0.002215,-0.005999,-39.223205,-83.043577,44.040801
229019,0.057551,-0.015885,-0.013746,-39.184229,-83.055857,44.035283
229119,0.080209,-0.051911,-0.031246,-39.175524,-83.090443,44.073339
229219,0.098194,-0.078032,-0.04781,-39.174055,-83.142598,44.129063
229319,0.109661,-0.086486,-0.05807,-39.15383,-83.202191,44.172509
229419,0.113243,-0.094357,-0.059053,-39.152154,-83.26561,44.236699
229519,0.120697,-0.114168,-0.056259,-39.218807,-83.336781,44.373982
229619,0.165458,-0.101667,-0.051698,-39.240154,-83.400701,44.491457
229719,0.221512,-0.047556,-0.054138,-39.050435,-83.441432,44.428788
229819,0.263959,0.024555,-0.059527,-38.587731,-83.451814,44.115828
229919,0.274815,0.074163,-0.064211,-37.946271,-83.441135,43.629203
230019,0.251306,0.098794,-0.076165,-37.198331,-83.422701,43.021828
230119,0.222012,0.129229,-0.103284,-36.272915,-83.398496,42.218884
230219,0.184785,0.216686,-0.127207,-35.030188,-83.339752,41.074959
230319,0.149451,0.381933,-0.152007,-33.286199,-83.207156,39.405698
230419,0.100004,0.578644,-0.191729,-30.998102,-82.984398,37.159202
230519,0.041295,0.720767,-0.212215,-28.498575,-82.685681,34.664453
230619,0.002023,0.823578,-0.214504,-26.018895,-82.322018,32.165168
230719,-0.03172,0.756866,-0.196223,-23.964325,-81.976104,30.073396
230819,-0.083121,0.434429,-0.177692,-22.661777,-81.78763,28.710114
230919,-0.156506,-0.001883,-0.155886,-22.177634,-81.822678,28.130919
231019,-0.212209,-0.392539,-0.130457,-22.410516,-82.059252,28.243852
231119,-0.200899,-0.641948,-0.125515,-23.080009,-82.426501,28.803875
231219,-0.088209,-0.727157,-0.146051,-23.816296,-82.842359,29.495837
231319,0.077958,-0.707494,-0.185452,-24.328745,-83.25621,30.057586
231419,0.159147,-0.5637,-0.21037,-24.437902,-83.600564,30.259763
231519,0.135346,-0.297169,-0.170765,-24.182802,-83.796434,30.081644
231619,0.032467,-0.026166,-0.110209,-23.682362,-83.836168,29.597498
231719,-0.078381,0.121845,-0.061853,-23.16606,-83.786624,29.03351
231819,-0.160236,0.167177,-0.03354,-22.750219,-83.706377,28.523331
231919,-0.243053,0.153126,0.018802,-22.669102,-83.621785,28.302106
232019,-0.335401,0.083486,0.094025,-23.133059,-83.55731,28.576105
232119,-0.407093,-0.035387,0.167032,-24.209843,-83.53806,29.425517
232219,-0.412706,-0.155388,0.203676,-25.712561,-83.570179,30.700321
232319,-0.32463,-0.227003,0.190656,-27.286316,-83.63852,32.097257
232419,-0.172305,-0.270803,0.154703,-28.749352,-83.734553,33.470381
232519,-0.020818,-0.292865,0.108046,-30.012702,-83.851094,34.729669
232619,0.082312,-0.283944,0.063553,-31.032943,-83.973431,35.803613
232719,0.136389,-0.273232,0.031803,-31.884124,-84.098138,36.738486
232819,0.137246,-0.273838,0.014141,-32.690596,-84.227121,37.628696
232919,0.093336,-0.276898,0.01213,-33.560843,-84.356864,38.557512
233019,0.036795,-0.273582,0.025498,-34.559696,-84.479222,39.582795
233119,-0.009499,-0.271896,0.042455,-35.707999,-84.593316,40.73136
233219,-0.039679,-0.276696,0.058444,-37.019293,-84.701822,42.026049
233319,-0.054827,-0.279467,0.067983,-38.450908,-84.805317,43.432627
233419,-0.046587,-0.298292,0.071172,-40.027915,-84.912598,44.98969
233519,-0.020652,-0.313139,0.072033,-41.725241,-85.021957,46.682191
233619,0.006679,-0.323036,0.065672,-43.495999,-85.133414,48.46383
233719,0.030821,-0.341711,0.066574,-45.43003,-85.247146,50.422901
233819,0.050066,-0.367143,0.069591,-47.592566,-85.363714,52.621981
233919,0.072452,-0.380143,0.06965,-49.92319,-85.478027,55.002193
234019,0.084012,-0.392685,0.07272,-52.45222,-85.587319,57.587693
234119,0.091283,-0.398071,0.074886,-55.143825,-85.688148,60.340051
234219,0.090987,-0.386029,0.073026,-57.871738,-85.776044,63.128307
234319,0.089719,-0.356668,0.072697,-60.506623,-85.845674,65.822274
234419,0.080169,-0.311249,0.071151,-62.901527,-85.89504,68.269948
234519,0.063682,-0.253206,0.07162,-64.936924,-85.922692,70.347611
234619,0.045688,-0.193833,0.074261,-66.575313,-85.930235,72.016879
234719,0.045246,-0.124046,0.073008,-67.69361,-85.920053,73.164486
234819,0.063418,-0.069935,0.074383,-68.395873,-85.896258,73.905461
234919,0.06908,-0.043818,0.078144,-68.903306,-85.864454,74.45438
235019,0.065145,-0.038438,0.079443,-69.368493,-85.83052,74.958706
235119,0.048977,-0.039807,0.085276,-69.860367,-85.793419,75.480526
235219,0.03255,-0.029043,0.1008,-70.314465,-85.745536,75.955059
235319,0.013886,-0.003399,0.122744,-70.639626,-85.680655,76.289607
235419,-0.024333,0.022544,0.14505,-70.848013,-85.598697,76.485112
235519,-0.082497,0.030017,0.161167,-71.068366,-85.506574,76.659215
235619,-0.1671,0.024769,0.173075,-71.391202,-85.408922,76.887518
235719,-0.251287,0.048365,0.171839,-71.590727,-85.307603,76.94374
235819,-0.298026,0.103557,0.153253,-71.412765,-85.20638,76.594314
235919,-0.26497,0.190826,0.124702,-70.611886,-85.104128,75.638696
236019,-0.152596,0.322397,0.090403,-68.897419,-84.992466,73.830551
236119,0.000869,0.50045,0.061603,-66.058564,-84.850793,70.981529
236219,0.142965,0.700572,0.059375,-62.19751,-84.645605,67.187005
236319,0.227778,0.853147,0.093386,-57.932568,-84.355654,63.03403
236419,0.241939,0.905878,0.148728,-54.032828,-83.994856,59.253985
236519,0.194851,0.889828,0.190089,-50.805187,-83.59776,56.120225
236619,0.176329,0.897396,0.226645,-48.057118,-83.164854,53.456017
236719,0.211428,0.927275,0.257583,-45.617998,-82.693917,51.120861
236819,0.245308,0.866886,0.267027,-43.656241,-82.233238,49.284354
236919,0.225369,0.635841,0.237831,-42.453507,-81.874406,48.200877
237019,0.189448,0.2738,0.157246,-42.071751,-81.698255,47.925346
237119,0.181005,0.003353,0.048087,-42.095541,-81.679,48.054694
237219,0.177566,-0.117515,-0.015843,-42.254529,-81.735698,48.31866
237319,0.15686,-0.164542,-0.043513,-42.473941,-81.8229,48.631635
237419,0.178225,-0.195983,-0.054713,-42.740171,-81.927534,49.004186
237519,0.226413,-0.173231,-0.047841,-42.944489,-82.019711,49.342002
237619,0.290337,-0.10374,-0.019013,-43.009516,-82.071368,49.576095
237719,0.328809,-0.037668,0.013834,-42.96741,-82.082471,49.724258
237819,0.340083,-0.001172,0.031412,-42.869798,-82.071408,49.822901
237919,0.337377,0.005252,0.021099,-42.724941,-82.06169,49.872277
238019,0.355045,0.004078,-0.005706,-42.492441,-82.062909,49.843381
238119,0.349598,0.020694,-0.039536,-42.11406,-82.070155,49.66404
238219,0.303,0.056193,-0.080738,-41.537764,-82.077839,49.257917
238319,0.205107,0.087052,-0.129288,-40.781776,-82.089935,48.61375
238419,0.081562,0.111823,-0.180795,-39.865373,-82.109075,47.736189
238519,-0.018219,0.099527,-0.220395,-38.90598,-82.146133,46.757572
238619,-0.098854,0.064192,-0.240485,-38.008313,-82.204061,45.794738
238719,-0.165969,0.018568,-0.246506,-37.231355,-82.282894,44.915077
238819,-0.22103,-0.022116,-0.243335,-36.583363,-82.377788,44.133897
238919,-0.267732,-0.060824,-0.228803,-36.09402,-82.484554,43.485955
239019,-0.298433,-0.076512,-0.211879,-35.707032,-82.592231,42.923665
239119,-0.303267,-0.076293,-0.190273,-35.387387,-82.692125,42.426619
239219,-0.294329,-0.080254,-0.169128,-35.140303,-82.786536,42.007995
239319,-0.288131,-0.083554,-0.134131,-35.021384,-82.870784,41.722209
239419,-0.293739,-0.105216,-0.093127,-35.114382,-82.951674,41.646787
239519,-0.309353,-0.143579,-0.057498,-35.457043,-83.038743,41.813906
239619,-0.320292,-0.190235,-0.036401,-36.023813,-83.140277,42.200427
239719,-0.330898,-0.231461,-0.028342,-36.761208,-83.257539,42.752576
239819,-0.343878,-0.249246,-0.033651,-37.561274,-83.383857,43.360198
239919,-0.345314,-0.245724,-0.051634,-38.307149,-83.513934,43.91229
240019,-0.345664,-0.234853,-0.071201,-38.966087,-83.645336,44.376553
240119,-0.333017,-0.209176,-0.085587,-39.497182,-83.769971,44.719378
240219,-0.297845,-0.195653,-0.09099,-39.957025,-83.890248,45.010732
240319,-0.254853,-0.199685,-0.090046,-40.425222,-84.011627,45.335197
240419,-0.214896,-0.205604,-0.085063,-40.929287,-84.133358,45.718675
240519,-0.170137,-0.197291,-0.074236,-41.441191,-84.246995,46.135737
240619,-0.143599,-0.16244,-0.066507,-41.855015,-84.342359,46.469443
240719,-0.131337,-0.10337,-0.057852,-42.079569,-84.408998,46.619983
240819,-0.130827,-0.048532,-0.05512,-42.102631,-84.451192,46.56836
240919,-0.123842,-0.027611,-0.054204,-42.042215,-84.484097,46.436899
241019,-0.096741,-0.035969,-0.058512,-41.979259,-84.522169,46.318496
241119,-0.05017,-0.060788,-0.063232,-41.966968,-84.572585,46.277806
241219,-0.002394,-0.08642,-0.069119,-42.004494,-84.636146,46.314656
241319,0.038883,-0.11078,-0.077644,-42.080963,-84.713312,46.41437
241419,0.073041,-0.140809,-0.08873,-42.215672,-84.80745,46.592212
241519,0.105339,-0.161391,-0.092589,-42.40845,-84.911712,46.846915
241619,0.134387,-0.143385,-0.094512,-42.504529,-85.008998,47.021218
241719,0.163313,-0.084959,-0.099837,-42.299564,-85.083577,46.909967
241819,0.169233,0.007614,-0.106399,-41.636659,-85.121091,46.342521
241919,0.156238,0.101671,-0.115586,-40.510603,-85.120595,45.302791
242019,0.146803,0.203294,-0.129065,-38.891197,-85.078022,43.762452
242119,0.146183,0.343482,-0.151121,-36.631081,-84.975148,41.578465
242219,0.156587,0.555769,-0.176001,-33.574783,-84.772156,38.600581
242319,0.161497,0.80787,-0.21209,-29.804799,-84.441474,34.907403
242419,0.16603,1.042415,-0.255824,-25.681004,-83.980269,30.858732
242519,0.14241,1.219458,-0.285232,-21.699173,-83.405205,26.935404
242619,0.12071,1.284532,-0.309083,-18.180199,-82.772899,23.460995
242719,0.106067,1.2034,-0.290957,-15.401923,-82.160307,20.720452
242819,0.104771,0.938357,-0.269639,-13.344362,-81.677424,18.703468
242919,0.048309,0.504462,-0.226138,-12.035574,-81.423716,17.408853
243019,-0.001471,0.024118,-0.165429,-11.399917,-81.429429,16.765696
243119,0.038444,-0.34577,-0.152719,-11.058235,-81.640931,16.443048
243219,0.141792,-0.497603,-0.161026,-10.719902,-81.93859,16.183818
243319,0.254095,-0.504819,-0.18536,-10.197506,-82.242629,15.803911
243419,0.236898,-0.424297,-0.206308,-9.498899,-82.502721,15.236532
243519,0.076143,-0.285106,-0.177862,-8.877915,-82.6806,14.654832
243619,-0.108327,-0.117775,-0.108321,-8.535153,-82.757047,14.24723
243719,-0.228687,-0.011199,-0.051649,-8.438378,-82.768148,14.018112
243819,-0.292708,-0.001667,0.007143,-8.634374,-82.768942,14.047138
243919,-0.332396,-0.054964,0.078876,-9.211391,-82.793588,14.437302
244019,-0.373059,-0.160116,0.150378,-10.21942,-82.870113,15.238344
244119,-0.392161,-0.276925,0.202099,-11.600574,-83.004727,16.404146
244219,-0.370734,-0.367857,0.214751,-13.175427,-83.184995,17.777031
244319,-0.297781,-0.416461,0.203038,-14.792036,-83.389277,19.233494
244419,-0.208275,-0.408198,0.17476,-16.303077,-83.58863,20.634724
244519,-0.12946,-0.369778,0.14479,-17.64914,-83.767917,21.91488
244619,-0.059925,-0.326538,0.120958,-18.834496,-83.924786,23.073058
244719,-0.014112,-0.300991,0.105245,-19.924904,-84.068333,24.161833
244819,-0.014032,-0.291082,0.09256,-20.981572,-84.206936,25.216459
244919,-0.042542,-0.257162,0.08933,-22.014851,-84.326143,26.230917
245019,-0.082232,-0.221742,0.09036,-23.03824,-84.424534,27.212393
245119,-0.113399,-0.181898,0.097219,-24.055408,-84.498691,28.169532
245219,-0.133458,-0.133166,0.107226,-25.040961,-84.543433,29.083268
245319,-0.137071,-0.091576,0.120818,-26.007555,-84.561808,29.975832
245419,-0.121873,-0.059884,0.130109,-26.934773,-84.560138,30.837575
245519,-0.09154,-0.052439,0.142222,-27.887237,-84.550135,31.742146
245619,-0.061759,-0.056854,0.150874,-28.877142,-84.538533,32.701486
245719,-0.036317,-0.065429,0.163681,-29.939953,-84.525961,33.748728
245819,-0.021248,-0.075617,0.169067,-31.047735,-84.514953,34.849841
245919,-0.001073,-0.092128,0.170249,-32.197348,-84.509568,36.004605
246019,0.020141,-0.107291,0.167822,-33.369493,-84.509995,37.19422
246119,0.040362,-0.117779,0.159868,-34.52588,-84.515631,38.379636
246219,0.050818,-0.123953,0.144804,-35.626252,-84.526879,39.514781
246319,0.048101,-0.140432,0.135372,-36.745786,-84.546828,40.667581
246419,0.041926,-0.15434,0.129358,-37.899183,-84.573011,41.850799
246519,0.028027,-0.149519,0.119256,-39.004926,-84.5984,42.9781
246619,0.018659,-0.125498,0.108218,-39.98019,-84.615238,43.96891
246719,0.010849,-0.071545,0.106943,-40.744716,-84.607557,44.743547
246819,0.022702,-0.000964,0.112201,-41.241601,-84.566547,45.256198
246919,0.050472,0.072904,0.122421,-41.467903,-84.489558,45.513066
247019,0.084845,0.118658,0.132078,-41.532247,-84.389173,45.62704
247119,0.114257,0.120902,0.139551,-41.599959,-84.284941,45.761357
247219,0.129747,0.09012,0.146549,-41.799801,-84.191154,46.037422
247319,0.124734,0.059308,0.15007,-42.123797,-84.109001,46.435448
247419,0.109153,0.053405,0.155136,-42.488776,-84.027144,46.865763
247519,0.088015,0.068497,0.160987,-42.822471,-83.936382,47.252512
247619,0.055094,0.092624,0.168732,-43.106322,-83.832268,47.57023
247719,-0.003164,0.104204,0.170784,-43.379172,-83.722363,47.843368
247819,-0.069131,0.11548,0.165681,-43.620864,-83.609671,48.047185
247919,-0.113879,0.147245,0.152601,-43.721769,-83.488935,48.083562
248019,-0.097638,0.221297,0.133869,-43.492188,-83.344871,47.796641
248119,-0.030281,0.36466,0.107749,-42.675354,-83.150706,46.957137
248219,0.115716,0.545249,0.107015,-41.266061,-82.877935,45.604623
248319,0.257756,0.720587,0.128519,-39.45985,-82.516029,43.933074
248419,0.359403,0.833393,0.165263,-37.592695,-82.083743,42.257289
248519,0.388167,0.894805,0.207861,-35.888127,-81.601843,40.760548
248619,0.350911,0.892544,0.247587,-34.503962,-81.102366,39.564405
248719,0.30959,0.79446,0.283305,-33.57213,-80.634555,38.80083
248819,0.247904,0.57243,0.308639,-33.229344,-80.26377,38.597795
248919,0.184805,0.21602,0.284893,-33.512968,-80.071143,38.993623
249019,0.145164,-0.197823,0.220364,-34.387434,-80.095333,39.966277
249119,0.113841,-0.533926,0.157797,-35.764663,-80.294559,41.430579
249219,0.120735,-0.724828,0.102664,-37.444572,-80.593803,43.20472
249319,0.163365,-0.738086,0.056757,-39.11432,-80.906609,44.991735
249419,0.249374,-0.65684,0.006648,-40.518497,-81.19421,46.558293
249519,0.340015,-0.462882,-0.022986,-41.393156,-81.404062,47.640657
249619,0.411589,-0.185804,-0.032023,-41.533485,-81.496867,48.021481
249719,0.422904,0.060145,-0.033551,-41.041487,-81.484502,47.769459
249819,0.389165,0.196878,-0.042761,-40.20516,-81.415661,47.149665
249919,0.362992,0.231921,-0.049867,-39.291085,-81.332595,46.435941
250019,0.349772,0.200928,-0.05566,-38.45514,-81.263853,45.793446
250119,0.319471,0.14165,-0.059723,-37.770744,-81.222061,45.286617
250219,0.241958,0.08999,-0.076157,-37.203441,-81.208743,44.853285
250319,0.114533,0.027494,-0.114533,-36.735092,-81.236762,44.446202
250419,-0.036549,-0.059125,-0.160417,-36.404313,-81.31996,44.090774
250519,-0.163198,-0.137444,-0.193242,-36.214283,-81.450273,43.804405
250619,-0.241681,-0.174333,-0.207995,-36.099763,-81.602556,43.54902
250719,-0.273306,-0.171145,-0.210886,-35.979833,-81.754256,43.269957
250819,-0.285112,-0.136777,-0.20608,-35.793973,-81.88825,42.91756
250919,-0.29408,-0.089182,-0.207422,-35.486955,-82.000271,42.437722
251019,-0.330261,-0.025225,-0.200166,-35.062717,-82.079499,41.81871
251119,-0.357548,0.025476,-0.179372,-34.595715,-82.127365,41.140844
251219,-0.36446,0.045156,-0.161166,-34.142947,-82.159254,40.473418
251319,-0.357607,0.040238,-0.143252,-33.755622,-82.187058,39.876065
251419,-0.363849,0.033817,-0.12296,-33.454383,-82.210986,39.362032
251519,-0.385929,0.018182,-0.101452,-33.274987,-82.235314,38.958236
251619,-0.413737,-0.00187,-0.080479,-33.229957,-82.262541,38.673993
251719,-0.427365,-0.029669,-0.06983,-33.293659,-82.299733,38.49162
251819,-0.428491,-0.060084,-0.069664,-33.429085,-82.351452,38.38099
251919,-0.428822,-0.077533,-0.081736,-33.562883,-82.415332,38.268543
252019,-0.409452,-0.072129,-0.087906,-33.650482,-82.478579,38.120712
252119,-0.375383,-0.069057,-0.084299,-33.723782,-82.539191,37.978172
252219,-0.333359,-0.070698,-0.071008,-33.825287,-82.596314,37.888387
252319,-0.282675,-0.07099,-0.057388,-33.948914,-82.649173,37.850208
252419,-0.232884,-0.091333,-0.046997,-34.134265,-82.708291,37.90304
252519,-0.178001,-0.127472,-0.038451,-34.414146,-82.781652,38.082864
252619,-0.114603,-0.145282,-0.030142,-34.739926,-82.860512,38.345541
252719,-0.059393,-0.131819,-0.030015,-35.005263,-82.932758,38.57915
252819,-0.019396,-0.10002,-0.031113,-35.163006,-82.990284,38.727413
252919,-0.000636,-0.085477,-0.029677,-35.278539,-83.040433,38.843969
253019,0.015406,-0.091216,-0.027011,-35.412565,-83.092308,38.988405
253119,0.041569,-0.105656,-0.03106,-35.558041,-83.152184,39.159462
253219,0.075849,-0.117074,-0.041106,-35.679475,-83.220644,39.326068
253319,0.120633,-0.143729,-0.050381,-35.817592,-83.304526,39.535289
253419,0.15357,-0.197153,-0.060544,-36.056318,-83.416495,39.86476
253519,0.204144,-0.229594,-0.061005,-36.371309,-83.543391,40.300084
253619,0.275255,-0.209015,-0.056469,-36.615718,-83.658973,40.705285
253719,0.335814,-0.158936,-0.058191,-36.672717,-83.751948,40.956773
253819,0.342116,-0.107529,-0.066021,-36.534366,-83.823906,41.015359
253919,0.305874,-0.052965,-0.071985,-36.216708,-83.872648,40.872719
254019,0.267437,0.036034,-0.073437,-35.630818,-83.880344,40.438177
254119,0.23861,0.172281,-0.077973,-34.624208,-83.824926,39.563861
254219,0.201708,0.374975,-0.104952,-32.956266,-83.679322,38.002834
254319,0.149316,0.553409,-0.141044,-30.772504,-83.452123,35.891946
254419,0.070863,0.671413,-0.187953,-28.310035,-83.169953,33.454101
254519,0.006254,0.735516,-0.235757,-25.756202,-82.855422,30.885381
254619,-0.039531,0.712736,-0.276163,-23.325126,-82.549225,28.412214
254719,-0.09655,0.576592,-0.326763,-21.130826,-82.313973,26.143399
254819,-0.121293,0.288831,-0.341334,-19.42248,-82.226452,24.349808
254919,-0.120192,-0.056225,-0.289212,-18.410609,-82.310756,23.259696
255019,-0.095952,-0.337877,-0.242645,-17.923628,-82.538284,22.713497
255119,0.005101,-0.502312,-0.22145,-17.661942,-82.85144,22.453141
255219,0.168285,-0.556433,-0.21475,-17.388831,-83.192929,22.275651
255319,0.263537,-0.486618,-0.17924,-17.103043,-83.490112,22.140461
255419,0.237852,-0.327851,-0.123756,-16.848214,-83.690947,22.021681
255519,0.136845,-0.18288,-0.063748,-16.723538,-83.802295,21.975649
255619,0.019657,-0.084924,0.007779,-16.878273,-83.848104,22.143126
255719,-0.106412,-0.057507,0.055352,-17.30751,-83.870855,22.514024
255819,-0.22755,-0.072394,0.090647,-18.013647,-83.895275,23.093582
255919,-0.333635,-0.081839,0.134499,-19.025469,-83.91598,23.919405
256019,-0.407669,-0.120341,0.190115,-20.439505,-83.944888,25.10701
256119,-0.411644,-0.190659,0.236852,-22.24667,-83.998089,26.687546
256219,-0.359103,-0.245697,0.24845,-24.234584,-84.072167,28.479894
256319,-0.244532,-0.270855,0.228164,-26.162606,-84.157849,30.277764
256419,-0.10735,-0.2846,0.197498,-27.947742,-84.252529,32.010726
256519,0.002474,-0.24301,0.149952,-29.36896,-84.334427,33.440926
256619,0.061098,-0.214294,0.096834,-30.443589,-84.414121,34.55641
256719,0.063919,-0.212779,0.054667,-31.32886,-84.503596,35.483108
256819,0.028558,-0.218899,0.033549,-32.175373,-84.601064,36.350371
256919,-0.024655,-0.217542,0.023473,-33.026637,-84.699764,37.19164
257019,-0.072038,-0.195602,0.021181,-33.847768,-84.787546,37.975255
257119,-0.104033,-0.166672,0.031741,-34.664693,-84.85719,38.736141
257219,-0.115724,-0.140402,0.056509,-35.541166,-84.905339,39.550015
257319,-0.106554,-0.128312,0.078024,-36.493739,-84.939473,40.44551
257419,-0.072726,-0.13192,0.086028,-37.494746,-84.971145,41.409038
257519,-0.037029,-0.140747,0.085484,-38.520531,-85.005487,42.417921
257619,-0.005084,-0.145922,0.080919,-39.540114,-85.042188,43.438897
257719,0.013045,-0.165483,0.078238,-40.635274,-85.086796,44.546095
257819,0.024193,-0.186602,0.080247,-41.848453,-85.137797,45.778075
257919,0.032776,-0.201453,0.083479,-43.167031,-85.191467,47.120673
258019,0.04419,-0.208991,0.094808,-44.600035,-85.240994,48.584558
258119,0.043684,-0.213741,0.102932,-46.125398,-85.285932,50.14073
258219,0.0319,-0.219032,0.11615,-47.775258,-85.323814,51.81495
258319,0.011949,-0.210225,0.123698,-49.449055,-85.351114,53.501639
258419,0.003446,-0.2033,0.123518,-51.106373,-85.371955,55.166848
258519,-0.006442,-0.18529,0.12201,-52.673876,-85.383307,56.736227
258619,-0.014732,-0.144043,0.116027,-53.989645,-85.380104,58.048277
258719,-0.004957,-0.075262,0.113995,-54.889758,-85.352871,58.948956
258819,0.02258,-0.007124,0.118796,-55.388962,-85.300159,59.463274
258919,0.05731,0.029624,0.127173,-55.679976,-85.231263,59.788705
259019,0.083572,0.025642,0.132427,-55.989125,-85.160997,60.147471
259119,0.078917,0.004262,0.137442,-56.428298,-85.094941,60.634094
259219,0.064315,0.001818,0.142218,-56.893648,-85.027027,61.138646
259319,0.050333,0.017688,0.151805,-57.300204,-84.949225,61.576196
259419,0.028125,0.046514,0.16362,-57.591083,-84.8566,61.884891
259519,-0.005447,0.071382,0.179032,-57.809662,-84.748793,62.101721
259619,-0.051232,0.075342,0.189143,-58.05709,-84.63482,62.321212
259719,-0.089955,0.07442,0.192631,-58.331745,-84.51937,62.545806
259819,-0.10674,0.10944,0.182268,-58.398543,-84.398417,62.551945
259919,-0.083276,0.210023,0.155984,-57.882328,-84.259849,61.985719
260019,0.004423,0.370121,0.126943,-56.508493,-84.08463,60.607782
260119,0.108535,0.561281,0.114823,-54.283188,-83.848529,58.433124
260219,0.167228,0.768993,0.119853,-51.375424,-83.528092,55.604566
260319,0.181963,0.934344,0.147818,-48.232479,-83.118188,52.5457
260419,0.149116,0.9586,0.175088,-45.471742,-82.669616,49.85027
260519,0.068001,0.87727,0.20694,-43.406966,-82.228006,47.807301
260619,-0.058522,0.728031,0.239443,-42.128987,-81.829046,46.483536
260719,-0.161394,0.457001,0.216109,-41.648947,-81.552047,45.90546
260819,-0.200669,0.159564,0.134919,-41.737741,-81.433154,45.879469
260919,-0.16622,-0.089308,0.034451,-42.153204,-81.458975,46.203752
261019,-0.097365,-0.262203,-0.03426,-42.788156,-81.584122,46.789752
261119,-0.017952,-0.353699,-0.067347,-43.54967,-81.759475,47.549409
261219,0.071815,-0.394137,-0.099225,-44.3147,-81.962717,48.364203
261319,0.186926,-0.355393,-0.122781,-44.870939,-82.158246,49.03438
261419,0.281418,-0.194458,-0.116674,-44.93699,-82.285422,49.264207
261519,0.328812,0.006624,-0.094678,-44.442258,-82.32188,48.955518
261619,0.346057,0.131469,-0.078351,-43.616563,-82.299883,48.322842
261719,0.363257,0.142617,-0.06833,-42.784935,-82.268062,47.694086
261819,0.382499,0.087721,-0.068924,-42.102015,-82.258584,47.226496
261919,0.397235,0.058054,-0.068462,-41.496721,-82.260935,46.845757
262019,0.391939,0.072993,-0.080096,-40.815843,-82.260725,46.385668
262119,0.341969,0.106476,-0.102782,-39.999391,-82.253624,45.759847
262219,0.225984,0.098028,-0.137048,-39.161249,-82.261668,45.045057
262319,0.079783,0.05559,-0.175531,-38.389046,-82.301233,44.312304
262419,-0.046579,0.006178,-0.206251,-37.706507,-82.372759,43.59706
262519,-0.126873,-0.014683,-0.225376,-37.044967,-82.459344,42.856719
262619,-0.160358,-0.018997,-0.229528,-36.382816,-82.548198,42.096564
262719,-0.160318,-0.024744,-0.239878,-35.680973,-82.641991,41.296571
262819,-0.13952,-0.0188,-0.242961,-34.921252,-82.73266,40.450414
262919,-0.127082,0.01407,-0.22733,-34.109551,-82.801199,39.559201
263019,-0.134587,0.05236,-0.198745,-33.299584,-82.840755,38.665518
263119,-0.157495,0.04927,-0.169057,-32.616217,-82.871048,37.886273
263219,-0.178488,0.014645,-0.132716,-32.16536,-82.905951,37.32928
263319,-0.182821,-0.028601,-0.097463,-31.956461,-82.950713,37.013648
263419,-0.181785,-0.073176,-0.068565,-31.967953,-83.008296,36.920709
263519,-0.1792,-0.102142,-0.05607,-32.09954,-83.076157,36.950263
263619,-0.17853,-0.128849,-0.054741,-32.305538,-83.156541,37.055149
263719,-0.194279,-0.154351,-0.064786,-32.549483,-83.252285,37.189147
263819,-0.23065,-0.179907,-0.065172,-32.886248,-83.36037,37.395593
263919,-0.26161,-0.20479,-0.060181,-33.33902,-83.478636,37.700914
264019,-0.289673,-0.22311,-0.063113,-33.861453,-83.606233,38.060089
264119,-0.285157,-0.212456,-0.051454,-34.41801,-83.724582,38.456122
264219,-0.270414,-0.205528,-0.037324,-35.024765,-83.834543,38.91107
264319,-0.223759,-0.193789,-0.032496,-35.608202,-83.936818,39.36937
264419,-0.158476,-0.176232,-0.03259,-36.114697,-84.030418,39.78784
264519,-0.087599,-0.141984,-0.02938,-36.49608,-84.106684,40.1213
264619,-0.031359,-0.103466,-0.032239,-36.712072,-84.165946,40.320862
264719,0.010062,-0.065112,-0.041411,-36.736874,-84.210614,40.352093
264819,0.047395,-0.043738,-0.046997,-36.642441,-84.2473,40.284989
264919,0.06996,-0.028584,-0.046398,-36.485158,-84.276716,40.167726
265019,0.093108,0.006321,-0.045636,-36.198218,-84.289647,39.933501
265119,0.116785,0.031185,-0.050741,-35.789303,-84.292563,39.590338
265219,0.158554,0.030796,-0.061062,-35.309292,-84.298777,39.199787
265319,0.20736,-0.005559,-0.065447,-34.899684,-84.323122,38.908107
265419,0.253665,-0.034921,-0.072239,-34.525022,-84.363259,38.678231
265519,0.311854,-0.027259,-0.076344,-34.06803,-84.400869,38.399153
265619,0.363006,0.018694,-0.08128,-33.403608,-84.417814,37.941125
265719,0.389724,0.070185,-0.084101,-32.54329,-84.410204,37.301661
265819,0.394853,0.104101,-0.095198,-31.522677,-84.388352,36.504083
265919,0.392037,0.147144,-0.120065,-30.259196,-84.350963,35.460809
266019,0.370358,0.267281,-0.141925,-28.580552,-84.257004,33.987721
266119,0.345082,0.481171,-0.157392,-26.355577,-84.05333,31.950509
266219,0.317518,0.725864,-0.186271,-23.625494,-83.720669,29.388425
266319,0.272153,0.937236,-0.211823,-20.702403,-83.26826,26.603984
266419,0.186226,1.064231,-0.208494,-18.026284,-82.73176,24.015913
266519,0.109764,1.02121,-0.201145,-15.836224,-82.204883,21.87085
266619,0.063073,0.837935,-0.165022,-14.262544,-81.765337,20.31873
266719,0.048704,0.507148,-0.164807,-13.13969,-81.505204,19.212569
266819,-0.016451,0.063798,-0.135802,-12.58512,-81.486997,18.642843
266919,-0.067053,-0.379525,-0.081751,-12.633602,-81.709815,18.653537
267019,-0.053256,-0.645498,-0.066516,-12.976831,-82.07953,18.969913
267119,0.050085,-0.740485,-0.093099,-13.273791,-82.505625,19.29903
267219,0.170877,-0.713727,-0.140041,-13.296917,-82.92295,19.42153
267319,0.196079,-0.54505,-0.152704,-13.065105,-83.247884,19.301664
267419,0.144912,-0.298605,-0.132384,-12.670025,-83.432474,18.987966
267519,0.083757,-0.070468,-0.102189,-12.193635,-83.485395,18.55723
267619,0.046837,0.075599,-0.065487,-11.762017,-83.451702,18.150276
267719,-0.009259,0.162839,-0.009124,-11.554453,-83.362307,17.936461
267819,-0.101484,0.179466,0.071466,-11.772297,-83.254307,18.097726
267919,-0.239673,0.108911,0.154027,-12.520227,-83.175798,18.713109
268019,-0.368079,-0.021735,0.213576,-13.746086,-83.161277,19.735797
268119,-0.4314,-0.147824,0.244721,-15.304127,-83.209329,21.056451
268219,-0.413759,-0.208092,0.253879,-16.999067,-83.284666,22.524966
268319,-0.344782,-0.227513,0.234376,-18.628344,-83.368995,23.966914
268419,-0.240299,-0.238209,0.203563,-20.109524,-83.460386,25.319785
268519,-0.116281,-0.283965,0.172026,-21.494333,-83.578782,26.646893
268619,-0.06357,-0.322935,0.151817,-22.880377,-83.718551,28.005292
268719,-0.028623,-0.314284,0.141693,-24.239196,-83.852434,29.356087
268819,-0.026545,-0.287843,0.138406,-25.577433,-83.969877,30.687058
268919,-0.049832,-0.251166,0.146157,-26.927041,-84.063153,32.015782
269019,-0.092774,-0.218192,0.152512,-28.286636,-84.13469,33.329609
269119,-0.133123,-0.17768,0.157788,-29.614168,-84.181254,34.587824
269219,-0.154177,-0.149813,0.161035,-30.908412,-84.210137,35.800368
269319,-0.153816,-0.148002,0.166625,-32.235639,-84.233636,37.046213
269419,-0.130406,-0.169689,0.172496,-33.655538,-84.262713,38.398621
269519,-0.095714,-0.205227,0.180086,-35.221773,-84.302571,39.917991
269619,-0.057871,-0.248327,0.188307,-36.974646,-84.355192,41.646583
269719,-0.026437,-0.286656,0.193649,-38.905513,-84.417718,43.571952
269819,0.011688,-0.314067,0.19241,-40.956571,-84.486147,45.639809
269919,0.044621,-0.326933,0.185054,-43.057792,-84.555571,47.776773
270019,0.068253,-0.323784,0.17277,-45.130308,-84.62111,49.898263
270119,0.065684,-0.315129,0.153599,-47.133163,-84.683969,51.948082
270219,0.059105,-0.300288,0.132447,-49.028793,-84.743624,53.886227
270319,0.053578,-0.291978,0.116948,-50.86636,-84.801162,55.762701
270419,0.056571,-0.289777,0.102312,-52.673218,-84.859036,57.609889
270519,0.060979,-0.263642,0.095179,-54.352788,-84.906185,59.331664
270619,0.059051,-0.205682,0.099272,-55.766983,-84.928199,60.785817
270719,0.052877,-0.121516,0.109773,-56.77646,-84.915675,61.830099
270819,0.049293,-0.051823,0.11753,-57.431529,-84.87637,62.516545
270919,0.040611,-0.014718,0.119087,-57.886657,-84.824333,62.997298
271019,0.031387,-0.003264,0.125581,-58.297508,-84.765332,63.428329
271119,0.01842,0.018375,0.136548,-58.626853,-84.69423,63.770094
271219,-0.010904,0.055703,0.147734,-58.804413,-84.606407,63.942579
271319,-0.074703,0.082609,0.157301,-58.904163,-84.505899,64.000207
271419,-0.161514,0.081526,0.158248,-59.058169,-84.405276,64.062376
271519,-0.24245,0.068403,0.145051,-59.279644,-84.315041,64.145745
271619,-0.304131,0.069072,0.114932,-59.440286,-84.239495,64.132462
271719,-0.31877,0.133951,0.073013,-59.173362,-84.165666,63.68098
271819,-0.266814,0.269729,0.030615,-58.122243,-84.071578,62.471017
271919,-0.152153,0.457756,0.007592,-56.123372,-83.926744,60.373896
272019,-0.013886,0.664878,0.010681,-53.280601,-83.702612,57.506932
272119,0.112646,0.84358,0.041781,-49.983682,-83.384553,54.25442
272219,0.173254,0.964468,0.087147,-46.694477,-82.980425,51.0423
272319,0.151882,1.018752,0.123966,-43.73158,-82.5192,48.143795
272419,0.09046,0.956083,0.16825,-41.456004,-82.05111,45.900278
272519,0.024882,0.802581,0.206104,-39.965646,-81.626074,44.409593
272619,-0.048148,0.510535,0.212364,-39.365307,-81.323981,43.775138
272719,-0.107479,0.091876,0.165271,-39.678851,-81.224069,44.030504
272819,-0.096652,-0.323419,0.101393,-40.798927,-81.329147,45.108085
272919,-0.030845,-0.592921,0.041889,-42.433078,-81.568496,46.743127
273019,0.03168,-0.722006,0.004223,-44.377761,-81.868791,48.727013
273119,0.08223,-0.743018,-0.021321,-46.431687,-82.177835,50.84894
273219,0.153531,-0.621108,-0.033456,-48.18355,-82.434622,52.705846
273319,0.24268,-0.399691,-0.02072,-49.295978,-82.595876,53.96845
273419,0.331137,-0.184644,-0.017161,-49.680495,-82.673312,54.547857
273519,0.383498,-0.047322,-0.021591,-49.561136,-82.701502,54.649438
273619,0.409732,0.009417,-0.032767,-49.200973,-82.713431,54.523401
273719,0.440587,0.036083,-0.046921,-48.690542,-82.721339,54.263697
273819,0.447705,0.052724,-0.070686,-48.048332,-82.732819,53.875251
273919,0.40813,0.033662,-0.104809,-47.38661,-82.765656,53.444283
274019,0.297492,0.000724,-0.137395,-46.791243,-82.824541,53.016328
274119,0.133398,-0.040524,-0.175564,-46.297481,-82.915168,52.59607
274219,-0.031,-0.091922,-0.209099,-45.949842,-83.039784,52.228217
274319,-0.165479,-0.120183,-0.221378,-45.72208,-83.180588,51.903593
274419,-0.253018,-0.128969,-0.228613,-45.538728,-83.327787,51.573276
274519,-0.302158,-0.129833,-0.236461,-45.347208,-83.478418,51.206495
274619,-0.322489,-0.113312,-0.244664,-45.064164,-83.625509,50.736
274719,-0.328513,-0.068139,-0.247366,-44.590197,-83.754922,50.070084
274819,-0.330152,-0.019492,-0.239996,-43.94135,-83.860637,49.22748
274919,-0.317739,0.017908,-0.225036,-43.180352,-83.943729,48.279401
275019,-0.306289,0.040086,-0.202715,-42.398265,-84.007401,47.316853
275119,-0.309232,0.04376,-0.171494,-41.71507,-84.056196,46.452148
275219,-0.318969,0.041115,-0.126654,-41.222204,-84.088154,45.773257
275319,-0.331401,0.042843,-0.081528,-40.914084,-84.101858,45.272971
275419,-0.333416,0.022082,-0.049877,-40.813999,-84.112485,44.980682
275519,-0.334183,-0.022617,-0.029811,-40.960948,-84.134941,44.936302
275619,-0.327648,-0.065033,-0.015752,-41.320283,-84.170389,45.109189
275719,-0.326745,-0.091302,-0.023591,-41.747776,-84.219924,45.351097
275819,-0.307048,-0.086736,-0.015775,-42.185296,-84.264281,45.614414
275919,-0.280991,-0.066243,-0.005086,-42.578992,-84.295574,45.848686
276019,-0.270708,-0.033226,0.003496,-42.877194,-84.309408,45.992912
276119,-0.262081,-0.007544,0.003973,-43.07266,-84.312135,46.038874
276219,-0.221846,-0.017034,0.004832,-43.286297,-84.318374,46.126278
276319,-0.174624,-0.039588,0.004012,-43.559372,-84.334185,46.300616
276419,-0.135333,-0.038681,-0.002066,-43.782094,-84.351859,46.446986
276519,-0.09917,-0.00974,-0.007458,-43.846051,-84.359589,46.454646
276619,-0.070098,0.018162,-0.016317,-43.744038,-84.359223,46.312277
276719,-0.042725,0.033695,-0.024992,-43.527583,-84.355746,46.070677
276819,-0.018693,0.027037,-0.035046,-43.281428,-84.358843,45.813076
276919,0.014978,0.00526,-0.045995,-43.055388,-84.375169,45.595086
277019,0.049912,-0.019383,-0.054787,-42.868168,-84.405125,45.436232
277119,0.088548,-0.030871,-0.068117,-42.645105,-84.444993,45.263623
277219,0.137733,-0.043638,-0.076678,-42.404771,-84.493453,45.101997
277319,0.185561,-0.056183,-0.084122,-42.151177,-84.549979,44.954603
277419,0.234748,-0.062349,-0.093026,-41.85025,-84.612409,44.787998
277519,0.270834,-0.042223,-0.107054,-41.376748,-84.671361,44.468857
277619,0.282543,0.024871,-0.117262,-40.567893,-84.704672,43.819693
277719,0.269927,0.094035,-0.120807,-39.465674,-84.707791,42.868688
277819,0.248149,0.164404,-0.126152,-38.07902,-84.679321,41.619488
277919,0.20679,0.273136,-0.130551,-36.313229,-84.599418,39.965587
278019,0.164687,0.437456,-0.13627,-34.043445,-84.438924,37.780822
278119,0.12532,0.610713,-0.143151,-31.373457,-84.188105,35.170442
278219,0.056165,0.772771,-0.151229,-28.509413,-83.846943,32.323719
278319,-0.01239,0.877025,-0.15792,-25.730819,-83.440276,29.521428
278419,-0.07441,0.865456,-0.167491,-23.297417,-83.028445,27.028637
278519,-0.142194,0.725271,-0.191548,-21.305625,-82.685393,24.939736
278619,-0.170914,0.475166,-0.222011,-19.752025,-82.475076,23.274818
278719,-0.149334,0.14195,-0.187555,-18.866204,-82.434136,22.295484
278819,-0.063524,-0.179089,-0.154265,-18.514438,-82.560142,21.904492
278919,0.072802,-0.394306,-0.148451,-18.399456,-82.802021,21.831132
279019,0.228078,-0.479778,-0.177355,-18.183895,-83.095695,21.746101
279119,0.292715,-0.434401,-0.193969,-17.769569,-83.367588,21.498248
279219,0.223685,-0.249247,-0.145779,-17.318845,-83.529804,21.174049
279319,0.090859,-0.048856,-0.05579,-17.065522,-83.566882,20.971979
279419,-0.038755,0.052671,0.014227,-17.073755,-83.536578,20.958392
279519,-0.120836,0.074434,0.044415,-17.241665,-83.489339,21.05817
279619,-0.178324,0.092322,0.068715,-17.529363,-83.428199,21.245373
279719,-0.246416,0.090502,0.108478,-18.041006,-83.361032,21.618762
279819,-0.328588,0.060448,0.165047,-18.899302,-83.299499,22.293809
279919,-0.379977,0.003701,0.209255,-20.067775,-83.25885,23.251602
280019,-0.344962,-0.058132,0.224238,-21.379061,-83.245917,24.373455
280119,-0.224959,-0.110953,0.207425,-22.639871,-83.261718,25.513713
280219,-0.075163,-0.149643,0.16986,-23.72872,-83.303628,26.567173
280319,0.041443,-0.191799,0.131697,-24.680117,-83.374329,27.549391
280419,0.108931,-0.206462,0.09587,-25.483531,-83.459577,28.421412
280519,0.115121,-0.225453,0.066415,-26.213866,-83.560619,29.223287
280619,0.090909,-0.244267,0.055849,-26.977518,-83.672816,30.044557
280719,0.047136,-0.235131,0.07491,-27.860425,-83.774006,30.960396
280819,0.004067,-0.203624,0.096935,-28.818934,-83.851688,31.927299
280919,-0.048442,-0.160674,0.12082,-29.828113,-83.899398,32.914786
281019,-0.076702,-0.125593,0.138672,-30.854341,-83.922697,33.903068
281119,-0.079447,-0.109478,0.148972,-31.890726,-83.933125,34.899954
281219,-0.052743,-0.099597,0.152433,-32.90168,-83.9358,35.886641
281319,0.005885,-0.084072,0.144605,-33.798,-83.931755,36.791831
281419,0.062634,-0.082076,0.137887,-34.624632,-83.927479,37.659645
281519,0.10379,-0.100352,0.136744,-35.478543,-83.930798,38.578606
281619,0.133448,-0.142613,0.137361,-36.454408,-83.951947,39.637274
281719,0.164609,-0.192694,0.13618,-37.579857,-83.994349,40.864247
281819,0.18797,-0.238167,0.122583,-38.806122,-84.059378,42.205922
281919,0.206141,-0.269324,0.102327,-40.074668,-84.142497,43.600388
282019,0.211155,-0.261181,0.088118,-41.286263,-84.224244,44.940288
282119,0.221211,-0.223906,0.08743,-42.379721,-84.287567,46.167074
282219,0.219624,-0.185062,0.095366,-43.377361,-84.329206,47.29654
282319,0.198388,-0.14383,0.111392,-44.300705,-84.345526,48.339062
282419,0.167539,-0.099397,0.122163,-45.107556,-84.337814,49.246754
282519,0.148199,-0.031788,0.132477,-45.684409,-84.29756,49.912222
282619,0.144417,0.029258,0.143735,-46.047973,-84.227729,50.361217
282719,0.146001,0.059921,0.153344,-46.313325,-84.141473,50.712473
282819,0.150207,0.050315,0.160201,-46.631259,-84.055942,51.119072
282919,0.150698,0.037096,0.166777,-47.014987,-83.972568,51.592175
283019,0.148978,0.034462,0.177063,-47.435103,-83.885535,52.100955
283119,0.14004,0.032519,0.186457,-47.887531,-83.79487,52.637167
283219,0.119189,0.024325,0.194578,-48.396868,-83.703408,53.218699
283319,0.081332,-0.000495,0.199018,-49.022414,-83.618827,53.895424
283419,0.016735,-0.026517,0.191583,-49.743157,-83.546353,54.630798
283519,-0.051144,0.000765,0.173767,-50.32338,-83.470766,55.185706
283619,-0.076714,0.095471,0.156288,-50.487513,-83.367908,55.307115
283719,-0.058437,0.26562,0.128919,-49.918494,-83.214719,54.7009
283819,0.037747,0.470794,0.106378,-48.525525,-82.993246,53.320028
283919,0.150043,0.68811,0.11626,-46.472694,-82.678435,51.338187
284019,0.224172,0.866594,0.160095,-44.149163,-82.264481,49.124548
284119,0.247277,0.918646,0.215409,-42.070579,-81.796207,47.169311
284219,0.223481,0.831198,0.232017,-40.486225,-81.350934,45.697667
284319,0.178041,0.670617,0.249249,-39.491807,-80.965185,44.795067
284419,0.130033,0.493479,0.252935,-38.998157,-80.655087,44.370989
284519,0.075386,0.282837,0.192303,-38.851901,-80.460519,44.266999
284619,0.060665,0.064202,0.090179,-38.913313,-80.400361,44.364987
284719,0.08744,-0.138535,-0.006258,-39.13844,-80.465356,44.64453
284819,0.137826,-0.285921,-0.067715,-39.498202,-80.617885,45.089717
284919,0.172183,-0.381054,-0.098689,-39.984228,-80.823222,45.68254
285019,0.202887,-0.456599,-0.122627,-40.59045,-81.069578,46.414501
285119,0.23569,-0.417877,-0.115352,-41.140958,-81.29524,47.108625
285219,0.275821,-0.278765,-0.089274,-41.422742,-81.450332,47.553857
285319,0.338196,-0.13745,-0.069841,-41.375929,-81.537152,47.702835
285419,0.389332,-0.075558,-0.047725,-41.207244,-81.588984,47.758204
285519,0.410365,-0.091098,-0.032312,-41.111716,-81.641723,47.899692
285619,0.408018,-0.117739,-0.014664,-41.139421,-81.699336,48.164345
285719,0.362906,-0.110558,0.002453,-41.227461,-81.74739,48.463806
285819,0.29288,-0.079678,0.007159,-41.290951,-81.78037,48.69788
285919,0.185262,-0.041407,-0.000674,-41.293128,-81.79991,48.807677
286019,0.050219,-0.010173,-0.027845,-41.209213,-81.816379,48.752302
286119,-0.083646,0.003172,-0.071354,-41.035302,-81.843567,48.528509
286219,-0.193066,-0.005627,-0.112119,-40.821577,-81.889843,48.201178
286319,-0.270881,-0.028915,-0.15286,-40.584883,-81.961331,47.805657
286419,-0.311772,-0.051722,-0.186035,-40.322262,-82.054882,47.360374
286519,-0.302019,-0.071248,-0.210069,-40.020794,-82.165558,46.88163
286619,-0.27537,-0.082537,-0.230617,-39.65607,-82.288336,46.354591
286719,-0.256406,-0.067584,-0.241038,-39.190609,-82.407731,45.737034
286819,-0.249371,-0.020194,-0.232367,-38.604603,-82.502064,45.00211
286919,-0.244248,0.030113,-0.209098,-37.943891,-82.564405,44.194943
287019,-0.248854,0.079702,-0.174662,-37.262493,-82.59092,43.364346
287119,-0.265463,0.097152,-0.139235,-36.665258,-82.596011,42.609061
287219,-0.291789,0.06738,-0.117122,-36.238633,-82.60641,42.010626
287319,-0.324805,-0.013165,-0.102672,-36.090613,-82.648785,41.674082
287419,-0.368634,-0.072867,-0.091561,-36.162043,-82.714988,41.533517
287519,-0.395312,-0.11677,-0.084471,-36.391539,-82.799088,41.536911
287619,-0.417492,-0.118949,-0.079852,-36.659493,-82.882576,41.56626
287719,-0.425077,-0.095533,-0.074967,-36.88836,-82.953565,41.551848
287819,-0.405034,-0.071356,-0.065908,-37.073641,-83.010292,41.505105
287919,-0.368502,-0.066283,-0.050286,-37.283202,-83.059221,41.503929
288019,-0.322124,-0.065608,-0.035942,-37.519603,-83.102743,41.556574
288119,-0.274866,-0.051841,-0.02694,-37.724574,-83.136724,41.604847
288219,-0.216882,-0.029122,-0.019473,-37.859141,-83.157658,41.615687
288319,-0.152008,-0.002642,-0.013927,-37.900121,-83.164546,41.569722
288419,-0.09032,0.037868,-0.017825,-37.772366,-83.154365,41.389425
288519,-0.044861,0.088612,-0.030737,-37.423204,-83.125481,41.012365
288619,-0.024982,0.140008,-0.044047,-36.869315,-83.077297,40.440538
288719,-0.02149,0.170422,-0.052326,-36.205637,-83.017137,39.760067
288819,-0.022024,0.182951,-0.062926,-35.479932,-82.953642,39.016714
288919,-0.016325,0.172017,-0.070513,-34.764106,-82.896557,38.28652
289019,-0.000139,0.139967,-0.07398,-34.119563,-82.854603,37.63744
289119,0.044815,0.07999,-0.08204,-33.577379,-82.842878,37.117449
289219,0.123334,0.012531,-0.089728,-33.131199,-82.865266,36.739567
289319,0.216491,-0.031254,-0.104211,-32.682359,-82.912821,36.41283
289419,0.313528,-0.016549,-0.113155,-32.101723,-82.955596,36.009353
289519,0.391009,0.023848,-0.112666,-31.37463,-82.977895,35.503079
289619,0.409383,0.09406,-0.108923,-30.481481,-82.963578,34.840119
289719,0.379524,0.155333,-0.117811,-29.432601,-82.919835,34.002979
289819,0.323996,0.218789,-0.115615,-28.297075,-82.841476,33.046365
289919,0.287153,0.352536,-0.106041,-26.968605,-82.689953,31.873753
290019,0.30091,0.559427,-0.113382,-25.266181,-82.429849,30.331424
290119,0.359799,0.753103,-0.156654,-23.154562,-82.072133,28.409075
290219,0.373556,0.89018,-0.166666,-20.980063,-81.634387,26.429291
290319,0.326348,0.937465,-0.210888,-18.828626,-81.16965,24.44316
290419,0.219568,0.852891,-0.206846,-17.045953,-80.740622,22.766049
290519,0.167172,0.565541,-0.230903,-15.629719,-80.466574,21.428224
290619,0.082699,0.161536,-0.234642,-14.666408,-80.412377,20.499951
290719,0.017603,-0.262837,-0.193885,-14.236644,-80.586239,20.074968
290819,-0.014542,-0.567275,-0.156606,-14.199586,-80.923896,20.029495
290919,-0.000943,-0.707262,-0.14798,-14.311118,-81.338264,20.142329
291019,0.045916,-0.719005,-0.161757,-14.364517,-81.761201,20.223396
291119,0.077795,-0.615222,-0.168182,-14.272794,-82.127488,20.176254
291219,0.054057,-0.400904,-0.138293,-14.086708,-82.370516,20.020182
291319,0.003299,-0.12132,-0.082818,-13.860779,-82.450339,19.794636
291419,-0.052902,0.068088,-0.033091,-13.678051,-82.417894,19.580194
291519,-0.128496,0.167727,0.013208,-13.632851,-82.32371,19.460776
291619,-0.228758,0.187703,0.077643,-13.889728,-82.209734,19.588202
291719,-0.355803,0.139495,0.14786,-14.544079,-82.11261,20.0434
291819,-0.415033,0.013346,0.214732,-15.620288,-82.074471,20.890315
291919,-0.43815,-0.115121,0.236328,-16.937734,-82.101176,21.967419
292019,-0.3822,-0.189126,0.217718,-18.253424,-82.168178,23.074986
292119,-0.26019,-0.244883,0.17541,-19.429593,-82.269984,24.112063
292219,-0.116806,-0.273978,0.134237,-20.430651,-82.392842,25.055064
292319,-0.01242,-0.274594,0.11127,-21.310638,-82.518638,25.935993
292419,0.043084,-0.272714,0.097563,-22.128635,-82.644598,26.786222
292519,0.043938,-0.267278,0.094259,-22.951143,-82.76681,27.641252
292619,0.004127,-0.267812,0.095513,-23.830892,-82.887378,28.530749
292719,-0.044812,-0.25792,0.105074,-24.789669,-82.998711,29.471394
292819,-0.090622,-0.237389,0.111817,-25.791152,-83.095744,30.428406
292919,-0.120771,-0.208196,0.121234,-26.814404,-83.173305,31.389767
293019,-0.11808,-0.184107,0.137782,-27.874731,-83.232126,32.389881
293119,-0.093016,-0.154597,0.153589,-28.936158,-83.26955,33.405463
293219,-0.059151,-0.155687,0.168317,-30.054265,-83.301074,34.497581
293319,-0.024827,-0.188335,0.169962,-31.252594,-83.345612,35.690184
293419,-0.00486,-0.248493,0.173152,-32.628631,-83.415293,37.073065
293519,0.015826,-0.301352,0.180955,-34.202726,-83.503655,38.66701
293619,0.051028,-0.333829,0.176283,-35.876469,-83.603605,40.381233
293719,0.092294,-0.344062,0.160136,-37.544221,-83.708126,42.112872
293819,0.137129,-0.342334,0.135473,-39.134711,-83.815141,43.792276
293919,0.170781,-0.320399,0.117931,-40.61293,-83.914003,45.377827
294019,0.191608,-0.290125,0.111768,-41.992183,-83.997875,46.875588
294119,0.178722,-0.286338,0.110576,-43.398806,-84.07673,48.393222
294219,0.146123,-0.300265,0.116184,-44.939161,-84.154965,50.026303
294319,0.123438,-0.29334,0.121003,-46.523691,-84.223829,51.690508
294419,0.107631,-0.23155,0.129757,-47.924786,-84.260522,53.161091
294519,0.108147,-0.128631,0.134557,-48.91511,-84.252908,54.219091
294619,0.116637,-0.023169,0.140106,-49.46135,-84.201956,54.835689
294719,0.117526,0.037364,0.141434,-49.742511,-84.127489,55.186409
294819,0.108937,0.057484,0.141962,-49.937251,-84.045197,55.445349
294919,0.092623,0.050917,0.147629,-50.181644,-83.962713,55.744857
295019,0.078578,0.054146,0.158145,-50.448741,-83.874253,56.059155
295119,0.053913,0.076125,0.17991,-50.704197,-83.767984,56.347593
295219,0.022574,0.104863,0.207351,-50.941985,-83.638972,56.60026
295319,-0.032796,0.13279,0.231433,-51.167412,-83.489049,56.808633
295419,-0.092535,0.156539,0.248307,-51.376908,-83.322978,56.96658
295519,-0.141924,0.195664,0.257279,-51.485073,-83.138851,56.99405
295619,-0.148688,0.288516,0.248494,-51.231261,-82.925406,56.652967
295719,-0.100655,0.441809,0.230549,-50.386238,-82.663972,55.743551
295819,-0.010325,0.623966,0.220701,-48.932107,-82.336931,54.271399
295919,0.115193,0.788332,0.231145,-47.06509,-81.936868,52.453818
296019,0.250581,0.922402,0.245864,-44.972753,-81.468941,50.485002
296119,0.317708,0.994235,0.262527,-42.923336,-80.954774,48.596013
296219,0.280305,0.9212,0.277148,-41.310639,-80.457191,47.125165
296319,0.179863,0.652796,0.298326,-40.525948,-80.063236,46.43408
296419,0.060139,0.265311,0.294265,-40.650832,-79.838996,46.596371
296519,0.017219,-0.105665,0.250517,-41.461274,-79.791534,47.430228
296619,0.058251,-0.399188,0.164214,-42.671192,-79.89968,48.693674
296719,0.10539,-0.563086,0.084552,-44.065871,-80.102493,50.171512
296819,0.098847,-0.581329,0.044447,-45.473514,-80.322642,51.65773
296919,0.09271,-0.564873,0.012506,-46.835341,-80.543296,53.092935
297019,0.131953,-0.440472,-0.002372,-47.880642,-80.71683,54.229303
297119,0.188808,-0.234313,0.027535,-48.453929,-80.796105,54.92005
297219,0.254362,-0.03212,0.019737,-48.442052,-80.801294,55.055976
297319,0.295436,0.118773,-0.011314,-47.936295,-80.762187,54.71541
297419,0.350744,0.181265,-0.047985,-47.154369,-80.713814,54.12709
297519,0.417322,0.198801,-0.079311,-46.222078,-80.670253,53.424968
297619,0.432278,0.206468,-0.107331,-45.201701,-80.633283,52.642162
297719,0.385839,0.194969,-0.131373,-44.183351,-80.60855,51.834352
297819,0.263458,0.152793,-0.144741,-43.30639,-80.60453,51.098727
297919,0.101358,0.082051,-0.161198,-42.646943,-80.635104,50.489442
298019,-0.040827,0.019306,-0.176543,-42.171863,-80.697259,49.984507
298119,-0.162619,-0.017993,-0.18749,-41.818716,-80.778946,49.532512
298219,-0.237575,-0.028196,-0.19006,-41.518465,-80.865566,49.090708
298319,-0.262154,-0.009944,-0.194443,-41.169979,-80.945558,48.585906
298419,-0.26765,0.029611,-0.196101,-40.718917,-81.008437,47.974168
298519,-0.265548,0.072141,-0.189264,-40.178397,-81.049332,47.273186
298619,-0.270329,0.094057,-0.180061,-39.610064,-81.076095,46.541354
298719,-0.276951,0.081273,-0.158811,-39.131717,-81.099722,45.896826
298819,-0.292526,0.050789,-0.139864,-38.7836,-81.129364,45.37513
298919,-0.331498,0.034714,-0.124315,-38.536574,-81.160211,44.933192
299019,-0.346575,0.034677,-0.107455,-38.344733,-81.1848,44.538395
299119,-0.381788,0.020077,-0.086238,-38.266523,-81.208269,44.238196
299219,-0.404727,0.017905,-0.073903,-38.241324,-81.228293,43.978358
299319,-0.413924,-0.025307,-0.078518,-38.306562,-81.269395,43.804714
299419,-0.405987,-0.07138,-0.087246,-38.448125,-81.334317,43.712915
299519,-0.409688,-0.096876,-0.09297,-38.63537,-81.4127,43.665201
299619,-0.40777,-0.108791,-0.092195,-38.853719,-81.49609,43.650072
299719,-0.379247,-0.126111,-0.083974,-39.124688,-81.584151,43.704682
299819,-0.333953,-0.139802,-0.068873,-39.452866,-81.672649,43.843354
299919,-0.298968,-0.177306,-0.061116,-39.884696,-81.774587,44.107012
300019,-0.265125,-0.216229,-0.059896,-40.410721,-81.892657,44.485369
300119,-0.233908,-0.21683,-0.070731,-40.900138,-82.014411,44.844728
300219,-0.18572,-0.184932,-0.082254,-41.251541,-82.126221,45.092536
300319,-0.143464,-0.151059,-0.095418,-41.451236,-82.228166,45.211603
300419,-0.094542,-0.12169,-0.10398,-41.516601,-82.320616,45.223387
300519,-0.060674,-0.112418,-0.113022,-41.507582,-82.412436,45.179711
300619,-0.017258,-0.09962,-0.116995,-41.422857,-82.500177,45.084782
300719,0.022545,-0.074895,-0.129791,-41.198799,-82.582002,44.872365
300819,0.052919,-0.066286,-0.146805,-40.87003,-82.666295,44.571963
300919,0.072605,-0.089597,-0.160482,-40.544217,-82.765531,44.285987
301019,0.09389,-0.131885,-0.169393,-40.29202,-82.886269,44.086582
301119,0.141929,-0.146722,-0.175557,-40.027169,-83.015587,43.902229
301219,0.209058,-0.096026,-0.183667,-39.531542,-83.125297,43.524211
301319,0.265779,0.001922,-0.183722,-38.692776,-83.190814,42.833418
301419,0.283712,0.085829,-0.173152,-37.620803,-83.213246,41.918199
301519,0.270158,0.163777,-0.161954,-36.369686,-83.193745,40.814776
301619,0.244797,0.248229,-0.155952,-34.931057,-83.129641,39.507792
301719,0.22117,0.386937,-0.15164,-33.189658,-82.993833,37.881908
301819,0.206163,0.548723,-0.151955,-31.136939,-82.773122,35.933
301919,0.181681,0.648186,-0.168816,-28.94233,-82.499134,33.825801
302019,0.131527,0.675191,-0.191143,-26.794948,-82.20753,31.735863
302119,0.089583,0.675118,-0.21525,-24.738137,-81.912159,29.711615
302219,0.063884,0.583925,-0.253261,-22.84344,-81.664199,27.834886
302319,0.044853,0.392552,-0.280252,-21.238253,-81.515917,26.23881
302419,-0.003144,0.100638,-0.244048,-20.22572,-81.511709,25.2138
302519,-0.012298,-0.18671,-0.180751,-19.822309,-81.648136,24.799403
302619,0.058817,-0.405318,-0.138959,-19.814591,-81.894265,24.82617
302719,0.197173,-0.519152,-0.122921,-19.950705,-82.19877,25.07817
302819,0.299909,-0.511431,-0.143297,-19.946808,-82.503172,25.248095
302919,0.276599,-0.363734,-0.129745,-19.792468,-82.725447,25.252733
303019,0.178243,-0.145027,-0.074445,-19.590608,-82.81911,25.152653
303119,0.042469,-0.014431,-0.018854,-19.503076,-82.83165,25.089396
303219,-0.074965,-0.029835,0.008501,-19.623796,-82.847383,25.168204
303319,-0.172304,-0.103128,0.044249,-20.069676,-82.895744,25.518484
303419,-0.243783,-0.146811,0.09994,-20.875549,-82.956024,26.1902
303519,-0.264493,-0.19075,0.166707,-22.073431,-83.024336,27.244831
303619,-0.26284,-0.225309,0.224485,-23.608802,-83.094984,28.640241
303719,-0.199731,-0.225522,0.239754,-25.204279,-83.157507,30.132417
303819,-0.080724,-0.23855,0.223327,-26.716577,-83.226,31.60929
303919,0.037224,-0.243555,0.191746,-28.066411,-83.300962,32.990398
304019,0.091984,-0.244537,0.153471,-29.252417,-83.38332,34.237931
304119,0.102441,-0.239974,0.121859,-30.314239,-83.469549,35.366273
304219,0.073543,-0.226019,0.097082,-31.276944,-83.553886,36.377996
304319,0.036533,-0.213639,0.087236,-32.209519,-83.63326,37.337892
304419,0.007053,-0.195774,0.092035,-33.152118,-83.700769,38.290736
304519,-0.022022,-0.16467,0.109036,-34.113505,-83.746283,39.245615
304619,-0.045962,-0.137099,0.132852,-35.121187,-83.769235,40.233202
304719,-0.046555,-0.118541,0.157258,-36.182184,-83.773444,41.274052
304819,-0.025504,-0.13039,0.171249,-37.328347,-83.776114,42.412696
304919,0.016535,-0.156276,0.171682,-38.537508,-83.787791,43.638924
305019,0.059245,-0.185476,0.163912,-39.793316,-83.812388,44.936643
305119,0.094643,-0.212712,0.156341,-41.103052,-83.848519,46.30893
305219,0.122058,-0.23597,0.150924,-42.474637,-83.893174,47.759114
305319,0.141468,-0.245008,0.152776,-43.895696,-83.93707,49.270118
305419,0.166337,-0.222176,0.153584,-45.23741,-83.967422,50.715558
305519,0.184064,-0.200331,0.155401,-46.502078,-83.984821,52.093674
305619,0.19108,-0.198825,0.155199,-47.762199,-83.998511,53.471218
305719,0.191694,-0.193448,0.151354,-48.99053,-84.008647,54.817122
305819,0.191832,-0.190547,0.14713,-50.194576,-84.01654,56.138665
305919,0.181026,-0.182498,0.140698,-51.350078,-84.02151,57.405159
306019,0.169879,-0.163743,0.13457,-52.410491,-84.020039,58.569618
306119,0.147295,-0.113171,0.129315,-53.242911,-84.001434,59.491848
306219,0.158159,-0.024445,0.127037,-53.66639,-83.952521,60.009187
306319,0.185634,0.064606,0.125281,-53.675006,-83.873957,60.12521
306419,0.224832,0.130417,0.130595,-53.397065,-83.770539,59.975618
306519,0.239237,0.148089,0.127347,-53.034346,-83.662448,59.749012
306619,0.245058,0.136607,0.117531,-52.693979,-83.562659,59.548209
306719,0.243473,0.108424,0.112783,-52.459767,-83.474728,59.453295
306819,0.232765,0.080063,0.115057,-52.353554,-83.395643,59.481036
306919,0.200138,0.077759,0.123096,-52.299305,-83.313726,59.542277
307019,0.138143,0.105713,0.136169,-52.211574,-83.216096,59.534048
307119,0.065934,0.153072,0.133582,-51.980627,-83.102981,59.339905
307219,0.015133,0.217253,0.126619,-51.529869,-82.9701,58.894947
307319,-0.000739,0.323391,0.115855,-50.697732,-82.803223,58.056354
307419,0.056686,0.479112,0.097362,-49.292642,-82.58505,56.672954
307519,0.148255,0.663175,0.078908,-47.283121,-82.299348,54.731989
307619,0.227804,0.855499,0.087111,-44.841091,-81.923952,52.398919
307719,0.313803,1.023262,0.135333,-42.268076,-81.44609,49.980837
307819,0.347405,1.106401,0.16331,-39.829335,-80.906929,47.714903
307919,0.290543,1.048345,0.192088,-37.886115,-80.370547,45.914743
308019,0.212634,0.833442,0.221637,-36.672506,-79.914238,44.807139
308119,0.161636,0.503345,0.204331,-36.146807,-79.61347,44.367532
308219,0.141675,0.113264,0.138682,-36.200541,-79.515301,44.505141
308319,0.153655,-0.211538,0.035781,-36.588133,-79.602103,44.989157
308419,0.17979,-0.405032,-0.042514,-37.140935,-79.804014,45.656039
308519,0.195592,-0.519916,-0.084907,-37.83057,-80.071784,46.470564
308619,0.167257,-0.570562,-0.101428,-38.642041,-80.366379,47.391531
308719,0.128606,-0.512847,-0.091796,-39.429246,-80.629583,48.264679
308819,0.101127,-0.363918,-0.06653,-40.007776,-80.816099,48.909873
308919,0.113996,-0.185508,-0.035097,-40.274162,-80.912011,49.246134
309019,0.1562,-0.053575,-0.018572,-40.260107,-80.94394,49.322837
309119,0.203712,0.008398,-0.024239,-40.059948,-80.950807,49.238657
309219,0.260488,0.040028,-0.038456,-39.715201,-80.94893,49.041005
309319,0.299527,0.062625,-0.065218,-39.222374,-80.946626,48.716047
309419,0.314673,0.078642,-0.098264,-38.59225,-80.948658,48.260833
309519,0.288236,0.096904,-0.128744,-37.849908,-80.952528,47.676636
309619,0.210042,0.101264,-0.159963,-37.052388,-80.964175,46.991197
309719,0.097041,0.088315,-0.191413,-36.253568,-80.99114,46.238909
309819,-0.022515,0.043792,-0.21222,-35.550853,-81.044296,45.51464
309919,-0.127541,-0.024516,-0.224094,-35.007346,-81.132149,44.89075
310019,-0.201809,-0.088211,-0.226175,-34.62241,-81.249867,44.384441
310119,-0.253404,-0.119276,-0.226741,-34.319121,-81.381947,43.930998
310219,-0.273416,-0.114092,-0.228635,-33.998397,-81.51175,43.448498
310319,-0.282621,-0.077194,-0.225122,-33.602545,-81.622341,42.884884
310419,-0.289727,0.009463,-0.204463,-33.080424,-81.684203,42.189675
310519,-0.294823,0.101543,-0.177338,-32.44824,-81.692198,41.380361
310619,-0.302485,0.158308,-0.148936,-31.797059,-81.662633,40.5474
310719,-0.312502,0.169853,-0.123584,-31.21831,-81.618512,39.781778
310819,-0.32306,0.126802,-0.115118,-30.765795,-81.592023,39.137578
310919,-0.3355,0.087731,-0.115184,-30.399746,-81.584142,38.573554
311019,-0.338255,0.006642,-0.116956,-30.187496,-81.616461,38.163422
311119,-0.338157,-0.048206,-0.12041,-30.068036,-81.676753,37.847187
311219,-0.362057,-0.067163,-0.122362,-29.989749,-81.746881,37.558783
311319,-0.373002,-0.073781,-0.118696,-29.940457,-81.819121,37.293403
311419,-0.357601,-0.065164,-0.107314,-29.90205,-81.883707,37.047994
311519,-0.350921,-0.056846,-0.089184,-29.904546,-81.938863,36.84782
311619,-0.332625,-0.061401,-0.078696,-29.941542,-81.99317,36.693119
311719,-0.314262,-0.091955,-0.071876,-30.0541,-82.060573,36.625386
311819,-0.303596,-0.095405,-0.063735,-30.197349,-82.127227,36.59484
311919,-0.275173,-0.073485,-0.061895,-30.285851,-82.182373,36.525495
312019,-0.229786,-0.018776,-0.06556,-30.219638,-82.21137,36.326263
312119,-0.187064,0.057258,-0.078107,-29.922979,-82.206061,35.919167
312219,-0.147652,0.130322,-0.094279,-29.395481,-82.168451,35.301857
312319,-0.095177,0.18293,-0.10312,-28.706778,-82.105955,34.552104
312419,-0.041507,0.21441,-0.104897,-27.932154,-82.026653,33.746533
312519,0.008885,0.208793,-0.100618,-27.170532,-81.947484,32.983108
312619,0.066099,0.164104,-0.097806,-26.481575,-81.88901,32.32607
312719,0.134848,0.087525,-0.093555,-25.912443,-81.867757,31.829804
312819,0.196295,0.023648,-0.086809,-25.445783,-81.877132,31.472615
312919,0.269865,0.019883,-0.087896,-24.939066,-81.88825,31.117561
313019,0.349928,0.04929,-0.094747,-24.311901,-81.885142,30.687192
313119,0.387577,0.093693,-0.094808,-23.592081,-81.858011,30.185011
313219,0.336264,0.162127,-0.107999,-22.751129,-81.796707,29.530711
313319,0.261984,0.226881,-0.130097,-21.787341,-81.704221,28.709179
313419,0.181275,0.328721,-0.134879,-20.730845,-81.556085,27.74696
313519,0.120307,0.489296,-0.140222,-19.520116,-81.319709,26.592971
313619,0.116824,0.678283,-0.16243,-18.081835,-80.980942,25.205777
313719,0.14332,0.819045,-0.172129,-16.558645,-80.561496,23.746465
313819,0.142505,0.88342,-0.159846,-15.14639,-80.098983,22.397314
313919,0.112526,0.80129,-0.171727,-13.900285,-79.678908,21.197635
314019,0.042432,0.461034,-0.20918,-12.909171,-79.44984,20.215123
314119,-0.107079,-0.023803,-0.191628,-12.409694,-79.487771,19.645197
314219,-0.250907,-0.477418,-0.163889,-12.372645,-79.776038,19.461869
314319,-0.261682,-0.755485,-0.169088,-12.514543,-80.220847,19.45417
314419,-0.138463,-0.859992,-0.197837,-12.571167,-80.72787,19.431586
314519,-0.007994,-0.840972,-0.231138,-12.416106,-81.228458,19.270382
314619,0.016608,-0.661185,-0.239792,-12.045412,-81.629266,18.90556
314719,-0.068266,-0.350077,-0.184038,-11.65387,-81.848581,18.470828
314819,-0.201776,-0.031853,-0.113799,-11.344,-81.880743,18.041467
314919,-0.265252,0.158591,-0.060602,-11.130823,-81.799665,17.67302
315019,-0.315263,0.243144,0.004284,-11.138852,-81.66383,17.499043
315119,-0.386279,0.22188,0.094185,-11.54547,-81.529984,17.686788
315219,-0.491612,0.098366,0.184127,-12.4358,-81.454464,18.302649
315319,-0.575596,-0.063777,0.246518,-13.734452,-81.45973,19.282805
315419,-0.588972,-0.218696,0.273737,-15.297012,-81.543484,20.521928
315519,-0.516864,-0.317371,0.272189,-16.950807,-81.676705,21.894679
315619,-0.37177,-0.359402,0.232079,-18.470189,-81.834305,23.215098
315719,-0.217667,-0.363496,0.168843,-19.718345,-82.001371,24.350206
315819,-0.091692,-0.353057,0.117826,-20.729336,-82.169741,25.31827
315919,-0.026475,-0.328458,0.093185,-21.60904,-82.327818,26.191167
316019,-0.020045,-0.276297,0.080949,-22.385603,-82.45905,26.963423
316119,-0.05668,-0.198187,0.078675,-23.065982,-82.548151,27.617297
316219,-0.098877,-0.125741,0.088542,-23.697259,-82.595887,28.197168
316319,-0.141164,-0.077318,0.104417,-24.336023,-82.613718,28.760113
316419,-0.16139,-0.051352,0.118635,-24.997612,-82.61379,29.334374
316519,-0.158959,-0.046103,0.132009,-25.700914,-82.606977,29.952107
316619,-0.141749,-0.067534,0.140241,-26.467645,-82.608102,30.643744
316719,-0.113485,-0.111796,0.145981,-27.330454,-82.629093,31.448572
316819,-0.086919,-0.157822,0.149176,-28.291852,-82.670902,32.368094
316919,-0.040547,-0.193081,0.146567,-29.304088,-82.729085,33.365551
317019,0.012137,-0.215351,0.13899,-30.322986,-82.798218,34.40001
317119,0.071201,-0.215734,0.120612,-31.25614,-82.870672,35.381995
317219,0.127676,-0.207182,0.102885,-32.08526,-82.942367,36.291596
317319,0.168192,-0.181459,0.092004,-32.800295,-83.003425,37.109507
317419,0.170907,-0.177705,0.090128,-33.509483,-83.061993,37.922988
317519,0.161359,-0.202058,0.095664,-34.323371,-83.12902,38.836315
317619,0.140665,-0.228858,0.103385,-35.269834,-83.204384,39.871089
317719,0.110041,-0.226771,0.115937,-36.298112,-83.272378,40.97043
317819,0.093124,-0.186257,0.129683,-37.289714,-83.314704,42.022962
317919,0.100011,-0.114966,0.148682,-38.145967,-83.316002,42.943151
318019,0.109925,-0.040815,0.168182,-38.84273,-83.275578,43.708513
318119,0.120654,0.02131,0.18035,-39.378908,-83.202119,44.318452
318219,0.13959,0.061213,0.189956,-39.805084,-83.106883,44.828642
318319,0.164877,0.070086,0.195781,-40.197745,-83.005138,45.319775
318419,0.189026,0.049742,0.201661,-40.645282,-82.909619,45.88025
318519,0.193507,0.012638,0.208396,-41.210798,-82.827013,46.562322
318619,0.155717,-0.01099,0.215643,-41.878546,-82.750876,47.325735
318719,0.077297,-0.011259,0.219833,-42.590082,-82.672112,48.08812
318819,-0.048199,0.025184,0.218876,-43.24352,-82.577328,48.71956
318919,-0.162016,0.12431,0.21082,-43.622416,-82.443781,49.008479
319019,-0.200489,0.276806,0.199124,-43.528942,-82.251449,48.798653
319119,-0.142907,0.436081,0.188773,-42.932295,-81.996445,48.114075
319219,-0.010832,0.584519,0.187843,-41.905563,-81.677567,47.071009
319319,0.179028,0.728897,0.203663,-40.539352,-81.287295,45.793767
319419,0.330275,0.847914,0.249994,-39.062164,-80.822896,44.490488
319519,0.362895,0.900729,0.294148,-37.710331,-80.314131,43.33146
