SampleTimeFine,Gyr_X,Gyr_Y,Gyr_Z,Roll,Pitch,Yaw
134859,-0.007239,-0.007549,0.003589,-22.518594,-77.914159,22.067848
134959,0.00156,-0.002313,-0.002679,-22.510351,-77.916973,22.06081
135059,0.009555,0.00468,-0.005411,-22.48365,-77.916685,22.039578
135159,0.012622,0.001768,-0.005686,-22.457548,-77.918005,22.020753
135259,0.008008,-0.002455,-0.000867,-22.45037,-77.920506,22.018574
135359,0.006888,-0.01032,0.000631,-22.455596,-77.926852,22.028424
135459,0.003528,-0.021286,0.004552,-22.483716,-77.938154,22.059715
135559,0.001157,-0.032025,0.005823,-22.527412,-77.954865,22.105546
135659,0.005812,-0.03067,0.004923,-22.564912,-77.971057,22.147764
135759,0.009752,-0.023527,0.001963,-22.585498,-77.984113,22.174995
135859,0.016286,-0.009885,-0.001252,-22.580294,-77.99066,22.179683
135959,0.015045,0.001707,-0.0022,-22.561482,-77.991282,22.169733
136059,0.009037,0.012825,0.001044,-22.542713,-77.985307,22.156305
136159,0.000677,0.009301,0.003756,-22.539148,-77.980606,22.153521
136259,-0.002706,-0.005476,0.007091,-22.560997,-77.983,22.174748
136359,-0.00423,-0.031821,0.007398,-22.611757,-77.999267,22.224633
136459,-0.002735,-0.036616,0.003754,-22.657643,-78.018864,22.270412
136559,-0.003743,-0.024546,0.000755,-22.68418,-78.032744,22.295819
136659,-0.008164,-0.010093,-0.003878,-22.686655,-78.040002,22.294041
136759,-0.015928,-0.001816,-0.004083,-22.684442,-78.042929,22.282922
136859,-0.008779,0.015202,-0.000247,-22.669957,-78.036026,22.263447
136959,-0.005761,0.022926,-0.0008,-22.644306,-78.02516,22.234329
137059,-0.007455,0.020633,-0.00649,-22.607905,-78.016761,22.193221
137159,-0.012652,0.020457,-0.008877,-22.568754,-78.008984,22.146259
137259,-0.027914,0.018045,-0.010367,-22.537177,-78.00279,22.098101
137359,-0.031137,0.018003,-0.008648,-22.511823,-77.996237,22.054415
137459,-0.032746,0.032751,-0.008003,-22.473836,-77.981734,21.996874
137559,-0.032178,0.046417,-0.004399,-22.430587,-77.959205,21.934279
137659,-0.025346,0.044861,-0.00448,-22.385006,-77.937534,21.873295
137759,-0.019472,0.02559,-0.010008,-22.34206,-77.927278,21.818455
137859,-0.023849,0.006976,-0.011928,-22.315798,-77.927309,21.778106
137959,-0.03316,-0.017739,-0.020906,-22.297633,-77.942404,21.740593
138059,-0.037957,-0.038414,-0.030894,-22.278361,-77.970633,21.699138
138159,-0.037468,-0.042143,-0.038927,-22.242422,-78.002569,21.640937
138259,-0.029803,-0.033227,-0.043241,-22.181993,-78.030685,21.562189
138359,-0.015667,-0.016993,-0.042623,-22.098148,-78.050028,21.467796
138459,-0.00469,-0.001644,-0.040543,-21.99742,-78.06074,21.362574
138559,-0.008189,0.005403,-0.033826,-21.90826,-78.06621,21.267131
138659,-0.016195,0.003868,-0.028988,-21.837365,-78.071437,21.185665
138759,-0.025071,0.001522,-0.025376,-21.782907,-78.077123,21.115814
138859,-0.035756,0.002618,-0.023049,-21.739335,-78.081706,21.050823
138959,-0.038822,0.011069,-0.02256,-21.690241,-78.081664,20.978396
139059,-0.030718,0.020091,-0.022488,-21.627665,-78.076785,20.896935
139159,-0.021837,0.018127,-0.023786,-21.558751,-78.073204,20.814197
139259,-0.00825,0.009989,-0.027982,-21.479605,-78.074811,20.728953
139359,0.007362,-0.008604,-0.031374,-21.401332,-78.087012,20.653747
139459,0.024035,-0.009285,-0.03338,-21.308951,-78.099963,20.573889
139559,0.033442,0.008657,-0.035986,-21.186804,-78.103821,20.469114
139659,0.040044,0.02564,-0.033801,-21.049811,-78.098089,20.353034
139759,0.04136,0.023275,-0.025197,-20.93641,-78.091791,20.261829
139859,0.045777,0.009144,-0.01258,-20.866347,-78.090443,20.217491
139959,0.038712,-0.008423,-0.008205,-20.828391,-78.097606,20.201839
140059,0.02904,-0.016073,-0.004641,-20.812424,-78.108142,20.202991
140159,0.021636,-0.024465,-0.004892,-20.808176,-78.123243,20.211785
140259,0.011253,-0.03022,-0.005163,-20.814794,-78.141468,20.225599
140359,0.011404,-0.029586,-0.003807,-20.824236,-78.159067,20.242381
140459,0.020153,-0.01758,-0.00497,-20.814058,-78.170463,20.244244
140559,0.035869,0.000977,-0.003959,-20.779476,-78.171693,20.230364
140659,0.044919,0.020314,-0.003966,-20.721011,-78.162578,20.197382
140759,0.0573,0.025278,-0.000176,-20.660457,-78.150016,20.169508
140859,0.061736,0.015489,-0.000535,-20.605918,-78.142769,20.150382
140959,0.060448,0.007848,0.005039,-20.573736,-78.138502,20.153341
141059,0.056099,0.001009,0.005936,-20.552823,-78.137708,20.165279
141159,0.051839,0.002711,0.00738,-20.536458,-78.135691,20.17935
141259,0.046191,0.008578,0.011891,-20.529075,-78.129626,20.199332
141359,0.046871,0.01007,0.01636,-20.531416,-78.121861,20.229621
141459,0.050255,0.021206,0.014331,-20.515951,-78.108505,20.243701
141559,0.051798,0.03606,0.00984,-20.474148,-78.088094,20.231754
141659,0.048963,0.041854,0.011662,-20.433188,-78.064207,20.219015
141759,0.044918,0.027883,0.018678,-20.425551,-78.046418,20.237981
141859,0.044985,0.008426,0.01849,-20.435766,-78.039123,20.275227
141959,0.04021,-0.01443,0.017521,-20.46781,-78.044283,20.331984
142059,0.037714,-0.025129,0.019091,-20.51539,-78.054885,20.403173
142159,0.04161,-0.026119,0.017865,-20.558809,-78.066225,20.472342
142259,0.046993,-0.020698,0.015774,-20.588424,-78.075018,20.530612
142359,0.049639,-0.012893,0.01314,-20.602889,-78.080206,20.574851
142459,0.04568,-0.000372,0.011549,-20.603173,-78.079023,20.602385
142559,0.033795,0.003846,0.010314,-20.603318,-78.075792,20.622755
142659,0.015206,-0.009299,0.010775,-20.627909,-78.079561,20.657217
142759,0.016749,-0.019405,0.00815,-20.654436,-78.08927,20.694606
142859,0.030012,-0.020362,0.008489,-20.675251,-78.099393,20.733902
142959,0.034791,-0.021948,0.003051,-20.680971,-78.11145,20.760587
143059,0.039926,-0.008351,-0.00242,-20.656807,-78.117336,20.759735
143159,0.032505,-0.002029,-0.00797,-20.616649,-78.12092,20.738195
143259,0.020734,-0.006863,-0.004524,-20.596644,-78.126412,20.730361
143359,0.01143,-0.012298,0.000715,-20.600571,-78.133758,20.741527
143459,0.010667,-0.017919,0.000453,-20.609607,-78.144178,20.757477
143559,0.005234,-0.037933,0.00278,-20.647044,-78.164879,20.799256
143659,0.003999,-0.058625,0.001864,-20.702961,-78.196863,20.859199
143759,0.007413,-0.068476,0.000733,-20.763929,-78.234335,20.926287
143859,0.019904,-0.081373,-0.004744,-20.816649,-78.279821,20.992249
143959,0.025818,-0.092772,-0.01353,-20.854941,-78.333187,21.046926
144059,0.025602,-0.09573,-0.024374,-20.868481,-78.390343,21.076194
144159,0.022945,-0.095182,-0.030892,-20.866159,-78.44853,21.087708
144259,0.021876,-0.091566,-0.036239,-20.846776,-78.505877,21.081184
144359,0.023689,-0.092619,-0.037757,-20.823251,-78.564096,21.071494
144459,0.022833,-0.098274,-0.038008,-20.805082,-78.625398,21.066771
144559,0.018522,-0.105777,-0.036569,-20.800716,-78.690425,21.073608
144659,0.01423,-0.106497,-0.032886,-20.809457,-78.755085,21.091303
144759,0.015712,-0.104524,-0.031341,-20.81963,-78.818368,21.111319
144859,0.013675,-0.093829,-0.033541,-20.814073,-78.87636,21.114108
144959,0.005465,-0.071678,-0.035015,-20.78619,-78.922778,21.089349
145059,0.00147,-0.048459,-0.035881,-20.733883,-78.956923,21.037372
145159,-0.003739,-0.039127,-0.036963,-20.671597,-78.986275,20.972191
145259,0.000229,-0.042105,-0.037397,-20.608602,-79.0173,20.90861
145359,0.009985,-0.06174,-0.032815,-20.572756,-79.057928,20.878385
145459,0.011226,-0.064017,-0.034325,-20.534069,-79.100079,20.845997
145559,0.011787,-0.064661,-0.034739,-20.494261,-79.142654,20.8128
145659,0.00614,-0.065775,-0.034086,-20.4604,-79.18569,20.782369
145759,0.000386,-0.064176,-0.034524,-20.42667,-79.227953,20.748719
145859,0.002049,-0.054795,-0.037599,-20.373154,-79.265786,20.695902
145959,-0.002601,-0.040085,-0.041625,-20.295072,-79.296504,20.615373
146059,-0.010613,-0.029545,-0.038672,-20.218545,-79.32095,20.531761
146159,-0.017685,-0.037169,-0.031351,-20.174665,-79.348033,20.477252
146259,-0.014581,-0.056343,-0.024354,-20.168982,-79.384046,20.463422
146359,-0.015042,-0.07867,-0.020204,-20.199025,-79.43125,20.485673
146459,-0.016058,-0.092126,-0.023539,-20.234517,-79.486349,20.512873
146559,-0.016357,-0.092863,-0.028818,-20.255896,-79.54289,20.525543
146659,-0.014238,-0.078826,-0.033386,-20.247717,-79.592789,20.509388
146759,-0.016757,-0.058826,-0.034311,-20.216535,-79.632115,20.46838
146859,-0.019459,-0.04884,-0.027018,-20.197369,-79.664621,20.438014
146959,-0.022313,-0.051851,-0.02227,-20.197023,-79.697806,20.425119
147059,-0.023325,-0.061407,-0.015472,-20.227807,-79.734788,20.443275
147159,-0.024045,-0.068663,-0.015504,-20.266999,-79.775678,20.469554
147259,-0.024466,-0.06975,-0.019109,-20.297041,-79.817866,20.486291
147359,-0.02419,-0.066481,-0.023139,-20.311344,-79.859098,20.487197
147459,-0.022344,-0.052391,-0.02811,-20.293953,-79.893745,20.456982
147559,-0.024024,-0.041905,-0.029179,-20.262471,-79.922963,20.411477
147659,-0.020161,-0.040036,-0.026631,-20.23424,-79.950662,20.371523
147759,-0.012811,-0.046312,-0.019741,-20.22962,-79.980366,20.359825
147859,-0.009454,-0.056591,-0.017596,-20.241119,-80.01517,20.366451
147959,-0.011805,-0.066103,-0.012663,-20.279873,-80.054109,20.399381
148059,-0.014253,-0.062943,-0.014962,-20.309602,-80.091805,20.421723
148159,-0.018419,-0.045564,-0.01356,-20.326355,-80.119881,20.428467
148259,-0.020882,-0.03082,-0.009754,-20.339471,-80.139279,20.430087
148359,-0.033265,-0.017387,-0.004381,-20.360935,-80.150388,20.432978
148459,-0.04652,-0.00683,0.001318,-20.395504,-80.15469,20.441462
148559,-0.064441,-0.00145,0.011035,-20.464165,-80.154165,20.474129
148659,-0.087239,-0.007353,0.010249,-20.550188,-80.156967,20.511162
148759,-0.107076,-0.014732,0.005631,-20.641814,-80.164658,20.54235
148859,-0.105318,-0.009456,0.001934,-20.714839,-80.170267,20.555685
148959,-0.092127,0.01095,-0.003804,-20.738655,-80.166106,20.52675
149059,-0.077846,0.033233,-0.008784,-20.71289,-80.151018,20.455797
149159,-0.071093,0.040655,-0.010449,-20.669706,-80.132286,20.371084
149259,-0.07483,0.029944,-0.009713,-20.643641,-80.119134,20.30157
149359,-0.076388,0.006125,-0.000123,-20.675704,-80.116798,20.290149
149459,-0.069148,0.000695,0.006541,-20.730425,-80.11601,20.305939
149559,-0.054004,0.02434,0.007145,-20.75079,-80.102423,20.295662
149659,-0.047516,0.049221,0.007062,-20.738305,-80.075524,20.255811
149759,-0.04525,0.068943,0.006286,-20.699557,-80.038214,20.190611
149859,-0.036558,0.070811,0.001136,-20.638441,-80.000941,20.107747
149959,-0.026814,0.043605,-0.005753,-20.582389,-79.979639,20.035687
150059,-0.019596,0.005084,-0.009371,-20.555287,-79.979722,19.997222
150159,-0.00889,-0.016228,-0.011466,-20.539952,-79.991656,19.976935
150259,-0.002974,-0.014602,-0.014693,-20.509505,-80.003359,19.944745
150359,-0.004198,0.003585,-0.013489,-20.462646,-80.005047,19.895181
150459,-0.005957,0.019615,-0.014765,-20.394698,-79.998372,19.823178
150559,-0.010058,0.02663,-0.012294,-20.328752,-79.987421,19.750823
150659,-0.011604,0.026906,-0.012707,-20.262222,-79.976396,19.676975
150759,-0.017331,0.032563,-0.013997,-20.188847,-79.96258,19.592842
150859,-0.022545,0.036212,-0.015492,-20.110074,-79.947087,19.500191
150959,-0.027647,0.02892,-0.014124,-20.046721,-79.935235,19.420226
151059,-0.024356,0.014825,-0.011956,-20.003794,-79.930536,19.362919
151159,-0.018699,-0.002238,-0.009048,-19.985305,-79.934448,19.333723
151259,-0.015778,-0.011384,-0.00959,-19.973561,-79.943388,19.313077
151359,-0.012149,-0.008958,-0.010642,-19.953828,-79.951222,19.28643
151459,-0.015766,-0.001279,-0.01092,-19.926811,-79.954967,19.250283
151559,-0.031174,0.020208,-0.012891,-19.878978,-79.947515,19.184028
151659,-0.044503,0.034468,-0.009847,-19.832495,-79.931779,19.111387
151759,-0.057037,0.032857,-0.007049,-19.803581,-79.91637,19.049294
151859,-0.059478,0.006473,-0.011845,-19.790315,-79.916126,19.001674
151959,-0.047028,-0.001846,-0.007954,-19.790717,-79.91962,18.975185
152059,-0.036154,-0.003328,-0.008853,-19.783702,-79.924097,18.947495
152159,-0.027025,-0.020916,-0.015824,-19.769405,-79.939413,18.917722
152259,-0.019241,-0.031483,-0.024835,-19.734642,-79.96217,18.871697
152359,-0.014549,-0.036533,-0.026979,-19.695961,-79.988054,18.824428
152459,-0.012227,-0.036757,-0.030238,-19.645999,-80.014672,18.767057
152559,-0.0165,-0.035192,-0.032222,-19.590419,-80.04081,18.7015
152659,-0.01479,-0.026339,-0.03056,-19.52903,-80.061831,18.631042
152759,-0.012696,-0.015337,-0.028024,-19.46203,-80.076407,18.556109
152859,-0.005574,-0.012701,-0.025355,-19.396153,-80.089035,18.48646
152959,0.005173,-0.019855,-0.02149,-19.343724,-80.104785,18.436714
153059,0.012072,-0.02522,-0.016589,-19.30826,-80.122499,18.408203
153159,0.017637,-0.024186,-0.013657,-19.277522,-80.139093,18.387725
153259,0.021453,-0.021669,-0.011572,-19.248321,-80.153925,18.371025
153359,0.022429,-0.019086,-0.007845,-19.227361,-80.166647,18.363256
153459,0.027688,-0.023328,-0.001611,-19.227468,-80.180483,18.379925
153559,0.03135,-0.029001,0.003442,-19.247488,-80.19643,18.418933
153659,0.041704,-0.031078,0.006172,-19.27244,-80.212982,18.468965
153759,0.046748,-0.026311,0.003149,-19.279816,-80.227526,18.504095
153859,0.051505,-0.022626,0.000474,-19.272014,-80.240588,18.52659
153959,0.051806,-0.021891,0.001121,-19.265266,-80.253134,18.550329
154059,0.050191,-0.029743,0.001896,-19.27059,-80.269784,18.585375
154159,0.04627,-0.044352,0.006965,-19.31046,-80.293371,18.653188
154259,0.048003,-0.055432,0.010972,-19.374683,-80.322172,18.746705
154359,0.053418,-0.061926,0.015766,-19.458831,-80.353546,18.863573
154459,0.059098,-0.063371,0.019727,-19.554631,-80.384906,18.995548
154559,0.069308,-0.059755,0.022883,-19.651227,-80.413668,19.134252
154659,0.075922,-0.05055,0.022392,-19.732504,-80.437523,19.261257
154759,0.077045,-0.037391,0.023652,-19.802427,-80.454015,19.377394
154859,0.075306,-0.031159,0.023105,-19.864656,-80.467236,19.484714
154959,0.068579,-0.036003,0.020364,-19.927835,-80.483585,19.589084
155059,0.058437,-0.044076,0.022238,-20.01263,-80.503892,19.709472
155159,0.066612,-0.03907,0.024963,-20.096047,-80.520938,19.833206
155259,0.073074,-0.032915,0.025252,-20.169729,-80.534584,19.950819
155359,0.079062,-0.024913,0.021059,-20.217167,-80.544739,20.0453
155459,0.090154,-0.024022,0.0193,-20.251609,-80.554753,20.133047
155559,0.079065,-0.041436,0.016187,-20.303281,-80.574725,20.231819
155659,0.067408,-0.054605,0.014781,-20.373232,-80.602031,20.342343
155759,0.070742,-0.051136,0.019744,-20.453699,-80.626458,20.465454
155859,0.079012,-0.03737,0.020718,-20.516318,-80.643279,20.57527
155959,0.089011,-0.040386,0.020711,-20.577193,-80.661701,20.689119
156059,0.093524,-0.052622,0.019535,-20.647039,-80.686898,20.814673
156159,0.09229,-0.079051,0.019541,-20.750962,-80.72622,20.97403
156259,0.089386,-0.10365,0.018715,-20.885894,-80.778828,21.163097
156359,0.089445,-0.112971,0.018695,-21.034489,-80.836346,21.366009
156459,0.093255,-0.108676,0.020158,-21.18244,-80.891179,21.570445
156559,0.096728,-0.093671,0.019539,-21.308828,-80.938048,21.755031
156659,0.097827,-0.080925,0.014833,-21.403555,-80.979042,21.908171
156759,0.096493,-0.077232,0.017092,-21.502855,-81.017552,22.065151
156859,0.086917,-0.075608,0.019475,-21.614575,-81.054648,22.229135
156959,0.079046,-0.078813,0.024866,-21.754516,-81.092251,22.417106
157059,0.07466,-0.072872,0.025739,-21.893083,-81.126436,22.601128
157159,0.073627,-0.057109,0.027111,-22.016292,-81.15189,22.768994
157259,0.072214,-0.045562,0.02435,-22.115587,-81.171765,22.911831
157359,0.068471,-0.048863,0.03103,-22.245045,-81.191913,23.083013
157459,0.068111,-0.072004,0.035938,-22.424967,-81.223197,23.305038
157559,0.059803,-0.092806,0.039028,-22.651577,-81.264698,23.569463
157659,0.055697,-0.116731,0.044752,-22.937556,-81.317385,23.891536
157759,0.058887,-0.125759,0.045591,-23.241702,-81.374393,24.233788
157859,0.064554,-0.121808,0.043439,-23.533291,-81.429545,24.566575
157959,0.061812,-0.12184,0.040996,-23.821907,-81.48503,24.89472
158059,0.064162,-0.134984,0.038517,-24.125084,-81.547722,25.2389
158159,0.064113,-0.149068,0.035842,-24.446161,-81.618123,25.601089
158259,0.062654,-0.15004,0.030052,-24.754685,-81.69012,25.949683
158359,0.064071,-0.140475,0.025134,-25.03435,-81.758073,26.269875
158459,0.064502,-0.134424,0.023387,-25.302066,-81.823096,26.578189
158559,0.061905,-0.136298,0.026484,-25.590355,-81.888111,26.905732
158659,0.058787,-0.141954,0.032902,-25.918848,-81.954196,27.272021
158759,0.057195,-0.154995,0.041768,-26.310178,-82.024429,27.700781
158859,0.057437,-0.170006,0.048932,-26.763001,-82.100082,28.191688
158959,0.057869,-0.17234,0.054639,-27.250359,-82.17488,28.717615
159059,0.064099,-0.157597,0.056529,-27.722133,-82.241077,29.231322
159159,0.078141,-0.132572,0.05724,-28.14699,-82.293866,29.705722
159259,0.092173,-0.111451,0.056056,-28.522683,-82.335876,30.138567
159359,0.099329,-0.108987,0.059153,-28.905365,-82.375415,30.582554
159459,0.10378,-0.1333,0.069334,-29.379408,-82.423844,31.121235
159559,0.106075,-0.160091,0.078933,-29.952757,-82.482237,31.761348
159659,0.104339,-0.173953,0.08582,-30.593364,-82.544604,32.468203
159759,0.10284,-0.171575,0.090127,-31.256865,-82.603478,33.197181
159859,0.099267,-0.163676,0.084605,-31.894004,-82.659078,33.897418
159959,0.093834,-0.154449,0.076628,-32.491942,-82.711664,34.55491
160059,0.093273,-0.144837,0.069489,-33.048496,-82.760988,35.170283
160159,0.089359,-0.139346,0.059425,-33.563291,-82.810126,35.741239
160259,0.088084,-0.135637,0.052142,-34.049028,-82.859202,36.282113
160359,0.088725,-0.129707,0.044315,-34.496192,-82.90746,36.784426
160459,0.087711,-0.12671,0.04055,-34.928086,-82.955072,37.270716
160559,0.090875,-0.128171,0.040572,-35.368393,-83.002915,37.767258
160659,0.09397,-0.136476,0.044401,-35.85081,-83.052862,38.307957
160759,0.090712,-0.145075,0.049194,-36.384921,-83.104579,38.898788
160859,0.084251,-0.145477,0.054192,-36.951393,-83.154071,39.518422
160959,0.075017,-0.137248,0.060072,-37.530007,-83.197013,40.144897
161059,0.058429,-0.124113,0.057749,-38.077687,-83.234082,40.730594
161159,0.035279,-0.110852,0.055415,-38.595707,-83.265374,41.273027
161259,0.028061,-0.085623,0.050712,-39.027425,-83.286571,41.72437
161359,0.026788,-0.042963,0.044459,-39.306972,-83.290758,42.021745
161459,0.022939,-0.001106,0.042116,-39.450654,-83.27714,42.180098
161559,0.015096,-0.00433,0.03576,-39.584569,-83.267226,42.324093
161659,0.008311,-0.044319,0.035978,-39.847115,-83.274788,42.593694
161759,0.015116,-0.083863,0.051843,-40.289807,-83.29362,43.048599
161859,0.032366,-0.102939,0.062703,-40.826364,-83.316225,43.607943
161959,0.06199,-0.087354,0.069592,-41.324616,-83.328886,44.145783
162059,0.088672,-0.076215,0.071609,-41.780546,-83.335464,44.656393
162159,0.106062,-0.075712,0.075744,-42.240755,-83.339765,45.181337
162259,0.113903,-0.091133,0.07831,-42.757578,-83.349087,45.767797
162359,0.112142,-0.118147,0.073673,-43.351405,-83.370901,46.430751
162459,0.106767,-0.136146,0.059337,-43.962981,-83.405073,47.108439
162559,0.098047,-0.140775,0.045408,-44.552779,-83.445924,47.759127
162659,0.09045,-0.136143,0.033588,-45.096235,-83.488949,48.358735
162759,0.079031,-0.130427,0.02829,-45.614425,-83.531204,48.926277
162859,0.062698,-0.116642,0.022523,-46.078277,-83.569768,49.42967
162959,0.041694,-0.094138,0.02558,-46.487332,-83.597703,49.865776
163059,0.018133,-0.086085,0.036182,-46.920659,-83.617669,50.312698
163159,-0.006672,-0.082864,0.048947,-47.403228,-83.6306,50.794852
163259,-0.021524,-0.080029,0.064384,-47.938659,-83.635411,51.321623
163359,-0.034434,-0.077919,0.083525,-48.539296,-83.630658,51.906561
163459,-0.039689,-0.075642,0.097806,-49.181043,-83.61819,52.529845
163559,-0.031397,-0.070355,0.102971,-49.811871,-83.600753,53.146941
163659,-0.027677,-0.067298,0.090016,-50.382971,-83.58718,53.706097
163759,-0.022273,-0.05539,0.069971,-50.83716,-83.577604,54.150735
163859,-0.020013,-0.050054,0.054708,-51.218902,-83.572536,54.523777
163959,-0.021724,-0.027747,0.046177,-51.485256,-83.563056,54.77972
164059,-0.023759,0.004732,0.042592,-51.611563,-83.543507,54.89356
164159,-0.033946,0.015119,0.045873,-51.712056,-83.518763,54.975551
164259,-0.041812,0.005895,0.050298,-51.866493,-83.495279,55.107304
164359,-0.048186,-0.006116,0.048787,-52.066248,-83.476677,55.281001
164459,-0.047848,-0.010261,0.043376,-52.264503,-83.46192,55.453389
164559,-0.047274,-0.012268,0.038183,-52.453692,-83.450159,55.616989
164659,-0.045154,-0.012292,0.032218,-52.623074,-83.44106,55.761877
164759,-0.042938,-0.016864,0.027968,-52.796089,-83.435426,55.911702
164859,-0.038306,-0.016412,0.031468,-52.974871,-83.427971,56.070006
164959,-0.041282,-0.012347,0.033882,-53.14602,-83.41794,56.218911
165059,-0.04461,-0.013886,0.038982,-53.339802,-83.406029,56.388684
165159,-0.045123,-0.011262,0.041813,-53.531092,-83.391845,56.555657
165259,-0.03583,-0.002505,0.048002,-53.699536,-83.371762,56.704996
165359,-0.022393,0.005955,0.051162,-53.834915,-83.347305,56.828805
165459,-0.009585,0.009269,0.051514,-53.94989,-83.321531,56.939467
165559,0.001521,0.010877,0.047564,-54.039978,-83.297021,57.031483
165659,0.00738,0.007442,0.043943,-54.129258,-83.275329,57.126072
165759,0.004216,0.003333,0.042781,-54.232605,-83.255541,57.233004
165859,-0.012278,-0.003386,0.044948,-54.377242,-83.236974,57.372002
165959,-0.02553,-0.005461,0.045838,-54.539261,-83.218651,57.520865
166059,-0.041987,-0.013615,0.040474,-54.726873,-83.205497,57.686013
166159,-0.046292,-0.027025,0.036435,-54.957747,-83.198593,57.892249
166259,-0.045142,-0.029944,0.036728,-55.199743,-83.192409,58.110354
166359,-0.034292,-0.023816,0.032773,-55.400086,-83.185989,58.292776
166459,-0.029405,-0.020249,0.025985,-55.564754,-83.18155,58.442089
166559,-0.026183,-0.023838,0.015925,-55.714434,-83.182984,58.578168
166659,-0.023742,-0.026602,0.007969,-55.852329,-83.189037,58.703785
166759,-0.017242,-0.034727,0.003499,-56.007056,-83.199775,58.850103
166859,-0.015911,-0.035597,-0.001688,-56.151043,-83.2132,58.986368
166959,-0.016019,-0.027235,-0.004499,-56.254566,-83.22525,59.081818
167059,-0.019736,-0.011228,-0.005598,-56.293333,-83.232703,59.109909
167159,-0.017413,-0.006269,-0.006444,-56.308712,-83.238971,59.115787
167259,-0.016388,-0.009299,-0.00269,-56.345873,-83.244405,59.144189
167359,-0.019532,-0.020873,-0.000299,-56.438032,-83.252363,59.226156
167459,-0.014932,-0.032912,0.006269,-56.594056,-83.260966,59.375085
167559,-0.003115,-0.03804,0.013817,-56.784576,-83.267518,59.565565
167659,0.001811,-0.038268,0.012264,-56.96942,-83.274817,59.75317
167759,0.002845,-0.035285,0.007943,-57.130444,-83.283197,59.917385
167859,0.000329,-0.037968,0.000625,-57.284948,-83.295876,60.07358
167959,0.002045,-0.043144,0.001928,-57.463668,-83.309463,60.255145
168059,0.014761,-0.042186,0.00419,-57.637673,-83.321599,60.439295
168159,0.031952,-0.027758,0.005366,-57.745648,-83.328706,60.566879
168259,0.041365,-0.018935,0.003719,-57.807545,-83.333914,60.653501
168359,0.044569,-0.015105,0.004145,-57.852919,-83.337758,60.725334
168459,0.039864,-0.017324,0.006882,-57.917355,-83.340958,60.813646
168559,0.032675,-0.03379,0.003604,-58.045952,-83.350747,60.962408
168659,0.025516,-0.044885,0.00551,-58.230224,-83.362923,61.163091
168759,0.020648,-0.048507,0.006736,-58.436145,-83.375515,61.382761
168859,0.019252,-0.040769,0.004923,-58.606118,-83.386599,61.565435
168959,0.014403,-0.029688,-0.001032,-58.717062,-83.397253,61.685886
169059,0.012232,-0.020369,-0.006658,-58.775473,-83.407883,61.752204
169159,0.014355,-0.018048,-0.011145,-58.811313,-83.420031,61.797025
169259,0.02223,-0.016874,-0.017443,-58.821396,-83.434932,61.820463
169359,0.02683,-0.009051,-0.02229,-58.782869,-83.449904,61.797626
169459,0.026576,-0.001628,-0.021174,-58.715381,-83.462136,61.745494
169559,0.014937,0.001244,-0.016635,-58.653752,-83.471298,61.69255
169659,-0.006769,-0.004414,-0.007797,-58.651517,-83.477834,61.686874
169759,-0.029864,-0.010931,-0.002576,-58.703809,-83.483771,61.722765
169859,-0.049889,-0.017793,0.000977,-58.806058,-83.490017,61.797395
169959,-0.064948,-0.020594,-0.002254,-58.920456,-83.498673,61.875572
170059,-0.065045,-0.02125,-0.005116,-59.030272,-83.508923,61.949084
170159,-0.058719,-0.015171,-0.008209,-59.102134,-83.518901,61.98805
170259,-0.051107,0.002679,-0.019732,-59.062248,-83.529299,61.918943
170359,-0.04333,0.017163,-0.026374,-58.937364,-83.538688,61.768783
170459,-0.051313,0.020191,-0.029185,-58.795927,-83.548532,61.59737
170559,-0.05777,0.020138,-0.028368,-58.659865,-83.557958,61.427648
170659,-0.060459,0.019942,-0.027366,-58.528187,-83.566915,61.260795
170759,-0.053199,0.019054,-0.027137,-58.396168,-83.575985,61.097792
170859,-0.040458,0.018669,-0.026807,-58.258764,-83.584963,60.936721
170959,-0.024453,0.016978,-0.027142,-58.118007,-83.594554,60.78151
171059,-0.004786,0.002453,-0.024442,-58.035739,-83.607171,60.696497
171159,0.017582,-0.018729,-0.018999,-58.047177,-83.623522,60.718673
171259,0.034498,-0.038612,-0.013562,-58.150599,-83.643208,60.843153
171359,0.052999,-0.055421,-0.008996,-58.330337,-83.665662,61.055078
171459,0.077526,-0.063929,-0.006748,-58.541166,-83.689453,61.312409
171559,0.094344,-0.068123,-0.006699,-58.763065,-83.714327,61.590558
171659,0.100753,-0.070312,-0.005574,-58.99633,-83.739147,61.883815
171759,0.098364,-0.076183,-0.003543,-59.265249,-83.764519,62.211544
171859,0.092992,-0.074325,0.000576,-59.542504,-83.787106,62.544541
171959,0.090309,-0.077901,0.006808,-59.856582,-83.8074,62.913013
172059,0.100112,-0.084196,0.012742,-60.211936,-83.826246,63.328635
172159,0.124074,-0.096707,0.017072,-60.625154,-83.846089,63.816247
172259,0.155974,-0.111685,0.021805,-61.105082,-83.867245,64.389316
172359,0.191943,-0.121956,0.025634,-61.626044,-83.888672,65.024357
172459,0.220206,-0.120617,0.02647,-62.130474,-83.908625,65.659031
172559,0.234062,-0.109567,0.024837,-62.573624,-83.925838,66.24004
172659,0.232469,-0.092791,0.027985,-62.947372,-83.936551,66.750324
172759,0.225761,-0.085278,0.031513,-63.298505,-83.943134,67.233995
172859,0.22076,-0.083299,0.032981,-63.646931,-83.948122,67.712062
172959,0.221624,-0.081933,0.033257,-63.989035,-83.952308,68.184271
173059,0.232571,-0.086796,0.032297,-64.34633,-83.957891,68.678066
173159,0.250063,-0.10876,0.029316,-64.794631,-83.970041,69.273453
173259,0.273072,-0.138034,0.024161,-65.364259,-83.991358,70.004085
173359,0.288206,-0.157932,0.020595,-66.02065,-84.018376,70.830649
173459,0.292812,-0.156381,0.025113,-66.682404,-84.041625,71.665228
173559,0.28471,-0.141578,0.030996,-67.291238,-84.057441,72.441907
173659,0.270903,-0.124133,0.039713,-67.840065,-84.063957,73.150288
173759,0.255598,-0.11852,0.049979,-68.390625,-84.063056,73.851597
173859,0.253875,-0.106926,0.066986,-68.915525,-84.049928,74.526126
173959,0.254645,-0.121686,0.074836,-69.527834,-84.034856,75.289005
174059,0.262532,-0.13178,0.088052,-70.208052,-84.013732,76.124736
174159,0.277303,-0.146323,0.093644,-70.958662,-83.991236,77.039795
174259,0.273589,-0.186843,0.08281,-71.895117,-83.980584,78.139626
174359,0.256355,-0.216061,0.075017,-72.976067,-83.977184,79.374846
174459,0.246689,-0.211353,0.067314,-74.024081,-83.974816,80.571394
174559,0.239763,-0.198042,0.060312,-74.994654,-83.972042,81.686093
174659,0.240694,-0.194668,0.044314,-75.924145,-83.975698,82.760024
174759,0.249994,-0.196279,0.026413,-76.835115,-83.987711,83.820682
174859,0.257928,-0.202814,0.01014,-77.760577,-84.007839,84.90046
174959,0.263166,-0.219799,-0.003157,-78.765784,-84.03548,86.063397
175059,0.26678,-0.231751,-0.014328,-79.831702,-84.068466,87.289404
175159,0.272985,-0.228913,-0.019364,-80.885505,-84.101645,88.506741
175259,0.275308,-0.212728,-0.025152,-81.855556,-84.134465,89.641158
175359,0.263985,-0.190276,-0.033204,-82.712157,-84.168247,90.654949
175459,0.243436,-0.171523,-0.04079,-83.480446,-84.203557,91.568084
175559,0.215256,-0.159076,-0.046081,-84.200928,-84.239886,92.416887
175659,0.192098,-0.150661,-0.049163,-84.894234,-84.276432,93.224994
175759,0.183546,-0.147776,-0.05059,-85.583959,-84.312653,94.024533
175859,0.187905,-0.153689,-0.051201,-86.313682,-84.348452,94.866734
175959,0.206572,-0.166098,-0.051141,-87.113902,-84.383489,95.790476
176059,0.230394,-0.17134,-0.056724,-87.939747,-84.420537,96.75363
176159,0.2552,-0.171319,-0.063408,-88.761246,-84.460039,97.72664
176259,0.274153,-0.170387,-0.078404,-89.577491,-84.506755,98.705219
176359,0.27188,-0.156681,-0.096669,-90.327618,-84.562625,99.61599
176459,0.271642,-0.145372,-0.107834,-91.026343,-84.623859,100.474912
176559,0.266476,-0.120236,-0.117233,-91.591649,-84.689907,101.196777
176659,0.259826,-0.099717,-0.12393,-92.049363,-84.759563,101.806691
176759,0.249593,-0.096667,-0.128059,-92.50807,-84.831203,102.411652
176859,0.251571,-0.097104,-0.135351,-92.984629,-84.90656,103.03561
176959,0.255176,-0.088523,-0.141938,-93.42098,-84.985523,103.621207
177059,0.258394,-0.07653,-0.152867,-93.795822,-85.070808,104.146845
177159,0.257084,-0.063179,-0.161738,-94.099973,-85.161423,104.600718
177259,0.24898,-0.051444,-0.169385,-94.344874,-85.256719,104.990417
177359,0.238536,-0.034123,-0.17406,-94.487941,-85.355338,105.271886
177459,0.22598,-0.015535,-0.177203,-94.513962,-85.456553,105.428679
177559,0.221851,0.003506,-0.18561,-94.409519,-85.563425,105.452215
177659,0.224562,0.030669,-0.1972,-94.100958,-85.67808,105.272591
177759,0.237955,0.056444,-0.209775,-93.575201,-85.800809,104.882894
177859,0.248152,0.091834,-0.222047,-92.734551,-85.931316,104.183405
177959,0.247605,0.13564,-0.23412,-91.479548,-86.068704,103.068352
178059,0.233983,0.166201,-0.236009,-89.881396,-86.205386,101.601727
178159,0.207133,0.174992,-0.22413,-88.10885,-86.33217,99.945137
178259,0.185251,0.177755,-0.205208,-86.212761,-86.444475,98.152409
178359,0.195541,0.181876,-0.188191,-84.169037,-86.542856,96.217872
178459,0.228322,0.182804,-0.178207,-81.996623,-86.63102,94.173411
178559,0.263419,0.15749,-0.170337,-79.956455,-86.712428,92.281727
178659,0.286922,0.104759,-0.157259,-78.360754,-86.788597,90.848848
178759,0.302419,0.018744,-0.14965,-77.580284,-86.869045,90.241439
178859,0.303844,-0.056694,-0.149277,-77.556981,-86.958345,90.393147
178959,0.303978,-0.101116,-0.160228,-77.996667,-87.059156,91.008527
179059,0.288068,-0.124885,-0.172175,-78.72684,-87.169126,91.905564
179159,0.244297,-0.12872,-0.184929,-79.566917,-87.286107,92.887426
179259,0.168643,-0.124134,-0.188066,-80.469956,-87.403722,93.88882
179359,0.075511,-0.11771,-0.178969,-81.451737,-87.514892,94.915521
179459,-0.015293,-0.114895,-0.16503,-82.567235,-87.617139,96.023894
179559,-0.108248,-0.115716,-0.153038,-83.867511,-87.711665,97.263806
179659,-0.197586,-0.125628,-0.15072,-85.480606,-87.804149,98.765463
179759,-0.284434,-0.124355,-0.146861,-87.265306,-87.892664,100.388949
179859,-0.345274,-0.106853,-0.138321,-88.954682,-87.974122,101.882069
179959,-0.384598,-0.08917,-0.121666,-90.502483,-88.044479,103.210902
180059,-0.391228,-0.084707,-0.102035,-92.075619,-88.102402,104.561224
180159,-0.358883,-0.083133,-0.081765,-93.675236,-88.147521,105.956533
180259,-0.314884,-0.096777,-0.062387,-95.540938,-88.179566,107.643246
180359,-0.263115,-0.111354,-0.045883,-97.668088,-88.199363,109.621183
180459,-0.217833,-0.119786,-0.030358,-99.91974,-88.207229,111.74962
180559,-0.194755,-0.1309,-0.025344,-102.35685,-88.208298,114.076824
180659,-0.174536,-0.138985,-0.022075,-104.910943,-88.203271,116.532658
180759,-0.165236,-0.125428,-0.017381,-107.181937,-88.194567,118.71059
180859,-0.173281,-0.103665,-0.021625,-109.087742,-88.189566,120.518547
180959,-0.187722,-0.096435,-0.028623,-110.913926,-88.187907,122.238565
181059,-0.20873,-0.10256,-0.034663,-112.892449,-88.186379,124.098956
181159,-0.231251,-0.111292,-0.036707,-115.037584,-88.181823,126.113136
181259,-0.250095,-0.114108,-0.037223,-117.230121,-88.174474,128.163945
181359,-0.268419,-0.104431,-0.036792,-119.258796,-88.167206,130.040313
181459,-0.273959,-0.095022,-0.031539,-121.081429,-88.158105,131.707365
181559,-0.27315,-0.078603,-0.027833,-122.604473,-88.150667,133.075144
181659,-0.265933,-0.058056,-0.024341,-123.774742,-88.147015,134.094106
181759,-0.261613,-0.04074,-0.020621,-124.648479,-88.146622,134.818858
181859,-0.255864,-0.03645,-0.018177,-125.43107,-88.146171,135.455713
181959,-0.244764,-0.03635,-0.018239,-126.205438,-88.145511,136.090704
182059,-0.231306,-0.034663,-0.016166,-126.924848,-88.144209,136.678424
182159,-0.222415,-0.035965,-0.009294,-127.581612,-88.139096,137.208564
182259,-0.220995,-0.037546,0.002758,-128.124743,-88.127797,137.625827
182359,-0.214858,-0.046076,0.014371,-128.648043,-88.108128,138.026771
182459,-0.202733,-0.068221,0.029141,-129.288699,-88.073777,138.552095
182559,-0.179271,-0.092502,0.036755,-130.124352,-88.026975,139.285995
182659,-0.143606,-0.107584,0.041985,-131.032288,-87.971926,140.112693
182759,-0.102135,-0.108988,0.047168,-131.832464,-87.91373,140.85537
182859,-0.070024,-0.084842,0.048549,-132.28432,-87.863976,141.26793
182959,-0.045975,-0.050226,0.049133,-132.311919,-87.827316,141.269738
183059,-0.034836,-0.024874,0.05164,-132.02743,-87.799408,140.965622
183159,-0.025652,-0.016257,0.054177,-131.624871,-87.773713,140.548614
183259,-0.011067,-0.004292,0.06048,-131.030956,-87.749785,139.948465
183359,0.00485,0.037688,0.070144,-129.885821,-87.737001,138.805794
183459,0.016689,0.096794,0.085062,-127.942639,-87.737732,136.871245
183559,0.014342,0.156593,0.099888,-125.169166,-87.748995,134.104433
183659,-0.002247,0.189814,0.110512,-121.889274,-87.760002,130.821331
183759,-0.017629,0.201655,0.115726,-118.406948,-87.764284,127.326847
183859,-0.0213,0.191294,0.118653,-115.044823,-87.756292,123.950559
183959,-0.011371,0.171059,0.123705,-111.956386,-87.73365,120.853839
184059,0.01025,0.163346,0.130278,-108.997662,-87.699576,117.899283
184159,0.022722,0.185926,0.14241,-105.773019,-87.656467,114.685677
184259,0.010688,0.239821,0.153841,-101.924023,-87.606475,110.84019
184359,-0.037759,0.305688,0.162743,-97.38542,-87.546338,106.27656
184459,-0.089828,0.347051,0.16446,-92.581007,-87.471821,101.416795
184559,-0.130774,0.36298,0.160217,-87.903485,-87.382651,96.660277
184659,-0.153407,0.377032,0.153183,-83.397048,-87.280162,92.061705
184759,-0.139987,0.420164,0.145117,-78.728611,-87.16165,87.308242
184859,-0.097567,0.496787,0.138642,-73.607486,-87.017,82.125328
184959,-0.049162,0.590761,0.132866,-68.037376,-86.833823,76.51981
185059,-0.010332,0.689929,0.135975,-62.258078,-86.5962,70.725936
185159,0.026104,0.771246,0.140878,-56.673656,-86.300696,65.146647
185259,0.052271,0.822026,0.143443,-51.626333,-85.956199,60.118716
185359,0.054223,0.837518,0.142025,-47.304215,-85.580048,55.816868
185459,0.013766,0.779103,0.133092,-43.929868,-85.210681,52.440443
185559,-0.083836,0.621828,0.111917,-41.663141,-84.903026,50.117972
185659,-0.206479,0.394994,0.070805,-40.42883,-84.703134,48.760698
185759,-0.276491,0.178295,0.021091,-39.928824,-84.614846,48.100324
185859,-0.2583,0.00834,-0.029501,-39.855754,-84.6197,47.879193
185959,-0.193911,-0.117675,-0.06165,-40.09003,-84.691842,48.003804
186059,-0.091011,-0.235418,-0.07557,-40.684466,-84.820505,48.549258
186159,0.01844,-0.338247,-0.09012,-41.617599,-84.998365,49.497558
186259,0.138965,-0.391339,-0.103089,-42.730548,-85.202221,50.695346
186359,0.261736,-0.399337,-0.117717,-43.839024,-85.413109,51.95884
186459,0.353742,-0.353997,-0.126975,-44.720054,-85.607238,53.046688
186559,0.425537,-0.281769,-0.126093,-45.25492,-85.770642,53.828361
186659,0.488745,-0.18159,-0.106854,-45.340553,-85.885494,54.195757
186759,0.523713,-0.06534,-0.071733,-44.949261,-85.93917,54.105039
186859,0.515434,0.0276,-0.035401,-44.238871,-85.940254,53.689654
186959,0.465511,0.092338,0.013531,-43.483902,-85.894793,53.200877
187059,0.384402,0.135795,0.080944,-42.944715,-85.804353,52.881806
187159,0.291079,0.155992,0.15156,-42.768064,-85.677796,52.872613
187259,0.19466,0.157828,0.214309,-42.980119,-85.526061,53.197868
187359,0.125614,0.139255,0.257071,-43.523873,-85.365213,53.816264
187459,0.061754,0.084195,0.25904,-44.337516,-85.225845,54.668886
187559,-0.011386,0.003349,0.212506,-45.310519,-85.137171,55.639524
187659,-0.068507,-0.090076,0.133855,-46.369486,-85.116783,56.663671
187759,-0.070436,-0.155576,0.068136,-47.446108,-85.147973,57.704418
187859,-0.040462,-0.195586,0.021699,-48.513555,-85.212645,58.753116
187959,0.00299,-0.232256,-0.017603,-49.601501,-85.306426,59.847242
188059,0.059418,-0.246353,-0.051966,-50.623015,-85.418787,60.906992
188159,0.109775,-0.225625,-0.069958,-51.465843,-85.53024,61.816273
188259,0.131279,-0.180848,-0.076221,-52.045958,-85.627673,62.474284
188359,0.13516,-0.139229,-0.071134,-52.422545,-85.70772,62.930331
188459,0.139375,-0.118285,-0.068912,-52.693193,-85.779224,63.282522
188559,0.13342,-0.12277,-0.063513,-53.032034,-85.849641,63.699629
188659,0.126711,-0.139835,-0.050259,-53.561525,-85.919552,64.303983
188759,0.117724,-0.164722,-0.03543,-54.352085,-85.990445,65.164837
188859,0.095447,-0.17117,-0.024262,-55.282466,-86.057277,66.152977
188959,0.067671,-0.175801,-0.017343,-56.327244,-86.121082,67.239747
189059,0.043392,-0.193835,-0.009762,-57.587524,-86.185316,68.528475
189159,0.032434,-0.214251,-0.007099,-59.062326,-86.252235,70.025798
189259,0.026494,-0.221065,-0.005663,-60.65247,-86.317651,71.635181
189359,0.024913,-0.228549,-0.003463,-62.368795,-86.380886,73.369979
189459,0.02746,-0.241751,-0.007525,-64.235755,-86.446043,75.257049
189559,0.034519,-0.236552,-0.019391,-66.075709,-86.512208,77.120983
189659,0.043463,-0.206994,-0.031517,-67.673008,-86.574598,78.746829
189759,0.046715,-0.164184,-0.04558,-68.887223,-86.632929,79.990685
189859,0.045739,-0.121274,-0.062348,-69.687319,-86.690201,80.819086
189959,0.052572,-0.098277,-0.07328,-70.25563,-86.748215,81.419195
190059,0.060075,-0.085711,-0.080661,-70.693246,-86.80745,81.892672
190159,0.050613,-0.074605,-0.084253,-71.030793,-86.8663,82.260469
190259,0.02772,-0.053171,-0.081585,-71.18728,-86.919579,82.433782
190359,-0.00302,-0.04121,-0.075237,-71.266307,-86.96713,82.511876
190459,-0.030201,-0.059964,-0.077677,-71.550533,-87.01937,82.779849
190559,-0.014435,-0.081407,-0.081754,-72.049997,-87.077523,83.272373
190659,0.016496,-0.079676,-0.097318,-72.479572,-87.143605,83.712632
190759,0.098157,-0.053157,-0.104357,-72.560938,-87.208797,83.851071
190859,0.198045,-0.019132,-0.100584,-72.214268,-87.265939,83.618259
190959,0.247824,0.016601,-0.091482,-71.446397,-87.311503,82.992333
191059,0.201712,0.065413,-0.078385,-70.164535,-87.34011,81.825426
191159,0.082484,0.123272,-0.069634,-68.292039,-87.350614,79.998889
191259,-0.048593,0.2428,-0.063768,-65.160973,-87.327137,76.837243
191359,-0.125113,0.431028,-0.076137,-60.079098,-87.249781,71.678595
191459,-0.138759,0.589051,-0.128029,-53.499092,-87.123198,65.011753
191559,-0.119243,0.652941,-0.193763,-46.547352,-86.964263,57.983048
191659,-0.078767,0.696159,-0.225085,-39.82446,-86.757529,51.205566
191759,-0.03971,0.759857,-0.211925,-33.729678,-86.476955,45.078056
191859,0.001044,0.773979,-0.177555,-28.763655,-86.145946,40.103
191959,-0.018397,0.597155,-0.145671,-25.438166,-85.874985,36.759495
192059,-0.126649,0.255597,-0.104391,-23.903282,-85.762792,35.148341
192159,-0.227184,-0.117333,-0.037077,-24.117813,-85.829068,35.23349
192259,-0.224967,-0.36848,-0.006917,-25.414138,-86.018958,36.404418
192359,-0.123446,-0.495396,-0.02742,-27.115624,-86.27723,38.039403
192459,0.012742,-0.4987,-0.061582,-28.713189,-86.543187,39.647966
192559,0.076543,-0.399735,-0.09188,-29.760541,-86.765782,40.741591
192659,0.05309,-0.233543,-0.102289,-29.973952,-86.908065,40.986357
192759,-0.033565,-0.013354,-0.075333,-29.32092,-86.933138,40.313691
192859,-0.088595,0.161823,-0.035158,-28.178963,-86.858633,39.119789
192959,-0.112853,0.197501,-0.013487,-27.136766,-86.75916,38.01178
193059,-0.131676,0.140557,0.020147,-26.716742,-86.679407,37.516058
193159,-0.153773,0.072066,0.073365,-27.090147,-86.620955,37.802398
193259,-0.19907,0.004304,0.127678,-28.242344,-86.582315,38.842909
193359,-0.242866,-0.062913,0.16194,-29.996413,-86.566288,40.461256
193459,-0.234721,-0.117856,0.167679,-32.05291,-86.572401,42.387253
193559,-0.192753,-0.15324,0.147002,-34.116512,-86.597887,44.344427
193659,-0.139256,-0.181115,0.109725,-36.043669,-86.644715,46.195551
193759,-0.097847,-0.186801,0.075055,-37.76074,-86.702655,47.859906
193859,-0.080591,-0.175361,0.051906,-39.271329,-86.761055,49.327252
193959,-0.083517,-0.160831,0.042098,-40.661863,-86.81462,50.6726
194059,-0.097692,-0.137072,0.043689,-41.951481,-86.855642,51.908687
194159,-0.110214,-0.106574,0.043335,-43.057291,-86.88253,52.953471
194259,-0.127019,-0.073059,0.040481,-43.921829,-86.89566,53.746968
194359,-0.147822,-0.041557,0.046411,-44.614946,-86.892926,54.356854
194459,-0.166506,-0.031168,0.057121,-45.319123,-86.881255,54.967101
194559,-0.180731,-0.038712,0.069296,-46.172061,-86.867161,55.718176
194659,-0.188885,-0.050384,0.078856,-47.17961,-86.853007,56.619424
194759,-0.192774,-0.068627,0.089888,-48.398439,-86.840237,57.730055
194859,-0.187365,-0.102773,0.097469,-49.92482,-86.835515,59.15182
194959,-0.166529,-0.118962,0.103981,-51.606939,-86.831577,60.741524
195059,-0.129078,-0.126245,0.106773,-53.339695,-86.826305,62.403444
195159,-0.089154,-0.13114,0.108859,-55.095975,-86.818915,64.111846
195259,-0.042609,-0.135096,0.108843,-56.849528,-86.809913,65.844244
195359,-0.000142,-0.128744,0.104377,-58.487439,-86.798297,67.48521
195459,0.029555,-0.125945,0.101009,-60.052658,-86.784987,69.070437
195559,0.044422,-0.120432,0.094291,-61.512921,-86.771179,70.559099
195659,0.052343,-0.1108,0.093785,-62.865519,-86.753024,71.944495
195759,0.065388,-0.075075,0.101798,-63.907241,-86.719983,73.026038
195859,0.081745,-0.031525,0.11382,-64.579291,-86.669,73.746729
195959,0.090257,-0.008744,0.125051,-65.070446,-86.606252,74.291146
196059,0.10218,-0.00775,0.124576,-65.524964,-86.54328,74.805744
196159,0.113561,-0.016329,0.116835,-65.998623,-86.486146,75.346091
196259,0.130706,-0.006144,0.109035,-66.33097,-86.430521,75.754737
196359,0.151715,0.045172,0.105393,-66.200913,-86.364923,75.712161
196459,0.167528,0.11225,0.109842,-65.539095,-86.28125,75.145811
196559,0.170318,0.176586,0.12886,-64.471812,-86.17156,74.174663
196659,0.150356,0.220006,0.145553,-63.212003,-86.041023,72.998954
196759,0.124531,0.25358,0.165568,-61.882601,-85.889663,71.738456
196859,0.092307,0.282008,0.180294,-60.528831,-85.721037,70.434768
196959,0.053683,0.299326,0.189134,-59.221378,-85.54091,69.155052
197059,0.025977,0.321198,0.185223,-57.884318,-85.353992,67.829405
197159,0.035132,0.362551,0.170393,-56.355747,-85.158805,66.31651
197259,0.07569,0.420706,0.149726,-54.536047,-84.950907,64.534293
197359,0.129143,0.509359,0.130628,-52.319484,-84.716243,62.383762
197459,0.198371,0.611114,0.12044,-49.752014,-84.44154,59.91973
197559,0.233794,0.666321,0.117219,-47.165924,-84.137024,57.456186
197659,0.237036,0.668586,0.112703,-44.805767,-83.823174,55.220339
197759,0.21763,0.687919,0.111475,-42.611341,-83.492758,53.138701
197859,0.197524,0.700805,0.124665,-40.645231,-83.143748,51.273934
197959,0.170673,0.646983,0.143147,-39.101012,-82.805297,49.817394
198059,0.132671,0.495899,0.126125,-38.060537,-82.536912,48.845803
198159,0.095825,0.248035,0.071924,-37.56902,-82.398401,48.406181
198259,0.080502,-0.073619,0.004411,-37.708886,-82.429524,48.594579
198359,0.063073,-0.372388,-0.053577,-38.469627,-82.61587,49.399035
198459,0.021582,-0.564239,-0.104114,-39.674725,-82.904119,50.626999
198559,-0.015255,-0.611489,-0.137657,-41.031514,-83.221981,51.985686
198659,-0.006637,-0.55039,-0.153602,-42.248842,-83.515992,53.208064
198759,0.055706,-0.428296,-0.159016,-43.083931,-83.758062,54.081111
198859,0.149397,-0.248155,-0.163561,-43.242379,-83.925734,54.327228
198959,0.246463,-0.036521,-0.158021,-42.585063,-84.002508,53.808891
199059,0.319991,0.11268,-0.141763,-41.392397,-84.008577,52.79465
199159,0.357853,0.182239,-0.119116,-40.026825,-83.973568,51.628322
199259,0.371779,0.193153,-0.092359,-38.744799,-83.921162,50.553928
199359,0.372243,0.192245,-0.050335,-37.663866,-83.851954,49.681916
199459,0.36275,0.214022,0.002598,-36.764966,-83.752926,48.98739
199559,0.316516,0.205371,0.037171,-36.08812,-83.645215,48.48947
199659,0.208364,0.143297,0.041336,-35.693628,-83.564552,48.213216
199759,0.096083,0.024142,0.017865,-35.624728,-83.54721,48.199847
199859,0.00503,-0.100613,-0.003169,-35.892029,-83.595025,48.472301
199959,-0.03955,-0.18606,-0.020447,-36.378242,-83.688084,48.939279
200059,-0.061028,-0.253237,-0.041578,-37.014863,-83.818766,49.545079
200159,-0.074175,-0.305663,-0.067296,-37.749022,-83.981473,50.241229
200259,-0.074576,-0.326695,-0.0929,-38.483677,-84.161746,50.93743
200359,-0.075727,-0.305058,-0.111634,-39.101006,-84.338201,51.514827
200459,-0.079679,-0.26204,-0.132232,-39.500603,-84.502515,51.871012
200559,-0.086714,-0.217666,-0.150596,-39.6668,-84.653748,51.988604
200659,-0.089004,-0.200706,-0.157281,-39.741908,-84.799914,52.01337
200759,-0.072087,-0.200897,-0.143782,-39.878299,-84.941185,52.109385
200859,-0.056638,-0.207074,-0.113248,-40.194818,-85.073845,52.395071
200959,-0.04743,-0.205109,-0.07977,-40.688059,-85.19299,52.863352
201059,-0.051358,-0.208852,-0.041615,-41.425983,-85.298917,53.574817
201159,-0.064236,-0.220168,-0.007575,-42.438974,-85.39567,54.554744
201259,-0.075139,-0.240113,0.023531,-43.764987,-85.486893,55.842282
201359,-0.091197,-0.242038,0.042841,-45.264874,-85.568537,57.294838
201459,-0.102743,-0.215875,0.051876,-46.729428,-85.633025,58.705176
201559,-0.121977,-0.162724,0.054633,-47.960976,-85.673089,59.870685
201659,-0.146362,-0.102443,0.052462,-48.870522,-85.689438,60.699223
201759,-0.16257,-0.054251,0.047155,-49.489821,-85.689147,61.227369
201859,-0.175652,-0.017603,0.04385,-49.887187,-85.676314,61.525443
201959,-0.166023,0.036365,0.042565,-49.958708,-85.643998,61.502276
202059,-0.142978,0.087442,0.032673,-49.678487,-85.597086,61.139579
202159,-0.113678,0.109204,0.013795,-49.176666,-85.550052,60.571432
202259,-0.084571,0.087112,-0.008133,-48.685441,-85.520391,60.030608
202359,-0.055895,0.069108,-0.01618,-48.244108,-85.500641,59.556286
202459,-0.033025,0.041509,-0.01312,-47.958234,-85.489879,59.251032
202559,-0.012017,0.014397,-0.012169,-47.813195,-85.48901,59.099114
202659,0.02578,-0.00421,-0.004143,-47.787258,-85.491852,59.088381
202759,0.094034,-0.001256,0.007633,-47.765351,-85.488524,59.120908
202859,0.175538,0.039111,0.011213,-47.4995,-85.468057,58.955567
202959,0.232428,0.108793,0.007298,-46.818523,-85.421935,58.40647
203059,0.208038,0.176761,0.000847,-45.786516,-85.350896,57.491138
203159,0.108878,0.232723,-0.001583,-44.555165,-85.256772,56.318681
203259,-0.054995,0.28695,-0.016721,-43.137186,-85.144053,54.86455
203359,-0.19093,0.378095,-0.060066,-41.250549,-85.005882,52.861588
203459,-0.228275,0.492729,-0.104445,-38.812682,-84.827422,50.283265
203559,-0.228166,0.582964,-0.147188,-36.01047,-84.612596,47.338313
203659,-0.242229,0.627693,-0.174986,-33.164164,-84.372738,44.339864
203759,-0.319037,0.534021,-0.194578,-30.778562,-84.171664,41.759055
203859,-0.415678,0.281668,-0.206776,-29.224643,-84.090802,39.957987
203959,-0.46106,-0.055417,-0.203919,-28.635438,-84.174961,39.100564
204059,-0.46573,-0.341953,-0.201764,-28.823171,-84.402336,39.021491
204159,-0.433993,-0.48739,-0.205323,-29.411822,-84.703639,39.363453
204259,-0.370071,-0.468705,-0.1844,-30.07616,-84.989356,39.81802
204359,-0.299066,-0.332439,-0.147891,-30.505508,-85.196694,40.077399
204459,-0.242061,-0.132071,-0.102656,-30.486924,-85.29186,39.92002
204559,-0.202299,0.054103,-0.074769,-29.954239,-85.28673,39.269668
204659,-0.14689,0.178779,-0.050104,-29.120373,-85.211838,38.348915
204759,-0.089741,0.233402,-0.018106,-28.297242,-85.099601,37.47167
204859,-0.062975,0.214876,0.013127,-27.734711,-84.987457,36.871243
204959,-0.096793,0.154177,0.048786,-27.599004,-84.896339,36.679758
205059,-0.151844,0.072541,0.096688,-28.008992,-84.83387,37.004467
205159,-0.226615,-0.020545,0.128172,-28.907189,-84.809413,37.776388
205259,-0.267595,-0.095082,0.125589,-30.040658,-84.821681,38.760975
205359,-0.260608,-0.136236,0.096272,-31.15017,-84.861088,39.725488
205459,-0.217629,-0.157391,0.058102,-32.114621,-84.920731,40.56901
205559,-0.168082,-0.165309,0.022596,-32.904627,-84.993985,41.265827
205659,-0.130951,-0.174657,-0.010476,-33.545572,-85.081337,41.834296
205759,-0.110608,-0.181345,-0.036268,-34.076223,-85.179592,42.303696
205859,-0.103873,-0.187831,-0.048124,-34.580704,-85.28439,42.75064
205959,-0.103806,-0.18526,-0.05107,-35.078421,-85.388618,43.190775
206059,-0.111354,-0.180851,-0.043404,-35.628295,-85.48791,43.678832
206159,-0.125151,-0.184838,-0.034586,-36.279456,-85.585665,44.26049
206259,-0.134912,-0.191953,-0.023958,-37.060856,-85.682468,44.96708
206359,-0.146113,-0.196033,-0.011915,-37.975868,-85.776105,45.80113
206459,-0.153871,-0.191351,0.000325,-38.986929,-85.862212,46.726931
206559,-0.1545,-0.199425,0.007886,-40.127975,-85.947842,47.782587
206659,-0.149354,-0.222348,0.023439,-41.534542,-86.035892,49.107256
206759,-0.136607,-0.245078,0.027577,-43.151455,-86.129507,50.649939
206859,-0.119457,-0.273427,0.028108,-45.012018,-86.231355,52.446483
206959,-0.096705,-0.305093,0.020704,-47.120401,-86.344658,54.504209
207059,-0.064219,-0.304939,0.008892,-49.266974,-86.457937,56.618591
207159,-0.029691,-0.285878,-0.000404,-51.332613,-86.563391,58.67146
207259,0.003248,-0.247294,-0.007017,-53.163255,-86.653995,60.507615
207359,0.035029,-0.196111,-0.005702,-54.662231,-86.723511,62.029639
207459,0.064312,-0.146331,0.005077,-55.848802,-86.769603,63.255472
207559,0.09288,-0.103077,0.025773,-56.796636,-86.790767,64.258544
207659,0.097373,-0.059342,0.038091,-57.44293,-86.791606,64.962172
207759,0.083261,-0.009634,0.053097,-57.748944,-86.769598,65.316892
207859,0.083828,0.032629,0.061142,-57.732547,-86.730727,65.349019
207959,0.116739,0.061082,0.069212,-57.501804,-86.679234,65.185335
208059,0.152288,0.089492,0.076931,-57.06539,-86.615168,64.836022
208159,0.161147,0.134917,0.090736,-56.351179,-86.529995,64.213475
208259,0.143719,0.215216,0.113332,-55.189085,-86.407625,63.132123
208359,0.114263,0.300277,0.142012,-53.66244,-86.241999,61.66839
208459,0.077113,0.356054,0.167246,-52.045379,-86.043053,60.092402
208559,0.046981,0.384706,0.177389,-50.474997,-85.826459,58.545511
208659,0.035601,0.42978,0.176488,-48.80738,-85.590544,56.894135
208759,0.059276,0.525013,0.175137,-46.799463,-85.314707,54.914432
208859,0.126661,0.64412,0.185078,-44.473147,-84.981319,52.653082
208959,0.216373,0.703906,0.188679,-42.156193,-84.614113,50.45154
209059,0.269538,0.733226,0.189093,-39.995243,-84.22657,48.435988
209159,0.269967,0.789937,0.209951,-38.000534,-83.799405,46.586391
209259,0.234087,0.778921,0.238382,-36.420387,-83.361664,45.131763
209359,0.137097,0.604792,0.246741,-35.58271,-82.998635,44.367732
209459,-0.011684,0.30911,0.200923,-35.504123,-82.788176,44.282279
209559,-0.072607,0.015995,0.128248,-35.963464,-82.738535,44.703849
209659,-0.028776,-0.176618,0.060145,-36.661824,-82.800488,45.391654
209759,0.06635,-0.29003,-0.00268,-37.404781,-82.934957,46.179176
209859,0.119663,-0.360061,-0.051913,-38.168529,-83.117152,47.018139
209959,0.142028,-0.388369,-0.08844,-38.911222,-83.323718,47.848455
210059,0.158826,-0.361205,-0.111996,-39.515265,-83.525562,48.548539
210159,0.204106,-0.281891,-0.125288,-39.816841,-83.696596,48.970112
210259,0.283763,-0.150348,-0.13017,-39.624437,-83.811348,48.940549
210359,0.37483,0.023631,-0.121306,-38.824053,-83.845582,48.351947
210459,0.432869,0.199396,-0.097489,-37.510524,-83.790985,47.280633
210559,0.463181,0.342181,-0.053965,-35.946281,-83.652984,45.97437
210659,0.466461,0.409445,-0.00415,-34.456734,-83.463259,44.744751
210759,0.428195,0.401951,0.048477,-33.29989,-83.257161,43.827517
210859,0.350931,0.349055,0.095583,-32.569407,-83.060132,43.294729
210959,0.293506,0.314416,0.135134,-32.144269,-82.86714,43.036225
211059,0.204682,0.26641,0.137312,-31.909075,-82.69667,42.917778
211159,0.10419,0.209294,0.094674,-31.711782,-82.566874,42.779449
211259,0.056405,0.13727,0.04279,-31.519068,-82.487771,42.618091
211359,0.053554,0.064438,0.002468,-31.346519,-82.456262,42.475406
211459,0.071425,-0.01465,-0.031653,-31.215971,-82.473573,42.385417
211559,0.08473,-0.086459,-0.059647,-31.134568,-82.534353,42.352695
211659,0.0935,-0.137758,-0.085161,-31.06758,-82.627828,42.339583
211759,0.097753,-0.146381,-0.103983,-30.944535,-82.731068,42.272415
211859,0.091624,-0.131144,-0.115088,-30.743186,-82.830027,42.122795
211959,0.091294,-0.116258,-0.121789,-30.475459,-82.923498,41.906124
212059,0.092636,-0.094348,-0.116001,-30.172276,-83.004303,41.654545
212159,0.089985,-0.084968,-0.096977,-29.919911,-83.07483,41.452671
212259,0.073838,-0.111387,-0.07643,-29.819884,-83.152535,41.394956
212359,0.047214,-0.15986,-0.055718,-29.937,-83.248403,41.540566
212459,0.02257,-0.198738,-0.035117,-30.255933,-83.357549,41.87513
212559,-0.00294,-0.241957,-0.01506,-30.797644,-83.481876,42.419154
212659,-0.033287,-0.267912,0.001558,-31.519962,-83.61328,43.127296
212759,-0.050173,-0.283864,0.016267,-32.391676,-83.746821,43.97583
212859,-0.053984,-0.282059,0.02508,-33.336991,-83.875206,44.895986
212959,-0.046114,-0.265874,0.02863,-34.283662,-83.993042,45.821829
213059,-0.029476,-0.254747,0.032079,-35.237796,-84.102817,46.764568
213159,-0.018552,-0.233412,0.027891,-36.130952,-84.20242,47.652127
213259,-0.003166,-0.201583,0.020458,-36.902076,-84.288528,48.425751
213359,0.006372,-0.174458,0.008834,-37.541235,-84.365285,49.072144
213459,0.002546,-0.155487,-0.007993,-38.053176,-84.438678,49.588427
213559,-0.00957,-0.145209,-0.02622,-38.462339,-84.513466,49.994415
213659,-0.019606,-0.13067,-0.041423,-38.761595,-84.586896,50.284173
213759,-0.022305,-0.110395,-0.052352,-38.940185,-84.655047,50.451146
213859,-0.012242,-0.084387,-0.061553,-38.971587,-84.71485,50.47607
213959,0.000749,-0.05763,-0.065279,-38.87286,-84.764024,50.377788
214059,0.020986,-0.04997,-0.062647,-38.743515,-84.808772,50.260411
214159,0.026645,-0.064317,-0.056172,-38.698303,-84.857561,50.230776
214259,0.044593,-0.080779,-0.049339,-38.742985,-84.911229,50.301719
214359,0.08052,-0.096189,-0.045352,-38.851842,-84.970307,50.457746
214459,0.147157,-0.087434,-0.043792,-38.897823,-85.024857,50.588969
214559,0.213892,-0.042201,-0.036506,-38.756984,-85.056552,50.571041
214659,0.24686,0.019206,-0.026507,-38.394034,-85.057089,50.349133
214759,0.239838,0.083245,-0.026316,-37.775686,-85.028431,49.86683
214859,0.198584,0.164136,-0.033152,-36.833041,-84.964634,49.035233
214959,0.129692,0.303991,-0.045232,-35.367823,-84.838593,47.639241
215059,0.057312,0.469785,-0.071323,-33.312987,-84.638755,45.609136
215159,0.01978,0.578915,-0.100199,-30.951732,-84.387744,43.248854
215259,0.035707,0.606579,-0.125032,-28.590983,-84.121007,40.897203
215359,0.039771,0.565134,-0.145668,-26.435317,-83.871813,38.753013
215459,0.034771,0.452327,-0.170123,-24.579605,-83.679412,36.906778
215559,-0.001334,0.280701,-0.181617,-23.1409,-83.574065,35.458788
215659,-0.054316,0.066842,-0.172518,-22.226655,-83.576608,34.50787
215759,-0.06491,-0.13762,-0.158482,-21.770315,-83.683583,34.011692
215859,-0.047668,-0.302731,-0.14891,-21.655128,-83.876212,33.868766
215959,-0.041558,-0.393889,-0.146057,-21.728339,-84.116806,33.918857
216059,-0.05851,-0.365054,-0.14173,-21.777564,-84.341146,33.935059
216159,-0.117072,-0.257014,-0.118496,-21.75244,-84.503068,33.842842
216259,-0.197247,-0.115184,-0.07731,-21.684196,-84.580778,33.661183
216359,-0.269821,0.013257,-0.030949,-21.629151,-84.580311,33.451025
216459,-0.296566,0.07501,0.003871,-21.648024,-84.539654,33.299716
216559,-0.276037,0.033397,0.033074,-21.909802,-84.515041,33.404231
216659,-0.232992,-0.028418,0.064175,-22.456524,-84.516495,33.819775
216759,-0.166641,-0.084196,0.096533,-23.27492,-84.539779,34.546413
216859,-0.125054,-0.103117,0.119097,-24.24713,-84.566743,35.451465
216959,-0.093804,-0.107562,0.125926,-25.259935,-84.592942,36.415235
217059,-0.063255,-0.126125,0.109456,-26.224937,-84.631299,37.348515
217159,-0.034752,-0.165636,0.082686,-27.151592,-84.695371,38.259602
217259,-0.016731,-0.200502,0.051773,-28.021935,-84.784053,39.124394
217359,-0.012286,-0.208711,0.033569,-28.842742,-84.880678,39.941878
217459,-0.021749,-0.201638,0.021643,-29.609524,-84.976081,40.699558
217559,-0.045427,-0.189654,0.015791,-30.344969,-85.066332,41.412059
217659,-0.077082,-0.16591,0.009278,-31.004502,-85.146032,42.030076
217759,-0.113052,-0.138542,-0.000552,-31.549784,-85.214706,42.512688
217859,-0.140957,-0.112111,-0.012894,-31.955812,-85.273898,42.839476
217959,-0.150931,-0.109916,-0.017481,-32.34111,-85.333246,43.139703
218059,-0.143739,-0.126071,-0.015038,-32.80774,-85.399461,43.525634
218159,-0.130824,-0.157057,-0.007764,-33.446487,-85.47796,44.091614
218259,-0.113477,-0.191891,0.001091,-34.295021,-85.569604,44.877926
218359,-0.098908,-0.20879,0.01154,-35.307615,-85.664763,45.83705
218459,-0.087837,-0.214869,0.018087,-36.426279,-85.759158,46.908784
218559,-0.077589,-0.220971,0.022687,-37.646463,-85.853097,48.088066
218659,-0.071481,-0.218738,0.013428,-38.848225,-85.947474,49.252245
218759,-0.060419,-0.215944,0.00223,-40.013124,-86.042959,50.385689
218859,-0.047535,-0.215449,-0.005847,-41.171942,-86.139623,51.520305
218959,-0.023871,-0.202358,-0.012717,-42.253892,-86.231776,52.591343
219059,0.007257,-0.172727,-0.011015,-43.200893,-86.309514,53.544915
219159,0.045371,-0.136901,-0.005519,-43.975962,-86.369259,54.348012
219259,0.092295,-0.095717,0.003642,-44.544246,-86.407816,54.970809
219359,0.138576,-0.057949,0.019957,-44.958379,-86.424062,55.465704
219459,0.163999,-0.022941,0.038568,-45.253056,-86.418382,55.855502
219559,0.166408,0.012296,0.050124,-45.38953,-86.393687,56.088176
219659,0.147693,0.039483,0.058333,-45.410733,-86.354675,56.194612
219759,0.140683,0.050561,0.061874,-45.385877,-86.309757,56.250875
219859,0.150233,0.042818,0.063848,-45.415174,-86.267142,56.36689
219959,0.170479,0.0376,0.076058,-45.537261,-86.221616,56.587528
220059,0.189503,0.065939,0.097732,-45.599971,-86.155816,56.759596
220159,0.186644,0.144889,0.122611,-45.335056,-86.048133,56.601656
220259,0.149725,0.236056,0.150311,-44.741869,-85.89222,56.093402
220359,0.087335,0.303225,0.174491,-43.99839,-85.698704,55.398497
220459,0.028188,0.322267,0.186734,-43.319139,-85.491851,54.73384
220559,-0.006222,0.320844,0.187489,-42.728056,-85.284773,54.13767
220659,-0.009947,0.323537,0.172062,-42.100152,-85.082037,53.502231
220759,0.027033,0.375066,0.154669,-41.200138,-84.863162,52.614704
220859,0.088661,0.48465,0.146858,-39.872073,-84.597967,51.33244
220959,0.149094,0.604693,0.15662,-38.247501,-84.272837,49.786438
221059,0.1836,0.684092,0.173769,-36.593203,-83.901399,48.229491
221159,0.169106,0.738783,0.190676,-35.043294,-83.494507,46.768089
221259,0.12168,0.811393,0.222622,-33.633231,-83.038919,45.418891
221359,0.082013,0.829677,0.253942,-32.48837,-82.561387,44.312752
221459,0.034905,0.711573,0.253161,-31.759507,-82.139308,43.597972
221559,-0.034898,0.46222,0.207755,-31.503981,-81.851866,43.320179
221659,-0.086632,0.195868,0.138347,-31.606724,-81.715367,43.374266
221759,-0.069181,-0.013841,0.078943,-31.931296,-81.699024,43.662632
221859,-0.044084,-0.175537,0.035147,-32.435506,-81.774237,44.147021
221959,-0.032028,-0.344172,-0.004166,-33.179588,-81.942151,44.880547
222059,-0.016497,-0.501374,-0.046872,-34.164993,-82.197018,45.866321
222159,0.033929,-0.56372,-0.08562,-35.205932,-82.491424,46.93663
222259,0.120609,-0.522862,-0.105065,-36.101976,-82.770798,47.910206
222359,0.227473,-0.402609,-0.109743,-36.655182,-82.994625,48.599445
222459,0.331538,-0.247187,-0.10268,-36.767149,-83.144088,48.903984
222559,0.409732,-0.061892,-0.080531,-36.393139,-83.200775,48.764132
222659,0.441493,0.119933,-0.054284,-35.585972,-83.164127,48.206369
222759,0.410499,0.23225,-0.021583,-34.627757,-83.063022,47.478492
222859,0.339177,0.269852,0.019708,-33.796541,-82.929439,46.837216
222959,0.26276,0.275428,0.082838,-33.26147,-82.772293,46.450075
223059,0.17996,0.268708,0.140423,-33.022635,-82.600036,46.313627
223159,0.115614,0.260132,0.17513,-32.974491,-82.421078,46.332267
223259,0.053298,0.227727,0.165851,-33.003998,-82.260655,46.393234
223359,-0.032723,0.149076,0.107191,-33.054639,-82.156389,46.4258
223459,-0.109702,0.056271,0.03597,-33.111053,-82.11899,46.419673
223559,-0.138819,-0.035032,-0.03093,-33.158589,-82.146365,46.387738
223659,-0.141124,-0.099137,-0.059073,-33.255724,-82.213298,46.404541
223759,-0.140491,-0.140436,-0.067182,-33.420844,-82.302519,46.490318
223859,-0.126986,-0.172637,-0.081292,-33.60699,-82.411516,46.6051
223959,-0.095617,-0.183501,-0.095232,-33.755037,-82.530034,46.699554
224059,-0.056288,-0.168786,-0.105837,-33.808694,-82.644859,46.721522
224159,-0.027621,-0.137296,-0.112081,-33.744605,-82.746637,46.64134
224259,-0.016417,-0.114114,-0.120771,-33.580317,-82.840064,46.466651
224359,-0.02089,-0.094606,-0.12634,-33.343036,-82.925816,46.215857
224459,-0.039075,-0.077943,-0.118405,-33.098811,-83.000927,45.947613
224559,-0.062806,-0.086436,-0.102951,-32.945701,-83.075148,45.757509
224659,-0.091658,-0.097124,-0.086011,-32.901049,-83.149165,45.660031
224759,-0.113169,-0.098479,-0.066352,-32.95043,-83.217679,45.644859
224859,-0.133009,-0.115202,-0.042959,-33.151502,-83.286885,45.770994
224959,-0.146473,-0.1286,-0.025651,-33.471155,-83.356955,46.008737
225059,-0.150441,-0.131386,-0.0166,-33.844149,-83.42527,46.297858
225159,-0.153192,-0.125936,-0.015717,-34.213903,-83.490452,46.582094
225259,-0.149515,-0.120214,-0.024905,-34.533213,-83.555658,46.817648
225359,-0.140737,-0.123459,-0.034556,-34.821889,-83.625349,47.02741
225459,-0.135518,-0.13799,-0.047868,-35.09973,-83.706068,47.229251
225559,-0.129009,-0.148007,-0.056972,-35.371311,-83.794327,47.428517
225659,-0.118284,-0.14808,-0.062693,-35.618688,-83.884376,47.609589
225759,-0.106714,-0.135568,-0.062947,-35.824771,-83.968565,47.755773
225859,-0.097326,-0.110231,-0.064495,-35.941628,-84.041424,47.817633
225959,-0.086783,-0.093232,-0.069813,-35.975108,-84.108146,47.801734
226059,-0.081138,-0.095992,-0.074282,-35.994255,-84.177621,47.774684
226159,-0.073637,-0.101692,-0.085159,-35.977916,-84.25337,47.71629
226259,-0.067173,-0.097025,-0.08646,-35.934965,-84.327356,47.634885
226359,-0.063542,-0.091588,-0.084776,-35.877632,-84.398212,47.54113
226459,-0.05654,-0.092967,-0.079714,-35.843408,-84.467968,47.474639
226559,-0.040729,-0.1215,-0.081769,-35.889042,-84.55163,47.497484
226659,-0.005608,-0.160664,-0.085743,-36.03649,-84.654752,47.64281
226759,0.040267,-0.152925,-0.089295,-36.116817,-84.755424,47.747103
226859,0.09044,-0.102514,-0.094407,-35.957002,-84.834431,47.639114
226959,0.107674,-0.047483,-0.101043,-35.542359,-84.889977,47.285197
227059,0.083808,-0.000782,-0.103777,-34.945115,-84.92424,46.734255
227159,0.023963,0.031883,-0.101356,-34.26782,-84.941701,46.068551
227259,-0.057513,0.081562,-0.099762,-33.463016,-84.934185,45.227982
227359,-0.135115,0.190829,-0.110523,-32.269794,-84.876066,43.952776
227459,-0.168871,0.346364,-0.137709,-30.477844,-84.746981,42.056772
227559,-0.154847,0.481972,-0.165613,-28.228983,-84.55201,39.709436
227659,-0.102857,0.548303,-0.186155,-25.838243,-84.319837,37.24864
227759,-0.046129,0.555577,-0.222079,-23.411606,-84.08267,34.783427
227859,0.010288,0.476463,-0.240728,-21.205269,-83.881713,32.571255
227959,-0.005884,0.2946,-0.241856,-19.459238,-83.770948,30.812102
228059,-0.089833,0.028752,-0.198758,-18.468127,-83.791871,29.763797
228159,-0.170811,-0.265207,-0.148081,-18.257094,-83.96243,29.453568
228259,-0.210499,-0.48507,-0.1438,-18.463893,-84.251874,29.540658
228359,-0.207372,-0.580561,-0.166767,-18.737194,-84.597385,29.696318
228459,-0.178592,-0.526414,-0.176841,-18.847617,-84.915355,29.704888
228559,-0.195573,-0.365533,-0.16569,-18.694755,-85.143999,29.439409
228659,-0.264637,-0.167253,-0.138076,-18.307763,-85.259787,28.899333
228759,-0.300067,0.042207,-0.080825,-17.851329,-85.250993,28.269245
228859,-0.273991,0.181515,-0.030382,-17.427335,-85.157016,27.686656
228959,-0.249242,0.187844,-0.003556,-17.166173,-85.054784,27.281639
229059,-0.262456,0.127897,0.021149,-17.193747,-84.981183,27.158798
229159,-0.277754,0.066905,0.053862,-17.550058,-84.935427,27.357159
229259,-0.287167,0.008631,0.08557,-18.21646,-84.915756,27.861429
229359,-0.273895,-0.053043,0.106902,-19.129653,-84.925073,28.621099
229459,-0.240876,-0.090874,0.111183,-20.137076,-84.952883,29.49434
229559,-0.169915,-0.117658,0.093693,-21.070341,-84.997297,30.333903
229659,-0.085518,-0.115033,0.062389,-21.772384,-85.04582,30.989846
229759,-0.009054,-0.121997,0.026972,-22.242458,-85.105069,31.456881
229859,0.014183,-0.123515,-0.001014,-22.539245,-85.170964,31.763321
229959,0.001217,-0.116836,-0.017569,-22.728727,-85.236867,31.954591
230059,-0.035185,-0.090669,-0.013759,-22.897587,-85.288054,32.104222
230159,-0.077172,-0.059941,-0.002847,-23.079599,-85.320552,32.2429
230259,-0.124078,-0.00737,0.004889,-23.194722,-85.323579,32.287496
230359,-0.166114,0.054449,0.020004,-23.260252,-85.290637,32.258164
230459,-0.190885,0.093761,0.038043,-23.346536,-85.232926,32.235413
230559,-0.200123,0.109354,0.061239,-23.539521,-85.161737,32.314426
230659,-0.179259,0.110521,0.081991,-23.840289,-85.085132,32.513618
230759,-0.144364,0.093534,0.10113,-24.273877,-85.012837,32.866219
230859,-0.115153,0.075776,0.110143,-24.780778,-84.947407,33.309254
230959,-0.082961,0.047201,0.111891,-25.34553,-84.896022,33.828925
231059,-0.043356,0.008958,0.110276,-25.973939,-84.86431,34.435323
231159,0.010563,-0.03011,0.103508,-26.636483,-84.853772,35.107032
231259,0.068683,-0.061779,0.09429,-27.303075,-84.861102,35.816241
231359,0.117358,-0.074384,0.08602,-27.934519,-84.876305,36.518147
231459,0.143338,-0.062695,0.084622,-28.511008,-84.885318,37.179809
231559,0.150255,-0.033605,0.091373,-29.032573,-84.877286,37.790304
231659,0.148996,-0.004452,0.103754,-29.529673,-84.850721,38.375527
231759,0.139879,0.015029,0.119302,-30.049428,-84.809567,38.978282
231859,0.139881,0.031784,0.131767,-30.573792,-84.75601,39.585712
231959,0.155314,0.051144,0.142763,-31.074006,-84.689191,40.177827
232059,0.166944,0.057422,0.153268,-31.588247,-84.615671,40.790792
232159,0.177192,0.064443,0.1693,-32.140255,-84.53334,41.447671
232259,0.175547,0.08119,0.18203,-32.684876,-84.438394,42.096279
232359,0.179672,0.1154,0.197021,-33.171091,-84.321757,42.688691
232459,0.191303,0.152638,0.212135,-33.58341,-84.182078,43.213664
232559,0.215883,0.169243,0.226252,-33.972878,-84.029618,43.729959
232659,0.244881,0.162081,0.230733,-34.364593,-83.878741,44.265363
232759,0.272558,0.13744,0.220019,-34.745669,-83.742579,44.806163
232859,0.28304,0.108983,0.209109,-35.139339,-83.622951,45.36581
232959,0.280897,0.085869,0.193259,-35.51932,-83.518944,45.910569
233059,0.259421,0.091221,0.183025,-35.839882,-83.415472,46.383248
233159,0.220043,0.140118,0.171247,-35.983035,-83.293024,46.654714
233259,0.177343,0.212331,0.159498,-35.894216,-83.140989,46.668014
233359,0.16108,0.291232,0.147556,-35.556473,-82.956231,46.421166
233459,0.167233,0.375339,0.136008,-34.968893,-82.735685,45.925968
233559,0.208836,0.466436,0.12248,-34.117281,-82.475749,45.188302
233659,0.26003,0.570897,0.112313,-33.014873,-82.167534,44.226692
233759,0.334002,0.684636,0.124947,-31.751631,-81.797774,43.144687
233859,0.43506,0.76007,0.155875,-30.48833,-81.378585,42.120084
233959,0.525557,0.726668,0.191068,-29.450408,-80.96298,41.374907
234059,0.564253,0.621703,0.217199,-28.722715,-80.590964,40.965667
234159,0.557361,0.521295,0.256501,-28.316408,-80.258164,40.87793
234259,0.513315,0.392008,0.27599,-28.204925,-79.985348,41.063749
234359,0.423941,0.195203,0.227184,-28.302653,-79.825233,41.410169
234459,0.314826,-0.078205,0.123272,-28.581716,-79.831164,41.877374
234559,0.238954,-0.333026,0.008186,-28.979,-79.996441,42.420364
234659,0.19543,-0.523732,-0.081112,-29.471318,-80.281401,43.034116
234759,0.15047,-0.617804,-0.146621,-29.990116,-80.630894,43.648009
234859,0.13301,-0.613223,-0.189928,-30.41996,-80.989773,44.161028
234959,0.157391,-0.545758,-0.211504,-30.675212,-81.321156,44.511
235059,0.233057,-0.441763,-0.207307,-30.716824,-81.59993,44.688492
235159,0.319623,-0.301487,-0.189751,-30.490023,-81.804438,44.644745
235259,0.383004,-0.161295,-0.179967,-29.967715,-81.936667,44.339195
235359,0.433195,-0.086273,-0.178775,-29.255879,-82.030706,43.871375
235459,0.454393,-0.068939,-0.166753,-28.527321,-82.111891,43.399035
235559,0.459703,-0.076614,-0.153382,-27.847865,-82.192532,42.979426
235659,0.437591,-0.070357,-0.12904,-27.249009,-82.262919,42.628451
235759,0.375824,-0.045882,-0.089207,-26.781261,-82.310034,42.374116
235859,0.292392,-0.040823,-0.050253,-26.496247,-82.34437,42.255952
235959,0.185161,-0.04536,-0.021091,-26.391569,-82.373585,42.257756
236059,0.081298,-0.082009,-0.017513,-26.430118,-82.420737,42.344017
236159,-0.014453,-0.139911,-0.028474,-26.594388,-82.500388,42.50174
236259,-0.092096,-0.17449,-0.026525,-26.883275,-82.597164,42.740243
236359,-0.159138,-0.204044,-0.027083,-27.276064,-82.708982,43.044722
236459,-0.196861,-0.211676,-0.02448,-27.728116,-82.823695,43.387075
236559,-0.197742,-0.186222,-0.013819,-28.181579,-82.922307,43.730262
236659,-0.188153,-0.143626,-0.009178,-28.564712,-82.99786,44.008057
236759,-0.18152,-0.111618,-0.018451,-28.840256,-83.059672,44.181251
236859,-0.173461,-0.097873,-0.026512,-29.050107,-83.116731,44.292901
236959,-0.170337,-0.105733,-0.025926,-29.281668,-83.177494,44.428208
237059,-0.159246,-0.112747,-0.031031,-29.505289,-83.243116,44.561901
237159,-0.145549,-0.104011,-0.036575,-29.679835,-83.305881,44.654065
237259,-0.131181,-0.097181,-0.043994,-29.800131,-83.367313,44.699889
237359,-0.118558,-0.105877,-0.053951,-29.893279,-83.43588,44.72566
237459,-0.099821,-0.121489,-0.062272,-29.979852,-83.514554,44.755617
237559,-0.078412,-0.132922,-0.0586,-30.10103,-83.597816,44.832741
237659,-0.074116,-0.137199,-0.040096,-30.316254,-83.677812,45.006962
237759,-0.100065,-0.125649,-0.013429,-30.640905,-83.744236,45.276292
237859,-0.133811,-0.084033,0.010196,-30.985361,-83.783049,45.546072
237959,-0.149906,-0.029859,0.02674,-31.26914,-83.790204,45.745531
238059,-0.149617,0.01471,0.034437,-31.465422,-83.773142,45.857145
238159,-0.144949,0.032442,0.034211,-31.608568,-83.747428,45.918004
238259,-0.146535,0.022204,0.030264,-31.762358,-83.727859,45.988662
238359,-0.146648,0.006797,0.020268,-31.913727,-83.718779,46.056821
238459,-0.13466,0.0152,0.003856,-31.962506,-83.710567,46.028683
238559,-0.118405,0.041276,-0.014143,-31.851321,-83.69512,45.84898
238659,-0.10693,0.050595,-0.031357,-31.633347,-83.68026,45.568448
238759,-0.116373,0.022119,-0.04648,-31.432032,-83.68372,45.299231
238859,-0.151656,-0.02582,-0.056674,-31.334594,-83.713582,45.114196
238959,-0.175635,-0.048849,-0.064909,-31.275195,-83.757123,44.953621
239059,-0.173599,-0.024805,-0.068007,-31.133635,-83.789747,44.711587
239159,-0.137438,0.04178,-0.069237,-30.783618,-83.789882,44.280715
239259,-0.063033,0.116781,-0.066828,-30.203584,-83.751888,43.661335
239359,0.007148,0.171192,-0.059047,-29.486983,-83.683854,42.944956
239459,0.029832,0.199459,-0.051768,-28.736147,-83.598621,42.207104
239559,0.004208,0.216284,-0.048733,-27.993403,-83.502997,41.462493
239659,-0.070674,0.225474,-0.055219,-27.265456,-83.403343,40.689448
239759,-0.188161,0.26356,-0.06867,-26.485054,-83.286535,39.795652
239859,-0.259005,0.373335,-0.08481,-25.478372,-83.115615,38.632829
239959,-0.273464,0.501439,-0.095742,-24.243543,-82.878067,37.231295
240059,-0.272546,0.60939,-0.080945,-22.967866,-82.576783,35.788284
240159,-0.230951,0.594303,-0.075189,-21.821471,-82.278498,34.498744
240259,-0.239777,0.401546,-0.104565,-20.938497,-82.086326,33.469237
240359,-0.295757,0.111052,-0.140169,-20.404139,-82.055472,32.759042
240459,-0.306445,-0.164322,-0.161257,-20.186703,-82.176239,32.362684
240559,-0.286134,-0.34397,-0.181285,-20.128971,-82.397514,32.139391
240659,-0.271434,-0.395762,-0.186328,-20.111618,-82.647655,31.965439
240759,-0.238562,-0.334269,-0.163036,-20.072078,-82.860117,31.788199
240859,-0.217455,-0.183754,-0.131759,-19.911172,-82.985359,31.500912
240959,-0.211736,0.013312,-0.09528,-19.589423,-82.997099,31.054917
241059,-0.198658,0.18926,-0.046055,-19.206538,-82.904031,30.554833
241159,-0.174218,0.285188,-0.004841,-18.858025,-82.750907,30.103373
241259,-0.163004,0.309521,0.035734,-18.655221,-82.576841,29.80514
241359,-0.18836,0.26019,0.086271,-18.752073,-82.420247,29.794382
241459,-0.245413,0.146298,0.124974,-19.191391,-82.318199,30.096166
241559,-0.291962,-0.010351,0.132523,-19.900059,-82.298937,30.642872
241659,-0.288172,-0.152878,0.109849,-20.726159,-82.359835,31.310231
241759,-0.236794,-0.241042,0.070439,-21.515452,-82.474758,31.970016
241859,-0.170952,-0.297562,0.037687,-22.249525,-82.625566,32.611954
241959,-0.126953,-0.33027,0.01608,-22.954257,-82.797371,33.249493
242059,-0.100175,-0.340755,0.00636,-23.654167,-82.975879,33.897387
242159,-0.090129,-0.338009,0.001724,-24.357557,-83.153023,34.554338
242259,-0.092587,-0.314112,0.006126,-25.068178,-83.315676,35.216917
242359,-0.100967,-0.27979,0.012441,-25.771382,-83.458036,35.866989
242459,-0.109639,-0.256184,0.015987,-26.471956,-83.58643,36.509235
242559,-0.111573,-0.249588,0.02366,-27.220659,-83.70854,37.198634
242659,-0.113071,-0.250563,0.033796,-28.048297,-83.827389,37.966412
242759,-0.117916,-0.25193,0.047749,-28.979287,-83.941814,38.835173
242859,-0.126802,-0.250721,0.054969,-29.980784,-84.052025,39.769529
242959,-0.140391,-0.250087,0.051344,-31.00697,-84.161234,40.720688
243059,-0.139148,-0.257439,0.041996,-32.04657,-84.275064,41.685854
243159,-0.14305,-0.269514,0.028579,-33.101311,-84.397077,42.663785
243259,-0.137302,-0.268524,0.010754,-34.105846,-84.522524,43.594374
243359,-0.121313,-0.264378,-0.004105,-35.056886,-84.649301,44.48023
243459,-0.087628,-0.254834,-0.008748,-35.973725,-84.771792,45.350938
243559,-0.041898,-0.239401,-0.004176,-36.870478,-84.884322,46.227622
243659,0.002806,-0.219493,0.006741,-37.757421,-84.982735,47.120024
243759,0.030317,-0.195405,0.018582,-38.62502,-85.064874,48.008709
243859,0.040299,-0.166303,0.030189,-39.451774,-85.12871,48.862039
243959,0.027251,-0.141302,0.049073,-40.29591,-85.173537,49.725241
244059,0.004124,-0.12158,0.061446,-41.143909,-85.204088,50.578975
244159,-0.027468,-0.102913,0.070471,-41.980896,-85.222151,51.403459
244259,-0.051054,-0.086739,0.074204,-42.780574,-85.230948,52.176926
244359,-0.045968,-0.086768,0.074699,-43.582407,-85.238667,52.955466
244459,0.000968,-0.089112,0.074107,-44.367843,-85.246691,53.744527
244559,0.065622,-0.081193,0.078426,-45.100753,-85.248872,54.518046
244659,0.121631,-0.050679,0.087738,-45.696011,-85.234215,55.185645
244759,0.141346,0.011951,0.105441,-46.050756,-85.186813,55.623256
244859,0.12236,0.08843,0.123421,-46.120521,-85.101443,55.763985
244959,0.070511,0.161491,0.133122,-45.915148,-84.983007,55.598747
245059,0.023196,0.216026,0.137644,-45.516724,-84.840823,55.212441
245159,0.011944,0.252592,0.128507,-44.945644,-84.687318,54.646189
245259,0.049731,0.29496,0.111238,-44.133608,-84.522833,53.859507
245359,0.123049,0.370221,0.090201,-42.939348,-84.334094,52.730764
245459,0.215919,0.502349,0.089303,-41.276114,-84.086809,51.183703
245559,0.301417,0.652246,0.105776,-39.257819,-83.762943,49.328051
245659,0.334235,0.729505,0.120748,-37.239961,-83.392257,47.490538
245759,0.294705,0.736826,0.130076,-35.466032,-83.008429,45.874472
245859,0.223981,0.752682,0.154235,-33.958405,-82.603948,44.484617
245959,0.180311,0.743246,0.183033,-32.748765,-82.19096,43.368859
246059,0.13052,0.599215,0.188081,-32.004265,-81.843784,42.69296
246159,0.062207,0.302768,0.154175,-31.846009,-81.650467,42.569421
246259,0.01279,-0.019286,0.074429,-32.118221,-81.638023,42.852304
246359,0.003352,-0.234854,-0.004029,-32.590064,-81.753819,43.331421
246459,-0.013929,-0.364155,-0.059926,-33.181842,-81.948649,43.921498
246559,-0.041242,-0.478609,-0.103291,-33.934753,-82.210914,44.658119
246659,-0.040337,-0.544792,-0.125652,-34.823299,-82.510241,45.531618
246759,0.031331,-0.55095,-0.128099,-35.750587,-82.811369,46.484979
246859,0.164519,-0.511568,-0.121641,-36.595282,-83.090148,47.431406
246959,0.299775,-0.386065,-0.108346,-37.114683,-83.305372,48.12779
247059,0.398699,-0.200893,-0.082229,-37.156518,-83.426532,48.40022
247159,0.450935,-0.028938,-0.042362,-36.812466,-83.455297,48.314311
247259,0.451599,0.075599,0.001022,-36.330027,-83.421055,48.089491
247359,0.416517,0.107192,0.048294,-35.968474,-83.356028,47.966111
247459,0.368226,0.106049,0.090332,-35.808485,-83.277365,48.017797
247559,0.32171,0.12076,0.131207,-35.794053,-83.17821,48.189229
247659,0.275616,0.149301,0.161041,-35.838703,-83.05584,48.393602
247759,0.185984,0.144946,0.151412,-35.905777,-82.938768,48.568868
247859,0.087805,0.080672,0.094958,-35.988892,-82.870531,48.703639
247959,0.025528,0.023755,0.046188,-36.078734,-82.845123,48.809237
248059,-0.007745,-0.022588,0.00408,-36.156605,-82.855389,48.883555
248159,-0.038289,-0.073733,-0.024598,-36.284855,-82.899,48.991001
248259,-0.068673,-0.11131,-0.042785,-36.467571,-82.966087,49.135775
248359,-0.079174,-0.133857,-0.056424,-36.671209,-83.048134,49.295544
248459,-0.082111,-0.134251,-0.060825,-36.865198,-83.131784,49.443873
248559,-0.077379,-0.128057,-0.066892,-37.019341,-83.214614,49.554777
248659,-0.068329,-0.13472,-0.073799,-37.164273,-83.302824,49.661612
248759,-0.058383,-0.124796,-0.067421,-37.302184,-83.384244,49.767099
248859,-0.054433,-0.118512,-0.056368,-37.465662,-83.458907,49.900587
248959,-0.070648,-0.118591,-0.041737,-37.700744,-83.528419,50.096777
249059,-0.092207,-0.125368,-0.03026,-38.020468,-83.596836,50.36569
249159,-0.103501,-0.140848,-0.012741,-38.473555,-83.665778,50.76225
249259,-0.120432,-0.145952,-0.001653,-39.007467,-83.732619,51.230319
249359,-0.116546,-0.141195,0.003794,-39.556101,-83.794854,51.715382
249459,-0.113649,-0.132417,0.010342,-40.110085,-83.850275,52.207448
249559,-0.105856,-0.12085,0.01813,-40.660343,-83.897196,52.700215
249659,-0.090527,-0.103499,0.028417,-41.189945,-83.932195,53.181011
249759,-0.066611,-0.092032,0.040252,-41.718153,-83.957253,53.674167
249859,-0.045157,-0.087209,0.049133,-42.256345,-83.976316,54.189708
249959,-0.032665,-0.086212,0.052586,-42.800731,-83.993061,54.718665
250059,-0.028072,-0.088971,0.050936,-43.349128,-84.011032,55.254289
250159,-0.033374,-0.086835,0.046569,-43.878263,-84.029272,55.76748
250259,-0.041024,-0.072837,0.037106,-44.323757,-84.04503,56.192155
250359,-0.063144,-0.041261,0.028955,-44.629853,-84.050823,56.46393
250459,-0.079738,0.003793,0.020399,-44.737826,-84.041573,56.526953
250559,-0.081673,0.038333,0.00639,-44.658816,-84.02387,56.400864
250659,-0.058981,0.046293,-0.016928,-44.446063,-84.012229,56.153374
250759,-0.032843,0.052468,-0.040953,-44.101703,-84.007506,55.788614
250859,-0.010207,0.057323,-0.05785,-43.660019,-84.007191,55.33904
250959,-0.003034,0.050938,-0.071887,-43.182369,-84.014654,54.857441
251059,0.00329,0.025594,-0.079114,-42.765196,-84.035144,54.440312
251159,0.030124,-0.005087,-0.093473,-42.385385,-84.073816,54.076232
251259,0.092967,0.002836,-0.104392,-41.890169,-84.112992,53.632361
251359,0.166957,0.055079,-0.105903,-41.147431,-84.129782,52.982309
251459,0.208191,0.130151,-0.100561,-40.129254,-84.110842,52.079119
251559,0.196904,0.211007,-0.087477,-38.898742,-84.049494,50.955899
251659,0.132686,0.289488,-0.070194,-37.543158,-83.944012,49.669757
251759,0.050363,0.37736,-0.052951,-36.079003,-83.788956,48.226672
251859,-0.006975,0.487921,-0.056884,-34.38125,-83.579217,46.515011
251959,-0.01885,0.586987,-0.089378,-32.402178,-83.326381,44.512553
252059,-0.002237,0.655945,-0.12852,-30.237626,-83.043373,42.331779
252159,0.026309,0.670891,-0.152594,-28.101745,-82.750153,40.195034
252259,0.014836,0.58294,-0.165049,-26.260683,-82.496127,38.347631
252359,-0.011902,0.387367,-0.177115,-24.85666,-82.339685,36.924786
252459,-0.069369,0.152395,-0.163944,-23.991423,-82.299129,36.012047
252559,-0.102764,-0.072559,-0.119515,-23.707445,-82.365025,35.666529
252659,-0.087197,-0.265985,-0.085282,-23.881708,-82.524425,35.792353
252759,-0.029764,-0.378542,-0.087349,-24.226963,-82.743158,36.123717
252859,0.021671,-0.37964,-0.08984,-24.554764,-82.962818,36.467027
252959,0.036696,-0.266816,-0.066536,-24.769927,-83.117964,36.705396
253059,-0.005116,-0.093577,-0.02764,-24.837512,-83.173604,36.77094
253159,-0.074725,0.067548,0.007662,-24.775201,-83.136997,36.665479
253259,-0.11554,0.16172,0.037175,-24.678124,-83.044348,36.501421
253359,-0.118149,0.155124,0.065859,-24.719565,-82.948333,36.475376
253459,-0.095744,0.071843,0.093151,-25.022018,-82.889123,36.725274
253559,-0.085444,-0.003015,0.115161,-25.551621,-82.863151,37.210055
253659,-0.063628,-0.064759,0.138957,-26.287131,-82.862431,37.914957
253759,-0.054018,-0.107799,0.145874,-27.135,-82.880798,38.738625
253859,-0.050692,-0.144017,0.124296,-27.975729,-82.921823,39.556961
253959,-0.032894,-0.167629,0.090059,-28.729162,-82.982696,40.297516
254059,-0.008576,-0.171793,0.049253,-29.324112,-83.055949,40.892333
254159,0.006692,-0.160479,0.014607,-29.753125,-83.132708,41.328715
254259,0.01331,-0.152394,-0.004501,-30.088904,-83.210559,41.674946
254359,0.013038,-0.152032,-0.01223,-30.399201,-83.29022,41.995301
254459,0.001648,-0.152332,-0.004093,-30.758608,-83.36743,42.358478
254559,-0.014367,-0.136586,0.008312,-31.147795,-83.432965,42.742341
254659,-0.030115,-0.109963,0.02328,-31.547681,-83.480705,43.127847
254759,-0.047756,-0.074403,0.035331,-31.920013,-83.507187,43.475416
254859,-0.058244,-0.049188,0.043192,-32.266747,-83.518789,43.79116
254959,-0.070865,-0.05075,0.055492,-32.678421,-83.527126,44.164974
255059,-0.076526,-0.056859,0.062137,-33.139325,-83.536012,44.585064
255159,-0.071786,-0.065409,0.06231,-33.623391,-83.548545,45.031188
255259,-0.053289,-0.085524,0.063435,-34.160651,-83.569843,45.541491
255359,-0.043013,-0.09793,0.060243,-34.718014,-83.597496,46.077923
255459,-0.030998,-0.109519,0.051708,-35.271596,-83.63282,46.617441
255559,-0.012089,-0.1271,0.037459,-35.813582,-83.68052,47.156145
255659,0.012028,-0.144608,0.020278,-36.331486,-83.741581,47.684462
255759,0.046022,-0.143139,0.007632,-36.781663,-83.805792,48.164177
255859,0.07876,-0.130707,0.004592,-37.169326,-83.864976,48.59982
255959,0.107856,-0.115785,0.011561,-37.52867,-83.914628,49.023703
256059,0.129582,-0.10113,0.020267,-37.870035,-83.954298,49.441987
256159,0.137355,-0.080797,0.030744,-38.187871,-83.98082,49.841063
256259,0.138558,-0.042387,0.037019,-38.40426,-83.987626,50.13881
256359,0.131864,-0.000211,0.044187,-38.512042,-83.972847,50.323493
256459,0.115932,0.030738,0.051331,-38.553575,-83.941608,50.432382
256559,0.097894,0.047181,0.052377,-38.553594,-83.902612,50.489137
256659,0.084188,0.058014,0.050203,-38.515691,-83.859532,50.499856
256759,0.068823,0.066254,0.048623,-38.452759,-83.813311,50.476547
256859,0.058387,0.07336,0.047947,-38.370183,-83.76412,50.427459
256959,0.066348,0.069333,0.053943,-38.32128,-83.714578,50.416833
257059,0.07134,0.061674,0.068215,-38.352038,-83.66338,50.489233
257159,0.077328,0.073736,0.085305,-38.408486,-83.60065,50.590943
257259,0.094003,0.087576,0.092946,-38.440413,-83.528951,50.677608
257359,0.109774,0.096917,0.095597,-38.443178,-83.452096,50.74403
257459,0.097406,0.096568,0.085817,-38.415184,-83.378879,50.772365
257559,0.065462,0.095761,0.068221,-38.340058,-83.312291,50.734821
257659,0.034055,0.104555,0.045457,-38.17053,-83.249818,50.584094
257759,0.023261,0.145271,0.027985,-37.823492,-83.175044,50.248351
257859,0.047426,0.220646,0.016011,-37.208374,-83.069843,49.656466
257959,0.070434,0.323885,0.016725,-36.316313,-82.916045,48.798678
258059,0.146081,0.460487,0.028371,-35.106474,-82.692844,47.663933
258159,0.248491,0.600698,0.061179,-33.689104,-82.389466,46.378406
258259,0.335548,0.678512,0.092148,-32.263206,-82.034928,45.133642
258359,0.36366,0.693154,0.110128,-30.966686,-81.663918,44.034755
258459,0.364266,0.723269,0.12627,-29.768681,-81.270057,43.034765
258559,0.385974,0.735176,0.153757,-28.719348,-80.859777,42.196787
258659,0.406397,0.614362,0.160086,-27.95279,-80.506818,41.656314
258759,0.372844,0.340831,0.125474,-27.570805,-80.301092,41.48592
258859,0.283946,0.005349,0.056101,-27.560453,-80.284241,41.640809
258959,0.174875,-0.290707,-0.008197,-27.886536,-80.434764,42.073516
259059,0.088942,-0.494228,-0.050262,-28.482782,-80.698981,42.729901
259159,0.019251,-0.627762,-0.080575,-29.296584,-81.037316,43.565617
259259,-0.010658,-0.674652,-0.094004,-30.237878,-81.400763,44.512182
259359,0.027457,-0.637139,-0.098492,-31.147973,-81.74466,45.4484
259459,0.138671,-0.532034,-0.094747,-31.857357,-82.034094,46.245497
259559,0.259823,-0.391777,-0.087081,-32.261695,-82.251955,46.804241
259659,0.331158,-0.237575,-0.080597,-32.318265,-82.392809,47.05308
259759,0.33923,-0.11338,-0.073769,-32.11215,-82.471401,47.041532
259859,0.309044,-0.032399,-0.059553,-31.786954,-82.5063,46.892431
259959,0.264983,0.015448,-0.04361,-31.435102,-82.512963,46.69099
260059,0.217073,0.051033,-0.029199,-31.083824,-82.497786,46.462435
260159,0.165136,0.069002,-0.023858,-30.743458,-82.47208,46.214853
260259,0.109452,0.042873,-0.023897,-30.494143,-82.45917,46.026914
260359,0.02473,-0.00801,-0.028045,-30.389867,-82.472591,45.936303
260459,-0.059751,-0.100982,-0.045098,-30.474599,-82.536937,45.98751
260559,-0.141517,-0.148077,-0.043484,-30.71979,-82.624043,46.153275
260659,-0.203922,-0.158182,-0.035697,-31.05916,-82.713723,46.377913
260759,-0.24728,-0.150051,-0.026415,-31.447374,-82.796468,46.626704
260859,-0.260533,-0.131297,-0.016855,-31.842684,-82.866961,46.874955
260959,-0.251951,-0.106828,-0.015253,-32.185666,-82.92486,47.075397
261059,-0.237345,-0.078559,-0.019996,-32.435719,-82.970375,47.190615
261159,-0.221242,-0.052223,-0.024332,-32.595637,-83.004436,47.224308
261259,-0.211949,-0.051866,-0.016034,-32.783075,-83.035731,47.291091
261359,-0.216124,-0.055049,-0.006709,-33.019142,-83.065612,47.40445
261459,-0.224881,-0.058275,0.005903,-33.32007,-83.09301,47.578089
261559,-0.235792,-0.067714,0.012908,-33.681718,-83.122569,47.806584
261659,-0.24634,-0.07872,0.010064,-34.070133,-83.158078,48.055939
261759,-0.24745,-0.08163,-0.000769,-34.427531,-83.198247,48.273398
261859,-0.249656,-0.075324,-0.01445,-34.717967,-83.239721,48.422136
261959,-0.252225,-0.056486,-0.018822,-34.942837,-83.273662,48.503363
262059,-0.249358,-0.028648,-0.012158,-35.116279,-83.292286,48.53446
262159,-0.246929,0.006096,-0.000623,-35.23728,-83.290787,48.514163
262259,-0.236776,0.046254,0.016866,-35.309256,-83.264679,48.450365
262359,-0.210392,0.071861,0.033862,-35.361751,-83.220934,48.382176
262459,-0.170816,0.070929,0.049833,-35.45681,-83.172287,48.379689
262559,-0.132022,0.057546,0.063207,-35.617902,-83.125383,48.466103
262659,-0.097569,0.052053,0.068519,-35.793297,-83.079193,48.586823
262759,-0.060162,0.059784,0.063603,-35.90559,-83.030996,48.665584
262859,-0.036937,0.081055,0.052063,-35.901884,-82.976774,48.640894
262959,-0.02937,0.110879,0.038532,-35.763114,-82.913217,48.484477
263059,-0.024256,0.133344,0.027163,-35.522321,-82.842912,48.228179
263159,-0.023472,0.132473,0.023332,-35.274229,-82.774129,47.964942
263259,-0.020466,0.10086,0.018327,-35.092434,-82.721656,47.77024
263359,-0.006732,0.063465,0.011448,-34.976041,-82.6889,47.649395
263459,0.028871,0.040769,0.005397,-34.876208,-82.668732,47.56581
263559,0.074404,0.033403,-0.003156,-34.738523,-82.654778,47.470368
263659,0.115235,0.047337,-0.006644,-34.530378,-82.635326,47.327472
263759,0.151673,0.089552,-0.006025,-34.19983,-82.595592,47.082198
263859,0.156752,0.139401,-0.010074,-33.733367,-82.533216,46.702769
263959,0.132861,0.197479,-0.014373,-33.13427,-82.443935,46.175689
264059,0.085084,0.269145,-0.020929,-32.387888,-82.321306,45.472269
264159,0.006124,0.342252,-0.037377,-31.49063,-82.166743,44.570695
264259,-0.092,0.396566,-0.065513,-30.472224,-81.991748,43.489688
264359,-0.165899,0.437166,-0.103266,-29.33015,-81.804575,42.240514
264459,-0.164197,0.483602,-0.126207,-28.077024,-81.596744,40.879473
264559,-0.131559,0.494348,-0.136028,-26.817359,-81.381825,39.529981
264659,-0.146042,0.481581,-0.141895,-25.630661,-81.170803,38.245145
264759,-0.207021,0.3564,-0.165251,-24.647762,-81.026844,37.130602
264859,-0.317978,0.08141,-0.17667,-24.123998,-81.026954,36.416291
264959,-0.371164,-0.182365,-0.177448,-24.016175,-81.164728,36.092278
265059,-0.37844,-0.322829,-0.187166,-24.086234,-81.378327,35.944163
265159,-0.362116,-0.368993,-0.198981,-24.175833,-81.618924,35.825347
265259,-0.35658,-0.324925,-0.193813,-24.20781,-81.835334,35.651576
265359,-0.358789,-0.201461,-0.17159,-24.113939,-81.981995,35.349487
265459,-0.356135,-0.075787,-0.145042,-23.90127,-82.056591,34.929054
265559,-0.348967,0.020032,-0.123804,-23.600568,-82.075791,34.423927
265659,-0.328567,0.097553,-0.094879,-23.269928,-82.047284,33.900368
265759,-0.289446,0.156695,-0.064907,-22.938973,-81.980474,33.399063
265859,-0.249179,0.189638,-0.031379,-22.665837,-81.888476,32.979358
265959,-0.228528,0.197475,0.00584,-22.513773,-81.783956,32.693815
266059,-0.224429,0.151816,0.041102,-22.561305,-81.695864,32.612266
266159,-0.242262,0.04488,0.061508,-22.853646,-81.659877,32.767788
266259,-0.255638,-0.070747,0.054801,-23.305486,-81.686259,33.076762
266359,-0.238113,-0.156603,0.031487,-23.801751,-81.762744,33.440731
266459,-0.187885,-0.208255,-0.001776,-24.240397,-81.873605,33.775475
266559,-0.13274,-0.243095,-0.029997,-24.612254,-82.008988,34.074571
266659,-0.102336,-0.263933,-0.050007,-24.938921,-82.159752,34.345523
266759,-0.094385,-0.275957,-0.064204,-25.239632,-82.319994,34.594774
266859,-0.10212,-0.271987,-0.063666,-25.550904,-82.47787,34.850112
266959,-0.120714,-0.257196,-0.057826,-25.879478,-82.626477,35.112062
267059,-0.142586,-0.244296,-0.051133,-26.23395,-82.766566,35.387398
267159,-0.152706,-0.237784,-0.047547,-26.607802,-82.902185,35.676335
267259,-0.15768,-0.24308,-0.036204,-27.05591,-83.037321,36.037131
267359,-0.154502,-0.240992,-0.028042,-27.548017,-83.168877,36.443977
267459,-0.144062,-0.229145,-0.019883,-28.059536,-83.291809,36.876287
267559,-0.134309,-0.216311,-0.017401,-28.563248,-83.407131,37.306256
267659,-0.133158,-0.204977,-0.021157,-29.038375,-83.517375,37.708014
267759,-0.139243,-0.205872,-0.030148,-29.494012,-83.630223,38.08656
267859,-0.139526,-0.237394,-0.041607,-29.994906,-83.761671,38.510377
267959,-0.123332,-0.275694,-0.045814,-30.590796,-83.912855,39.038956
268059,-0.092737,-0.299609,-0.04749,-31.25753,-84.075672,39.656234
268159,-0.055728,-0.295188,-0.044391,-31.94016,-84.234642,40.31062
268259,-0.018908,-0.273841,-0.041044,-32.588145,-84.381466,40.951208
268359,0.014603,-0.252337,-0.039984,-33.185677,-84.516911,41.560236
268459,0.040483,-0.210976,-0.033455,-33.691075,-84.629928,42.091481
268559,0.063314,-0.147473,-0.018574,-34.060318,-84.707573,42.499032
268659,0.083494,-0.087799,0.000995,-34.319264,-84.750405,42.80739
268759,0.095825,-0.044886,0.020978,-34.525982,-84.766354,43.070379
268859,0.084083,-0.01873,0.027952,-34.683121,-84.76762,43.276818
268959,0.048091,-0.005442,0.029655,-34.821823,-84.76203,43.444031
269059,0.017614,0.010572,0.037316,-34.959067,-84.746372,43.59224
269159,0.008717,0.042452,0.045303,-35.026956,-84.713105,43.66568
269259,0.005175,0.086666,0.045892,-34.942566,-84.65889,43.584144
269359,0.011606,0.141488,0.045597,-34.664959,-84.578949,43.312224
269459,0.012962,0.196757,0.047888,-34.220381,-84.471981,42.873303
269559,0.009663,0.240268,0.051934,-33.673415,-84.342672,42.329515
269659,0.004242,0.293433,0.056213,-33.009907,-84.186005,41.665338
269759,0.008629,0.365352,0.054851,-32.162096,-83.994154,40.818194
269859,0.031841,0.443338,0.051265,-31.124174,-83.763902,39.792894
269959,0.073489,0.52418,0.052605,-29.937695,-83.491245,38.641636
270059,0.134522,0.603825,0.063039,-28.670636,-83.173152,37.443783
270159,0.18742,0.676746,0.088358,-27.432786,-82.80837,36.30505
270259,0.205739,0.711938,0.113374,-26.329075,-82.416347,35.311222
270359,0.179115,0.722461,0.152667,-25.470293,-82.006955,34.548289
270459,0.147624,0.687625,0.197303,-24.922701,-81.603567,34.080772
270559,0.132234,0.536813,0.217251,-24.731878,-81.273525,33.964683
270659,0.090456,0.293023,0.190925,-24.859401,-81.076792,34.146436
270759,0.067366,0.04439,0.123825,-25.154651,-81.025482,34.484641
270859,0.077121,-0.168844,0.061245,-25.569769,-81.099733,34.949821
270959,0.084079,-0.31666,0.003591,-26.037026,-81.264137,35.471638
271059,0.109366,-0.38772,-0.048302,-26.452653,-81.477633,35.955616
271159,0.141829,-0.39239,-0.087513,-26.743648,-81.703146,36.33213
271259,0.197983,-0.35446,-0.102946,-26.895897,-81.913031,36.600766
271359,0.270614,-0.265698,-0.11013,-26.824721,-82.079356,36.685682
271459,0.359767,-0.150114,-0.102207,-26.514599,-82.184477,36.580927
271559,0.449414,-0.047448,-0.082176,-26.032214,-82.231648,36.354173
271659,0.511054,0.037601,-0.050379,-25.476429,-82.226717,36.089005
271759,0.522392,0.116857,-0.00665,-24.940425,-82.169672,35.850347
271859,0.502784,0.179054,0.030596,-24.454724,-82.071035,35.651093
271959,0.447025,0.197141,0.083731,-24.176124,-81.950241,35.628661
272059,0.374447,0.196379,0.152307,-24.194276,-81.813773,35.863971
272159,0.284157,0.185648,0.181496,-24.381251,-81.676036,36.217671
272259,0.198534,0.149593,0.144696,-24.537049,-81.565773,36.490369
272359,0.097726,0.103041,0.088065,-24.622398,-81.493277,36.633496
272459,0.006301,0.026667,0.019003,-24.640385,-81.477122,36.65555
272559,-0.050315,-0.055176,-0.04118,-24.611715,-81.518021,36.59762
272659,-0.053439,-0.119063,-0.085747,-24.530027,-81.602834,36.484289
272759,-0.031005,-0.159546,-0.101498,-24.442724,-81.712458,36.378304
272859,-0.005162,-0.196772,-0.109234,-24.370946,-81.843286,36.303001
272959,0.024649,-0.221727,-0.121988,-24.273922,-81.990095,36.219481
273059,0.042999,-0.219301,-0.125127,-24.146891,-82.136303,36.116315
273159,0.055806,-0.193428,-0.118937,-23.98754,-82.267448,35.987975
273259,0.053895,-0.169205,-0.097384,-23.866918,-82.380811,35.897652
273359,0.035446,-0.155889,-0.070666,-23.836694,-82.480949,35.887888
273459,0.012671,-0.147563,-0.042463,-23.917732,-82.57015,35.977185
273559,-0.012186,-0.155243,-0.016986,-24.132634,-82.657365,36.187091
273659,-0.025006,-0.174071,0.001899,-24.472617,-82.749801,36.515657
273759,-0.031599,-0.19839,0.011643,-24.912254,-82.852252,36.940794
273859,-0.043924,-0.210093,0.020361,-25.431576,-82.958159,37.439024
273959,-0.058547,-0.211928,0.028422,-26.012981,-83.06236,37.991255
274059,-0.068867,-0.215408,0.035775,-26.656647,-83.165686,38.600132
274159,-0.072731,-0.213184,0.04633,-27.362384,-83.264185,39.26917
274259,-0.071904,-0.204514,0.044901,-28.061709,-83.357604,39.932108
274359,-0.061208,-0.18229,0.037337,-28.68779,-83.440893,40.527372
274459,-0.05599,-0.156739,0.022594,-29.198464,-83.514691,41.0094
274559,-0.056469,-0.122147,0.004737,-29.554312,-83.575741,41.335281
274659,-0.06487,-0.087124,-0.014308,-29.746959,-83.624501,41.492064
274759,-0.079621,-0.045949,-0.026492,-29.790155,-83.656151,41.489958
274859,-0.091432,-0.00301,-0.041393,-29.663073,-83.670614,41.309724
274959,-0.08482,0.040333,-0.05166,-29.37514,-83.666234,40.971474
275059,-0.067335,0.070851,-0.062458,-28.952866,-83.649306,40.508138
275159,-0.050559,0.072306,-0.071965,-28.477161,-83.633807,40.000708
275259,-0.047493,0.038495,-0.074743,-28.071393,-83.635645,39.565421
275359,-0.047059,0.001498,-0.074898,-27.7534,-83.655913,39.218722
275459,-0.034286,-0.024455,-0.074562,-27.489968,-83.689044,38.934311
275559,0.005759,-0.025348,-0.076503,-27.19445,-83.722962,38.640734
275659,0.070099,0.0055,-0.070227,-26.815883,-83.739275,38.300721
275759,0.119632,0.064501,-0.060787,-26.314779,-83.722596,37.865998
275859,0.125638,0.122125,-0.048729,-25.739261,-83.672705,37.359854
275959,0.08575,0.174962,-0.04793,-25.083709,-83.594597,36.750128
276059,0.025961,0.234941,-0.057443,-24.308844,-83.486627,35.985743
276159,-0.044108,0.32065,-0.08791,-23.292969,-83.339375,34.938134
276259,-0.087531,0.407588,-0.138026,-21.966857,-83.154728,33.552705
276359,-0.092125,0.466897,-0.176804,-20.449619,-82.942436,31.9715
276459,-0.056521,0.488694,-0.185682,-18.933913,-82.715125,30.41164
276559,-0.019445,0.448466,-0.181646,-17.560577,-82.504213,29.015995
276659,-0.024165,0.293607,-0.1696,-16.501397,-82.372484,27.933978
276759,-0.078418,0.036407,-0.148127,-15.89244,-82.376956,27.274671
276859,-0.160227,-0.216297,-0.128957,-15.701009,-82.517306,26.989366
276959,-0.219288,-0.399298,-0.112224,-15.827323,-82.756062,26.990443
277059,-0.238387,-0.49115,-0.090581,-16.184726,-83.042065,27.213362
277159,-0.195912,-0.464394,-0.05758,-16.659121,-83.307854,27.57848
277259,-0.1219,-0.338011,-0.015775,-17.138543,-83.497037,27.99117
277359,-0.060755,-0.18431,0.01501,-17.521272,-83.59653,28.341684
277459,-0.034804,-0.03109,0.042382,-17.792747,-83.607373,28.595167
277559,-0.02512,0.107812,0.066285,-17.956572,-83.538153,28.745915
277659,-0.015281,0.214125,0.089572,-18.057335,-83.406841,28.838893
277759,-0.000221,0.271771,0.1201,-18.199332,-83.238693,28.9821
277859,-0.018617,0.257526,0.156519,-18.529272,-83.071692,29.304033
277959,-0.077506,0.190922,0.189379,-19.120858,-82.934496,29.855682
278059,-0.138952,0.096861,0.198708,-19.910549,-82.845586,30.571622
278159,-0.16528,-0.002939,0.177605,-20.76698,-82.813308,31.339711
278259,-0.14788,-0.086136,0.140009,-21.586004,-82.831915,32.08015
278359,-0.107258,-0.141886,0.105215,-22.334994,-82.886357,32.773397
278459,-0.060102,-0.173478,0.077521,-23.0066,-82.962539,33.415785
278559,-0.027548,-0.18003,0.055966,-23.592863,-83.046155,33.990868
278659,-0.01602,-0.158976,0.04773,-24.109364,-83.11994,34.502229
278759,-0.028867,-0.127672,0.048965,-24.586741,-83.176532,34.966694
278859,-0.0477,-0.109116,0.054425,-25.068305,-83.221682,35.424454
278959,-0.060487,-0.110051,0.06106,-25.5942,-83.265205,35.919433
279059,-0.063957,-0.124966,0.071543,-26.206618,-83.313204,36.49948
279159,-0.0659,-0.135582,0.077549,-26.878644,-83.364335,37.13836
279259,-0.06087,-0.126642,0.081049,-27.552752,-83.409108,37.782175
279359,-0.042607,-0.11811,0.082291,-28.210634,-83.448351,38.420136
279459,-0.022748,-0.114129,0.082201,-28.854811,-83.484775,39.055706
279559,0.006268,-0.12779,0.081774,-29.521525,-83.52732,39.730639
279659,0.039637,-0.156909,0.081716,-30.25214,-83.583408,40.489053
279759,0.069472,-0.182638,0.080917,-31.043119,-83.651266,41.325314
279859,0.087207,-0.186592,0.078663,-31.841847,-83.720419,42.17948
279959,0.090885,-0.176343,0.071993,-32.597545,-83.78535,42.992363
280059,0.077929,-0.169393,0.064666,-33.323709,-83.848069,43.767966
280159,0.057237,-0.169504,0.060621,-34.058926,-83.911053,44.540652
280259,0.041424,-0.170825,0.062188,-34.82945,-83.973061,45.339636
280359,0.024853,-0.172793,0.062712,-35.633826,-84.034643,46.163015
280459,0.022844,-0.139467,0.068435,-36.371731,-84.077672,46.918322
280559,0.03646,-0.089212,0.076282,-36.978861,-84.093987,47.549956
280659,0.040103,-0.057892,0.078837,-37.492309,-84.094479,48.089492
280759,0.039661,-0.061092,0.07776,-38.012021,-84.09629,48.635069
280859,0.031661,-0.078991,0.07694,-38.594714,-84.105893,49.239345
280959,0.032714,-0.082187,0.080149,-39.203498,-84.115115,49.870445
281059,0.043415,-0.079377,0.088467,-39.8333,-84.119352,50.528826
281159,0.053113,-0.072648,0.099919,-40.4822,-84.115641,51.211991
281259,0.034835,-0.051321,0.107803,-41.095263,-84.098931,51.848612
281359,-0.003797,-0.007167,0.11322,-41.586597,-84.060516,52.340628
281459,-0.055772,0.060979,0.111696,-41.84565,-83.993177,52.569197
281559,-0.118762,0.144,0.108543,-41.823774,-83.89154,52.478996
281659,-0.168109,0.225337,0.092533,-41.484189,-83.761145,52.040768
281759,-0.179913,0.298725,0.0657,-40.815917,-83.60879,51.264916
281859,-0.158397,0.374837,0.035537,-39.809149,-83.433117,50.160547
281959,-0.095968,0.483062,0.014542,-38.416065,-83.214307,48.702801
282059,-3e-06,0.629549,0.017322,-36.660766,-82.923336,46.934799
282159,0.10639,0.734918,0.0328,-34.775947,-82.571488,45.096466
282259,0.180025,0.770589,0.045066,-32.981428,-82.191458,43.390285
282359,0.199226,0.759709,0.066421,-31.435163,-81.803758,41.944351
282459,0.155936,0.677187,0.085617,-30.270369,-81.446432,40.85758
282559,0.062863,0.474738,0.080014,-29.596776,-81.188902,40.212874
282659,-0.058378,0.193468,0.03251,-29.376203,-81.084501,39.956027
282759,-0.121056,-0.089866,-0.016974,-29.545743,-81.135546,40.057653
282859,-0.143423,-0.270935,-0.065871,-29.906521,-81.290623,40.339779
282959,-0.147157,-0.390928,-0.112463,-30.358839,-81.518332,40.712165
283059,-0.124645,-0.504025,-0.151465,-30.918107,-81.812734,41.205419
283159,-0.079903,-0.554445,-0.179231,-31.501662,-82.139376,41.748701
283259,-0.010229,-0.544332,-0.193077,-32.019509,-82.464518,42.265536
283359,0.084245,-0.49281,-0.200792,-32.37462,-82.766477,42.67249
283459,0.197873,-0.374665,-0.19264,-32.430398,-83.008555,42.843163
283559,0.308222,-0.219132,-0.168194,-32.129359,-83.167814,42.718035
283659,0.364998,-0.078526,-0.132008,-31.57518,-83.247543,42.370784
283759,0.36039,0.001496,-0.087481,-30.997872,-83.274396,41.997637
283859,0.315056,0.026237,-0.019816,-30.66531,-83.26883,41.844795
283959,0.27673,0.053438,0.067741,-30.653176,-83.224208,41.992508
284059,0.263816,0.091031,0.12355,-30.785034,-83.144733,42.277808
284159,0.248292,0.146403,0.14901,-30.889922,-83.030513,42.527035
284259,0.219407,0.161572,0.14549,-30.955912,-82.909889,42.72045
284359,0.160788,0.07405,0.110238,-31.119789,-82.842662,42.978701
284459,0.091523,-0.03766,0.070745,-31.430746,-82.841792,43.345205
284559,0.056142,-0.098442,0.027324,-31.739469,-82.883371,43.689009
284659,0.036729,-0.116586,-0.004559,-31.982659,-82.943188,43.955535
284759,0.024411,-0.117236,-0.024354,-32.160505,-83.009176,44.149078
284859,0.017057,-0.105234,-0.038048,-32.261011,-83.073418,44.260439
284959,0.009246,-0.080074,-0.049789,-32.256476,-83.129001,44.261475
285059,0.002843,-0.052176,-0.063416,-32.128784,-83.17518,44.134775
285159,-0.009731,-0.04684,-0.080009,-31.924752,-83.223738,43.923951
285259,-0.017334,-0.04893,-0.096997,-31.656919,-83.278316,43.64452
285359,-0.025243,-0.073622,-0.107839,-31.406664,-83.348033,43.378259
285459,-0.035832,-0.10834,-0.110352,-31.235664,-83.435355,43.185722
285559,-0.047379,-0.127012,-0.104421,-31.140832,-83.529984,43.063231
285659,-0.059968,-0.135465,-0.084598,-31.159659,-83.622831,43.047892
285759,-0.08308,-0.147011,-0.057209,-31.345137,-83.713146,43.186916
285859,-0.106436,-0.16658,-0.029695,-31.726949,-83.804639,43.50997
285959,-0.130872,-0.17612,-0.003535,-32.279502,-83.892469,43.990632
286059,-0.150334,-0.172482,0.014824,-32.931503,-83.972255,44.560025
286159,-0.161346,-0.170171,0.024045,-33.641428,-84.04724,45.181247
286259,-0.156311,-0.175081,0.01814,-34.353567,-84.125568,45.80752
286359,-0.135458,-0.174573,0.004561,-35.007105,-84.207237,46.386816
286459,-0.115446,-0.153148,-0.012977,-35.513395,-84.28401,46.829571
286559,-0.100424,-0.109525,-0.027767,-35.806016,-84.345023,47.066206
286659,-0.100165,-0.052522,-0.039123,-35.854859,-84.383214,47.058016
286759,-0.096798,0.001408,-0.050262,-35.664217,-84.399982,46.811137
286859,-0.092671,0.039591,-0.06647,-35.262784,-84.404114,46.354844
286959,-0.079552,0.069367,-0.088052,-34.649953,-84.400878,45.693701
287059,-0.047106,0.088152,-0.114544,-33.829562,-84.396407,44.842686
287159,-0.014501,0.110271,-0.139381,-32.800341,-84.387762,43.800607
287259,0.014549,0.122546,-0.156968,-31.633623,-84.376554,42.637083
287359,0.02099,0.100897,-0.173988,-30.44725,-84.378651,41.457515
287459,0.022157,0.041431,-0.186858,-29.36482,-84.411667,40.383105
287559,0.038076,-0.008041,-0.188027,-28.393938,-84.467926,39.430026
287659,0.070574,-0.007306,-0.169207,-27.483297,-84.517199,38.556274
287759,0.104108,0.027476,-0.139406,-26.604692,-84.539588,37.734075
287859,0.109263,0.075969,-0.101009,-25.797737,-84.526102,36.986843
287959,0.069409,0.129415,-0.072246,-25.038134,-84.476817,36.264216
288059,-0.01483,0.196291,-0.056465,-24.262726,-84.387905,35.477138
288159,-0.099799,0.274258,-0.06491,-23.33789,-84.258845,34.490824
288259,-0.156018,0.394292,-0.103619,-22.03563,-84.072932,33.092457
288359,-0.200925,0.545613,-0.155489,-20.299986,-83.813146,31.231817
288459,-0.223396,0.667244,-0.220227,-18.218431,-83.493403,29.009136
288559,-0.226431,0.741239,-0.26953,-16.017799,-83.132541,26.663287
288659,-0.210903,0.769424,-0.274131,-13.987029,-82.747035,24.495704
288759,-0.204777,0.670924,-0.255826,-12.332689,-82.405926,22.709514
288859,-0.238733,0.443555,-0.227332,-11.141153,-82.183661,21.369539
288959,-0.261277,0.139592,-0.189675,-10.404771,-82.125689,20.475531
289059,-0.280852,-0.159206,-0.128539,-10.154596,-82.229056,20.061031
289159,-0.281491,-0.391876,-0.090682,-10.229187,-82.45984,19.974016
289259,-0.191097,-0.490832,-0.099958,-10.288382,-82.747443,19.923751
289359,-0.060805,-0.436486,-0.118418,-10.141292,-83.006293,19.740853
289459,0.012816,-0.297,-0.118212,-9.823476,-83.186316,19.428551
289559,-0.019128,-0.113254,-0.098025,-9.456122,-83.260379,19.048005
289659,-0.088354,0.055817,-0.057536,-9.184075,-83.234865,18.723503
289759,-0.135954,0.136622,-0.024511,-9.037443,-83.160565,18.4978
289859,-0.176046,0.105392,0.009531,-9.09964,-83.100932,18.459264
289959,-0.231203,0.034642,0.04769,-9.423918,-83.077904,18.652886
290059,-0.279914,0.000803,0.092488,-10.00954,-83.069556,19.081665
290159,-0.307679,-0.043282,0.126197,-10.804564,-83.082024,19.705358
290259,-0.31595,-0.088213,0.135413,-11.69242,-83.117679,20.417753
290359,-0.284138,-0.120806,0.112255,-12.495782,-83.173161,21.063335
290459,-0.202374,-0.150315,0.067809,-13.087045,-83.249866,21.542406
290559,-0.111299,-0.168013,0.023511,-13.447123,-83.341812,21.841157
290659,-0.040278,-0.160762,-0.006444,-13.621863,-83.433576,21.994233
290759,0.003259,-0.14265,-0.015052,-13.711968,-83.51638,22.087199
290859,0.014605,-0.129489,-0.015231,-13.780668,-83.591875,22.165146
290959,0.013101,-0.128795,-0.012381,-13.865038,-83.666586,22.257975
291059,-0.009376,-0.119581,-0.001481,-14.007696,-83.73465,22.396471
291159,-0.0318,-0.104938,0.008896,-14.200138,-83.793081,22.572098
291259,-0.052124,-0.082154,0.016253,-14.415266,-83.837749,22.758811
291359,-0.060736,-0.039246,0.022565,-14.613015,-83.857637,22.923066
291459,-0.054143,-0.003982,0.037254,-14.835804,-83.855779,23.116303
291559,-0.045678,0.014378,0.052002,-15.104032,-83.841489,23.360124
291659,-0.035639,0.005926,0.06123,-15.424474,-83.830349,23.662255
291759,-0.027898,-0.033091,0.07004,-15.840658,-83.839177,24.065147
291859,-0.016444,-0.097403,0.074579,-16.37099,-83.882338,24.589427
291959,0.003552,-0.15495,0.071127,-16.96987,-83.957107,25.194103
292059,0.031379,-0.202335,0.055039,-17.561826,-84.059873,25.807744
292159,0.062083,-0.237849,0.037894,-18.12746,-84.184365,26.412475
292259,0.089238,-0.258816,0.020459,-18.646038,-84.322809,26.985398
292359,0.110422,-0.266769,0.009179,-19.131461,-84.467135,27.537055
292459,0.127458,-0.256998,0.001545,-19.570519,-84.607168,28.051799
292559,0.133906,-0.221209,0.000509,-19.948273,-84.727722,28.508562
292659,0.136875,-0.162583,0.005918,-20.246211,-84.815381,28.8868
292759,0.139305,-0.091828,0.007569,-20.404904,-84.864527,29.126574
292859,0.139854,-0.04133,0.018326,-20.517271,-84.884334,29.320134
292959,0.131579,-0.016445,0.03047,-20.651671,-84.888294,29.531044
293059,0.115759,-0.002678,0.040093,-20.821263,-84.882861,29.768182
293159,0.107007,0.024903,0.040315,-20.933278,-84.862549,29.942476
293259,0.115116,0.065498,0.041159,-20.951763,-84.820297,30.027528
293359,0.135889,0.095298,0.042822,-20.900005,-84.761725,30.053998
293459,0.160933,0.105851,0.049566,-20.849447,-84.696093,30.096083
293559,0.178267,0.122274,0.056888,-20.794775,-84.620137,30.144012
293659,0.188446,0.163051,0.073609,-20.740976,-84.518885,30.198685
293759,0.178588,0.230858,0.084703,-20.612957,-84.379004,30.173122
293859,0.18065,0.287952,0.100107,-20.45538,-84.205354,30.119031
293959,0.160627,0.325243,0.107558,-20.281965,-84.010149,30.037463
294059,0.12556,0.358832,0.111246,-20.092813,-83.7961,29.919824
294159,0.1097,0.402582,0.113387,-19.856427,-83.557988,29.745461
294259,0.133287,0.449411,0.113085,-19.542392,-83.294535,29.506446
294359,0.199748,0.518437,0.114049,-19.109219,-82.993329,29.185651
294459,0.269142,0.625677,0.127743,-18.572593,-82.631046,28.800438
294559,0.36067,0.690277,0.156241,-18.057329,-82.228025,28.489359
294659,0.398645,0.663417,0.179537,-17.683121,-81.835248,28.342399
294759,0.385276,0.674842,0.203212,-17.413577,-81.432076,28.293351
294859,0.352858,0.686511,0.226147,-17.243798,-81.018696,28.326409
294959,0.261994,0.566784,0.240629,-17.303199,-80.668574,28.538903
295059,0.11118,0.310513,0.20701,-17.591097,-80.464491,28.895586
295159,-0.019468,-0.018046,0.129491,-18.033329,-80.453166,29.332952
295259,-0.083152,-0.341079,0.03894,-18.568763,-80.633517,29.827681
295359,-0.083752,-0.542011,-0.035783,-19.107474,-80.936078,30.325018
295459,-0.066169,-0.623203,-0.088392,-19.588637,-81.291913,30.773836
295559,-0.064508,-0.609482,-0.111881,-20.004186,-81.644409,31.156836
295659,-0.035851,-0.537137,-0.097953,-20.389052,-81.954838,31.525104
295759,0.044628,-0.439483,-0.072857,-20.710987,-82.207463,31.876146
295859,0.12782,-0.305919,-0.045475,-20.911794,-82.382705,32.152894
295959,0.193151,-0.151992,-0.007585,-20.999418,-82.467679,32.353158
296059,0.2231,-0.036032,0.03713,-21.073472,-82.481385,32.557035
296159,0.212572,0.017029,0.071322,-21.20962,-82.459633,32.817473
296259,0.182083,0.032845,0.09575,-21.435562,-82.424284,33.150888
296359,0.11574,0.034743,0.108496,-21.744635,-82.385108,33.529841
296459,0.021025,0.012058,0.089525,-22.065536,-82.361883,33.865989
296559,-0.052414,-0.077805,0.034987,-22.356869,-82.398041,34.129825
296659,-0.103629,-0.167061,-0.013627,-22.634445,-82.492055,34.350127
296759,-0.130343,-0.2254,-0.05198,-22.877596,-82.62535,34.520204
296859,-0.176521,-0.260028,-0.088715,-23.063387,-82.785094,34.605713
296959,-0.219515,-0.276081,-0.118138,-23.183904,-82.959901,34.60058
297059,-0.239774,-0.271479,-0.127349,-23.269993,-83.134351,34.549072
297159,-0.233446,-0.256039,-0.125189,-23.33309,-83.300159,34.478082
297259,-0.204143,-0.252522,-0.123973,-23.377573,-83.463801,34.405287
297359,-0.164764,-0.233024,-0.127036,-23.344566,-83.617829,34.277244
297459,-0.1323,-0.207705,-0.11339,-23.302251,-83.755377,34.158598
297559,-0.114818,-0.176429,-0.080285,-23.343061,-83.868909,34.133679
297659,-0.095394,-0.146592,-0.035073,-23.534087,-83.956415,34.271039
297759,-0.079877,-0.136811,0.013373,-23.942932,-84.027504,34.636353
297859,-0.070506,-0.136554,0.04966,-24.538602,-84.089546,35.194865
297959,-0.058674,-0.129903,0.074356,-25.24914,-84.141465,35.875623
298059,-0.050109,-0.12462,0.08135,-25.98977,-84.187986,36.591511
298159,-0.05239,-0.125011,0.07197,-26.696986,-84.236122,37.272447
298259,-0.058755,-0.131462,0.058232,-27.366686,-84.290253,37.911958
298359,-0.066457,-0.1202,0.047691,-27.968861,-84.340707,38.479122
298459,-0.063175,-0.096527,0.035848,-28.452986,-84.381817,38.929513
298559,-0.062131,-0.06275,0.029344,-28.814301,-84.407323,39.257086
298659,-0.060909,-0.030264,0.029433,-29.085547,-84.41626,39.494861
298759,-0.060315,-0.003257,0.028146,-29.273022,-84.411877,39.648813
298859,-0.054811,0.027694,0.034734,-29.401666,-84.390075,39.746832
298959,-0.049545,0.062487,0.042536,-29.466439,-84.348644,39.783713
299059,-0.030211,0.106761,0.034622,-29.35507,-84.287299,39.654723
299159,0.011839,0.139728,0.015141,-29.03519,-84.21482,39.340375
299259,0.068643,0.128633,-0.005563,-28.619284,-84.153387,38.962191
299359,0.11132,0.079513,-0.02302,-28.231359,-84.121152,38.636696
299459,0.131817,0.033645,-0.03177,-27.912259,-84.114207,38.392198
299559,0.139982,0.011788,-0.034617,-27.631974,-84.118913,38.191438
299659,0.159494,0.022356,-0.03974,-27.28824,-84.119436,37.938147
299759,0.200588,0.058153,-0.044549,-26.80754,-84.102714,37.570843
299859,0.234105,0.100231,-0.041688,-26.221689,-84.063302,37.117124
299959,0.240976,0.124471,-0.037141,-25.604173,-84.009738,36.635497
300059,0.212714,0.147065,-0.025018,-25.020267,-83.940944,36.171336
300159,0.144344,0.186328,-0.012323,-24.461603,-83.848154,35.693095
300259,0.044308,0.217513,-0.005265,-23.942216,-83.736905,35.196609
300359,-0.04111,0.25902,-0.004697,-23.406531,-83.603254,34.634356
300459,-0.05054,0.331092,0.001114,-22.785185,-83.429722,33.980267
300559,-0.010349,0.394782,-0.005188,-22.029401,-83.223032,33.213741
300659,0.021493,0.35663,-0.044962,-21.191685,-83.043977,32.382745
300759,-0.049485,0.170549,-0.096079,-20.51542,-82.973875,31.673204
300859,-0.12692,-0.116466,-0.109044,-20.298908,-83.05999,31.38216
300959,-0.169756,-0.352385,-0.121057,-20.439154,-83.275313,31.425795
301059,-0.195244,-0.498548,-0.124049,-20.846879,-83.56964,31.723958
301159,-0.201091,-0.541366,-0.118264,-21.40344,-83.885366,32.168302
301259,-0.209911,-0.44879,-0.098502,-21.928187,-84.147105,32.575339
301359,-0.200149,-0.268967,-0.054827,-22.328144,-84.30357,32.862422
301459,-0.190417,-0.097139,0.011082,-22.709974,-84.354386,33.136842
301559,-0.184187,0.010722,0.073245,-23.180668,-84.334191,33.504143
301659,-0.193224,0.066697,0.1208,-23.774417,-84.27341,33.989926
301759,-0.20097,0.088003,0.164554,-24.536348,-84.190704,34.640341
301859,-0.180238,0.07783,0.214748,-25.542464,-84.100165,35.548255
301959,-0.141771,0.012132,0.24598,-26.811504,-84.033764,36.742785
302059,-0.100104,-0.059497,0.244062,-28.203509,-84.001498,38.085055
302159,-0.061713,-0.106033,0.205821,-29.50209,-83.999951,39.355536
302259,-0.039328,-0.136608,0.133435,-30.531576,-84.031683,40.368298
302359,-0.040727,-0.158143,0.06102,-31.293213,-84.093704,41.110868
302459,-0.056595,-0.192956,0.009505,-31.93812,-84.187259,41.726847
302559,-0.068092,-0.233533,-0.017579,-32.604516,-84.308033,42.357682
302659,-0.072472,-0.276862,-0.026928,-33.395226,-84.451722,43.110762
302759,-0.076832,-0.317908,-0.020998,-34.398725,-84.611848,44.074895
302859,-0.091687,-0.348219,-0.008553,-35.643932,-84.780251,45.27296
302959,-0.114873,-0.362235,0.009481,-37.130636,-84.946284,46.699832
303059,-0.13478,-0.356893,0.025178,-38.785672,-85.100791,48.283864
303159,-0.143542,-0.344117,0.032221,-40.528924,-85.242925,49.951031
303259,-0.141911,-0.314492,0.035435,-42.249779,-85.366774,51.59634
303359,-0.135812,-0.279483,0.035723,-43.883054,-85.471836,53.157027
303459,-0.137884,-0.265699,0.038407,-45.532964,-85.566572,54.732993
303559,-0.149954,-0.272081,0.037477,-47.289317,-85.660509,56.408576
303659,-0.152412,-0.296398,0.031002,-49.230437,-85.762314,58.267812
303759,-0.148597,-0.324991,0.027254,-51.418558,-85.87117,60.376641
303859,-0.130981,-0.34512,0.024975,-53.830237,-85.981822,62.719413
303959,-0.113608,-0.349786,0.02016,-56.371425,-86.088991,65.20166
304059,-0.087272,-0.329286,0.015361,-58.860523,-86.184572,67.646511
304159,-0.045628,-0.294536,0.013018,-61.16881,-86.264395,69.933812
304259,0.005461,-0.264344,0.009261,-63.28663,-86.332189,72.059381
304359,0.052847,-0.242201,0.009356,-65.270492,-86.38946,74.077774
304459,0.091507,-0.222804,0.013607,-67.14351,-86.435654,76.007186
304559,0.109512,-0.213526,0.018766,-68.989542,-86.473154,77.919808
304659,0.101799,-0.191801,0.019363,-70.686701,-86.502351,79.678778
304759,0.071072,-0.132927,0.021867,-71.906668,-86.516624,80.941986
304859,0.045295,-0.065161,0.033962,-72.573392,-86.511211,81.636111
304959,0.06709,-0.030494,0.044872,-72.943627,-86.493599,82.045698
305059,0.132365,-0.017389,0.0569,-73.187643,-86.467116,82.366295
305159,0.1984,-0.012831,0.05783,-73.351426,-86.439334,82.64441
305259,0.216506,0.021301,0.054455,-73.193113,-86.407788,82.610197
305359,0.188191,0.104693,0.059356,-72.345785,-86.359393,81.869333
305459,0.119215,0.203365,0.069418,-70.759078,-86.286661,80.347908
305559,0.026339,0.293958,0.092544,-68.627646,-86.180373,78.227089
305659,-0.062244,0.364247,0.113881,-66.19848,-86.041898,75.756663
305759,-0.10117,0.444392,0.123484,-63.421582,-85.871461,72.914806
305859,-0.048708,0.514433,0.125737,-60.388407,-85.671069,69.845443
305959,0.025698,0.501201,0.118981,-57.64519,-85.466808,67.108839
306059,0.015088,0.426114,0.093684,-55.477471,-85.289556,64.942784
306159,-0.058195,0.345531,0.061578,-53.819467,-85.148363,63.245589
306259,-0.171149,0.239166,0.025746,-52.734603,-85.056808,62.058384
306359,-0.305887,0.090008,-0.01813,-52.362092,-85.035991,61.508612
306459,-0.353279,-0.064994,-0.051176,-52.698975,-85.084273,61.643638
306559,-0.306775,-0.168768,-0.071009,-53.495792,-85.177244,62.266995
306659,-0.204806,-0.221367,-0.080254,-54.521218,-85.291343,63.178295
306759,-0.07707,-0.246428,-0.084499,-55.651215,-85.41416,64.2678
306859,0.051515,-0.246851,-0.098952,-56.712073,-85.54221,65.361682
306959,0.160604,-0.220838,-0.118573,-57.52765,-85.670095,66.27208
307059,0.273297,-0.164741,-0.126991,-57.924807,-85.784067,66.827517
307159,0.390293,-0.089653,-0.128836,-57.765146,-85.875889,66.891814
307259,0.472157,-0.00765,-0.12593,-57.009472,-85.940988,66.405606
307359,0.487201,0.06212,-0.111572,-55.817308,-85.97651,65.490501
307459,0.43418,0.109057,-0.070912,-54.516833,-85.976142,64.436387
307559,0.32548,0.141766,-0.01231,-53.350264,-85.936022,63.454054
307659,0.213961,0.11727,0.043744,-52.695604,-85.877612,62.920819
307759,0.119572,0.131263,0.111476,-52.348718,-85.783199,62.641899
307859,0.084485,0.187864,0.178914,-52.011929,-85.638258,62.352904
307959,0.052396,0.192631,0.202127,-51.79106,-85.481068,62.161681
308059,-0.002698,0.156843,0.180455,-51.718496,-85.3463,62.087533
308159,-0.074206,0.120469,0.12688,-51.658748,-85.248554,61.985123
308259,-0.123093,0.065259,0.063357,-51.656461,-85.199004,61.912253
308359,-0.101676,-0.004962,0.005475,-51.773393,-85.200445,61.971331
308459,-0.028495,-0.063688,-0.042433,-51.962692,-85.244251,62.1451
308559,0.061307,-0.111573,-0.084593,-52.186913,-85.32391,62.405524
308659,0.133133,-0.135925,-0.116637,-52.375761,-85.426514,62.671719
308759,0.178488,-0.120045,-0.137494,-52.362638,-85.532936,62.761348
308859,0.189261,-0.072863,-0.141833,-52.044701,-85.624715,62.55144
308959,0.183812,-0.030428,-0.137113,-51.486425,-85.699147,62.097404
309059,0.166616,-0.008623,-0.133764,-50.805305,-85.763832,61.51035
309159,0.139804,-0.013491,-0.121843,-50.209177,-85.824496,60.99317
309259,0.102897,-0.036213,-0.110799,-49.812919,-85.88831,60.655232
309359,0.076074,-0.064916,-0.094195,-49.684734,-85.955337,60.570676
309459,0.053283,-0.097072,-0.079986,-49.844137,-86.028005,60.761342
309559,0.026716,-0.102467,-0.06153,-50.159594,-86.09445,61.093169
309659,0.00528,-0.102032,-0.046039,-50.579765,-86.153696,61.517628
309759,-0.001225,-0.102281,-0.029902,-51.106294,-86.205561,62.044935
309859,0.010681,-0.104456,-0.02082,-51.704753,-86.253718,62.651149
309959,0.035614,-0.118183,-0.015773,-52.428099,-86.30389,63.396813
310059,0.05937,-0.129,-0.01377,-53.246288,-86.356157,64.251128
310159,0.070048,-0.114186,-0.014152,-53.97053,-86.402745,65.017406
310259,0.051105,-0.072018,-0.012589,-54.416067,-86.4339,65.493537
310359,0.017451,-0.029066,-0.013098,-54.56079,-86.450778,65.648951
310459,-0.011554,0.003448,-0.016136,-54.460582,-86.458198,65.542316
310559,-0.037634,0.028326,-0.022935,-54.149958,-86.460396,65.209896
310659,-0.053073,0.053122,-0.040217,-53.567001,-86.462013,64.595763
310759,-0.053067,0.072059,-0.065366,-52.702173,-86.468135,63.699233
310859,-0.031888,0.074996,-0.09429,-51.63391,-86.485336,62.611061
310959,-0.005241,0.061873,-0.112533,-50.52661,-86.514063,61.49912
311059,0.021147,0.040055,-0.119315,-49.50223,-86.552466,60.485456
311159,0.039368,0.027601,-0.118112,-48.542906,-86.593883,59.547492
311259,0.065816,0.038975,-0.106366,-47.541671,-86.624881,58.582787
311359,0.123313,0.088657,-0.088485,-46.259517,-86.627691,57.369727
311459,0.182909,0.166169,-0.058682,-44.618698,-86.585215,55.831589
311559,0.224915,0.243356,-0.032781,-42.678233,-86.497513,54.017297
311659,0.231302,0.315578,-0.016006,-40.514848,-86.368459,51.98313
311759,0.181238,0.395791,-0.005274,-38.166292,-86.194925,49.734326
311859,0.075308,0.505755,-0.001395,-35.578295,-85.963416,47.184148
311959,-0.039786,0.597107,-0.022589,-32.819395,-85.687515,44.395671
312059,-0.106104,0.626502,-0.063594,-30.076281,-85.400121,41.583845
312159,-0.121482,0.59759,-0.091392,-27.596686,-85.125389,39.026455
312259,-0.121018,0.546782,-0.10542,-25.446733,-84.872163,36.799194
312359,-0.143116,0.469447,-0.13466,-23.542258,-84.659715,34.804893
312459,-0.186378,0.347737,-0.172442,-21.873537,-84.514631,33.021911
312559,-0.24131,0.178685,-0.176299,-20.65112,-84.456669,31.655378
312659,-0.268095,-0.013935,-0.15295,-19.983252,-84.495616,30.830538
312759,-0.223099,-0.203157,-0.145383,-19.702742,-84.634576,30.42082
312859,-0.120087,-0.31645,-0.147326,-19.569652,-84.835006,30.218521
312959,-0.067269,-0.339389,-0.13702,-19.506239,-85.04587,30.116608
313059,-0.114102,-0.290537,-0.101267,-19.582161,-85.22353,30.127624
313159,-0.214937,-0.162908,-0.043522,-19.800074,-85.321192,30.223139
313259,-0.291652,-0.004381,0.021502,-20.11748,-85.320745,30.374369
313359,-0.30743,0.078191,0.065634,-20.531575,-85.26713,30.613547
313459,-0.31411,0.071151,0.096868,-21.159294,-85.210836,31.063266
313559,-0.330354,0.011634,0.116549,-22.058147,-85.181717,31.775761
313659,-0.330562,-0.063624,0.13461,-23.260183,-85.187429,32.792407
