time,gx,gy,gz,ax,ay,az,mx,my,mz,p
303336,0.01362,-0.083963,-0.000807,0.256946907,0.015023196,0.972274948,-0.258969,0.235543,-0.672658,1016.549011
303436,0.015053,-0.080056,0.019127,0.26333134,0.008717526,0.980900619,-0.250921,0.237104,-0.676578,1016.549011
303536,0.009349,-0.064894,0.047106,0.264583093,0.000869072,0.988185979,-0.249468,0.240448,-0.673901,1016.549011
303636,0.009288,-0.055175,0.06774,0.262394742,-0.002668041,0.988870309,-0.242004,0.235845,-0.674127,1016.549011
303736,0.011833,-0.050256,0.080947,0.257927732,-0.008858144,0.982859485,-0.244973,0.236439,-0.675102,1016.550781
303836,0.01141,-0.04487,0.090859,0.254448969,-0.00739701,0.979945361,-0.24,0.236834,-0.674575,1016.550781
303936,0.015466,-0.05201,0.095864,0.251261753,-0.003161856,0.975205773,-0.239506,0.234335,-0.674702,1016.550781
304036,0.018541,-0.072197,0.094858,0.242966289,0.005145979,0.96874732,-0.22806,0.233631,-0.674224,1016.550781
304136,0.022941,-0.087221,0.090944,0.237386392,0.014371649,0.962615876,-0.229049,0.232176,-0.6748,1016.550781
304236,0.026762,-0.100541,0.089019,0.233433608,0.023255567,0.961554639,-0.220045,0.232628,-0.676771,1016.550781
304336,0.029969,-0.107015,0.080399,0.235777423,0.038992577,0.965530825,-0.219006,0.235698,-0.678618,1016.550781
304436,0.028204,-0.107179,0.0618,0.247088557,0.046600515,0.972614742,-0.210472,0.236231,-0.682088,1016.550781
304536,0.028719,-0.096495,0.053322,0.259979278,0.045996598,0.98251134,-0.210994,0.238657,-0.680462,1016.550781
304636,0.022168,-0.076227,0.048173,0.265522784,0.047169381,0.993848041,-0.200509,0.236571,-0.68206,1016.550781
304736,0.017698,-0.053289,0.033371,0.254055464,0.046144124,0.996791134,-0.198983,0.238612,-0.683457,1016.550781
304836,0.015915,-0.038342,-0.002865,0.237492165,0.043272371,0.992451546,-0.189547,0.23839,-0.681955,1016.550781
304936,0.016608,-0.034854,-0.05118,0.223029381,0.034073814,0.982005464,-0.193055,0.236902,-0.681033,1016.550781
305036,0.020092,-0.046446,-0.09612,0.215788144,0.035979588,0.968060825,-0.189534,0.23495,-0.683132,1016.550781
305136,0.021236,-0.0727,-0.125195,0.216481753,0.029730309,0.952116186,-0.190106,0.235264,-0.679109,1016.550781
305236,0.019706,-0.112829,-0.141998,0.217711856,0.029285258,0.945470928,-0.184565,0.238809,-0.681928,1016.550781
305336,0.015931,-0.144643,-0.140449,0.229848247,0.014556392,0.948415567,-0.181502,0.238954,-0.685926,1016.55011
305436,0.008832,-0.170881,-0.125219,0.237106186,0.000323402,0.953958454,-0.171488,0.241408,-0.688294,1016.55011
305536,0.005941,-0.187151,-0.104593,0.246378144,-0.018430515,0.960908144,-0.174431,0.241077,-0.69082,1016.55011
305636,0.017103,-0.202985,-0.083825,0.255507835,-0.028137732,0.965879278,-0.164389,0.244102,-0.694663,1016.55011
305736,0.026293,-0.210657,-0.065718,0.266465155,-0.028256392,0.983329072,-0.161327,0.243748,-0.698686,1016.55011
305836,0.038378,-0.206071,-0.044189,0.272900928,-0.023253093,0.994655567,-0.153786,0.245791,-0.70208,1016.55011
305936,0.047726,-0.208115,-0.01517,0.264552165,-0.010396289,0.99713732,-0.15331,0.243742,-0.701182,1016.55011
306036,0.055633,-0.218088,0.008949,0.25213866,0.007841031,0.989994021,-0.139229,0.240893,-0.708827,1016.55011
306136,0.055665,-0.22788,0.030759,0.24678701,0.024547938,0.984491237,-0.140748,0.237381,-0.708006,1016.55011
306236,0.05165,-0.227657,0.054602,0.243736495,0.045046289,0.974946907,-0.128718,0.237384,-0.712001,1016.55011
306336,0.039111,-0.229851,0.077308,0.239255979,0.060804845,0.967416701,-0.126164,0.236516,-0.715549,1016.55011
306436,0.023157,-0.242968,0.097158,0.234917113,0.07942433,0.960976186,-0.115554,0.237234,-0.723518,1016.55011
306536,0.010173,-0.267056,0.106478,0.238047216,0.086164433,0.964686598,-0.112413,0.239565,-0.731412,1016.55011
306636,0.000239,-0.280885,0.100446,0.24906268,0.090758454,0.971458351,-0.101339,0.241673,-0.737305,1016.55011
306736,-0.010077,-0.279531,0.099683,0.253969278,0.093575361,0.974107732,-0.100189,0.244534,-0.745174,1016.55011
306836,-0.023595,-0.274014,0.101356,0.253176804,0.096840206,0.970298454,-0.086076,0.248707,-0.753463,1016.55011
306936,-0.031726,-0.275914,0.10355,0.248406701,0.096272577,0.964756495,-0.085566,0.24526,-0.754641,1016.55011
307036,-0.036581,-0.282649,0.111391,0.24126701,0.099704124,0.960855361,-0.073424,0.251009,-0.763854,1016.55011
307136,-0.037574,-0.285643,0.125766,0.239150412,0.098827526,0.962275155,-0.073812,0.250807,-0.769877,1016.55011
307236,-0.033299,-0.285659,0.142936,0.245139485,0.106871031,0.976548454,-0.063658,0.248664,-0.780497,1016.55011
307336,-0.028906,-0.277204,0.164991,0.243463711,0.11228,0.995570206,-0.068085,0.248879,-0.783497,1016.55011
307436,-0.023847,-0.275506,0.178355,0.240751753,0.11924866,1.016953505,-0.058986,0.24561,-0.791169,1016.55011
307536,-0.020875,-0.279169,0.177264,0.248190412,0.127510928,1.033316907,-0.0574,0.244831,-0.796217,1016.55011
307636,-0.013774,-0.291927,0.148339,0.263898144,0.139375567,1.03114299,-0.0488,0.24603,-0.803161,1016.55011
307736,-0.012761,-0.312966,0.093662,0.282551649,0.144052474,1.024609072,-0.048714,0.247244,-0.807609,1016.55011
307836,-0.020714,-0.311973,0.052871,0.292942371,0.14465,1.023903402,-0.04111,0.2435,-0.815307,1016.55011
307936,-0.031839,-0.289247,0.034229,0.285353402,0.14132732,1.030367938,-0.040558,0.242641,-0.818357,1016.55011
308036,-0.040035,-0.261151,0.030857,0.27369701,0.130547216,1.035326598,-0.030974,0.241807,-0.824902,1016.55011
308136,-0.043435,-0.232787,0.045043,0.270239485,0.112268969,1.027536598,-0.032939,0.236454,-0.827181,1016.55011
308236,-0.050394,-0.223759,0.067131,0.264599175,0.100583608,1.004265773,-0.022427,0.233942,-0.830303,1016.55011
308336,-0.060552,-0.240637,0.088908,0.262097938,0.088593093,0.978965876,-0.025503,0.23178,-0.825908,1016.55011
308436,-0.076037,-0.273551,0.090444,0.270704742,0.082418041,0.960923196,-0.015037,0.224188,-0.827285,1016.55011
308536,-0.088526,-0.299867,0.081933,0.282981134,0.084264742,0.952901546,-0.013021,0.221738,-0.828911,1016.55188
308636,-0.09586,-0.319452,0.067543,0.27973134,0.092892887,0.942121856,-0.001938,0.218912,-0.836057,1016.55188
308736,-0.10658,-0.339824,0.053148,0.264182062,0.110833918,0.93007134,0.001768,0.2224,-0.847399,1016.55188
308836,-0.119237,-0.364659,0.044967,0.241818866,0.123749691,0.917681237,0.013574,0.2256,-0.865761,1016.55188
308936,-0.136174,-0.389682,0.04806,0.217891753,0.125728041,0.909820619,0.020411,0.230897,-0.884523,1016.55188
309036,-0.148576,-0.419818,0.064977,0.196857938,0.125218866,0.911928454,0.034254,0.238148,-0.904681,1016.55188
309136,-0.151171,-0.451382,0.077579,0.182555464,0.115593608,0.919519072,0.03409,0.238524,-0.922699,1016.55188
309236,-0.14903,-0.490244,0.086356,0.188031546,0.097714845,0.923773299,0.043258,0.236919,-0.933794,1016.55188
309336,-0.139148,-0.525353,0.086907,0.200269485,0.082571856,0.921404948,0.042974,0.242937,-0.94451,1016.55188
309436,-0.13043,-0.553247,0.073972,0.211814124,0.079397732,0.916741237,0.046318,0.244303,-0.963477,1016.55188
309536,-0.120612,-0.563818,0.060381,0.222468763,0.084726598,0.918514845,0.044132,0.249099,-0.979268,1016.55188
309636,-0.113113,-0.558905,0.052147,0.222111753,0.100249897,0.925723505,0.042917,0.249846,-0.994263,1016.55188
309736,-0.107964,-0.550601,0.048442,0.214167835,0.118809794,0.934617526,0.03426,0.257235,-1.009929,1016.55188
309836,-0.098129,-0.541183,0.039145,0.207205773,0.135513918,0.943964948,0.028512,0.255939,-1.022527,1016.55188
309936,-0.094098,-0.532769,0.032602,0.192940722,0.152479175,0.949021031,0.017189,0.258451,-1.029427,1016.55188
310036,-0.093901,-0.530992,0.015826,0.189395876,0.163513093,0.956862268,0.010396,0.256054,-1.039577,1016.55188
310136,-0.097766,-0.518956,-0.005443,0.195819278,0.167468763,0.970297216,-0.00405,0.255785,-1.039607,1016.55188
310236,-0.107574,-0.483559,-0.007625,0.20831134,0.157462268,0.978753918,-0.015029,0.254914,-1.038662,1016.55188
310336,-0.116479,-0.441774,0.002869,0.214097216,0.135129691,0.978990412,-0.027952,0.255192,-1.040165,1016.55188
310436,-0.117716,-0.409355,0.016771,0.208744124,0.116172784,0.966683402,-0.03043,0.257248,-1.040564,1016.55188
310536,-0.110648,-0.388057,0.027631,0.199853814,0.093654742,0.953753608,-0.043858,0.259005,-1.041492,1016.55188
310636,-0.094168,-0.380774,0.029692,0.192256082,0.080575258,0.951065155,-0.046855,0.25407,-1.041747,1016.55188
310736,-0.072284,-0.37606,0.028912,0.188803814,0.070536804,0.956133505,-0.060796,0.25282,-1.042327,1016.55188
310836,-0.046203,-0.369685,0.036814,0.182762268,0.071704227,0.967321031,-0.061724,0.249542,-1.046504,1016.55188
310936,-0.024277,-0.353627,0.050811,0.17940433,0.084602165,0.97787866,-0.071094,0.250431,-1.051479,1016.55188
311036,-0.007948,-0.334418,0.071695,0.174129175,0.090207216,0.991094433,-0.071921,0.251877,-1.060425,1016.55188
311136,0.011493,-0.301307,0.101579,0.175562577,0.089012268,0.998137113,-0.083866,0.252589,-1.060903,1016.55188
311236,0.027272,-0.267498,0.117627,0.181106907,0.096701959,1.00258433,-0.086244,0.253415,-1.066876,1016.55188
311336,0.040041,-0.232238,0.115347,0.19248433,0.104935876,1.006301856,-0.096625,0.251307,-1.071505,1016.55188
311436,0.05911,-0.200528,0.097877,0.204302577,0.12266866,1.005421959,-0.095556,0.250487,-1.075554,1016.55188
311536,0.081819,-0.173456,0.070029,0.219267732,0.143869794,1.008180206,-0.103451,0.250806,-1.079555,1016.55188
311636,0.10107,-0.146292,0.043746,0.223239794,0.156483608,1.009088351,-0.097907,0.245432,-1.083831,1016.55188
311736,0.116922,-0.122039,0.030893,0.222123918,0.169302784,1.005233814,-0.106276,0.244336,-1.089407,1016.549561
311836,0.122628,-0.091715,0.032522,0.212296495,0.162154227,1.01145567,-0.100278,0.239829,-1.091134,1016.549561
311936,0.126995,-0.069412,0.03683,0.203305876,0.144741546,1.029818969,-0.104284,0.23835,-1.090211,1016.549561
312036,0.129811,-0.045537,0.040873,0.205800722,0.125965979,1.055367113,-0.101187,0.236598,-1.09631,1016.549561
312136,0.140878,-0.028364,0.03576,0.223909485,0.122540309,1.079511856,-0.102163,0.237659,-1.097259,1016.549561
312236,0.152336,-0.01144,0.014426,0.251630206,0.132318247,1.095792784,-0.097093,0.23533,-1.102382,1016.549561
312336,0.162778,0.012451,-0.007268,0.28045701,0.151306186,1.114663299,-0.099446,0.234734,-1.109931,1016.549561
312436,0.171134,0.054602,-0.02134,0.298716289,0.171347113,1.134348247,-0.08872,0.237733,-1.123796,1016.549561
312536,0.180225,0.104926,-0.028683,0.309866495,0.184629485,1.154178557,-0.085481,0.243294,-1.136535,1016.549561
312636,0.183571,0.166704,-0.029175,0.318992577,0.186570206,1.166838351,-0.07571,0.243441,-1.153051,1016.549561
312736,0.177779,0.234771,-0.027889,0.325894845,0.175807113,1.180209175,-0.066805,0.254355,-1.175032,1016.549561
312836,0.171475,0.310334,-0.013055,0.325934021,0.162479072,1.205003608,-0.043323,0.261415,-1.204708,1016.549561
312936,0.170189,0.411895,0.009119,0.329658144,0.145619485,1.233445876,-0.024387,0.274332,-1.230083,1016.549561
313036,0.174278,0.542537,0.040892,0.334574639,0.124480825,1.263693093,0.007515,0.279643,-1.257333,1016.549561
313136,0.186421,0.679181,0.075257,0.32112,0.105576907,1.290856907,0.041934,0.289447,-1.285354,1016.549561
313236,0.201843,0.76923,0.100525,0.272869485,0.09505567,1.298003608,0.089802,0.299036,-1.313371,1016.549561
313336,0.213299,0.784691,0.105584,0.19582732,0.115000206,1.281637423,0.132982,0.308168,-1.330394,1016.549561
313436,0.210853,0.752333,0.051204,0.138842887,0.159732268,1.242294433,0.193696,0.316291,-1.35296,1016.549561
313536,0.188037,0.698466,-0.075364,0.077183093,0.195560825,1.178762062,0.244238,0.330969,-1.363178,1016.549561
313636,0.153153,0.596557,-0.205417,0.00038,0.206585155,1.107230412,0.299721,0.343977,-1.371471,1016.549561
313736,0.108096,0.445179,-0.284623,-0.068994227,0.20415268,1.045881546,0.342824,0.372749,-1.38148,1016.549561
313836,0.055645,0.277946,-0.282825,-0.115775258,0.168387629,0.995338351,0.38733,0.396298,-1.387244,1016.549561
313936,0.011311,0.111149,-0.20571,-0.13759567,0.103157732,0.957159278,0.410302,0.429316,-1.385535,1016.549561
314036,-0.018127,-0.026962,-0.068842,-0.115314124,0.02385,0.913589381,0.432754,0.454844,-1.383707,1016.549561
314136,-0.0405,-0.087871,0.101768,-0.070395155,-0.05587299,0.87360701,0.442089,0.480642,-1.372862,1016.549561
314236,-0.05935,-0.04366,0.258909,-0.017938454,-0.140589588,0.848513608,0.458536,0.501733,-1.370265,1016.549561
314336,-0.06742,0.074886,0.380009,0.018975773,-0.210806804,0.849355464,0.467059,0.527032,-1.369466,1016.549561
314436,-0.049357,0.197072,0.448449,0.022,-0.239152784,0.862007526,0.496516,0.538644,-1.371347,1016.549561
314536,-0.02024,0.253474,0.472095,-0.004903402,-0.185689588,0.871162371,0.517644,0.556207,-1.379947,1016.549561
314636,-0.013691,0.261124,0.481794,-0.029815361,-0.114896907,0.884984021,0.546207,0.5681,-1.387326,1016.549561
314736,-0.021755,0.273878,0.484895,-0.051481546,-0.050648351,0.927392784,0.566396,0.580367,-1.399705,1016.549561
314836,-0.030004,0.288378,0.479443,-0.05320299,0.003946289,0.99740701,0.588998,0.58595,-1.408915,1016.549561
314936,-0.02684,0.313353,0.444957,-0.028308969,0.049251443,1.079083196,0.600895,0.584619,-1.405963,1016.549561
315036,-0.006457,0.328082,0.386439,-0.006035464,0.077402371,1.15120732,0.61152,0.568703,-1.390228,1016.549561
315136,0.023694,0.263882,0.328237,-0.005027526,0.083175567,1.17717567,0.606447,0.544933,-1.361884,1016.549561
315236,0.051782,0.129855,0.258127,0.006243814,0.076426082,1.163154021,0.601138,0.512614,-1.321951,1016.549561
315336,0.073624,0.004813,0.173656,0.047642165,0.066810619,1.125753711,0.580718,0.480596,-1.273002,1016.549561
315436,0.085824,-0.059713,0.113694,0.10195299,0.059715979,1.068785979,0.560776,0.442567,-1.223856,1016.549561
315536,0.082279,-0.085182,0.101871,0.137959485,0.061447526,0.992691443,0.533385,0.412653,-1.174807,1016.549561
315636,0.062294,-0.09794,0.109203,0.164742165,0.052973402,0.933735876,0.514136,0.385039,-1.13465,1016.549561
315736,0.041069,-0.088937,0.125345,0.16547134,0.041610825,0.886059794,0.49151,0.367187,-1.099009,1016.549561
315836,0.01702,-0.074282,0.1587,0.150954227,0.025973608,0.837415773,0.489508,0.352506,-1.073706,1016.549561
315936,-0.008449,-0.056947,0.204737,0.14194134,0.011143918,0.795922371,0.480178,0.346253,-1.054996,1016.549561
316036,-0.03069,-0.04459,0.239061,0.136404433,-0.002908866,0.771171237,0.483911,0.340082,-1.042279,1016.549561
316136,-0.043886,-0.019979,0.265932,0.137855258,-0.008447835,0.766229691,0.479834,0.340403,-1.037256,1016.549561
316236,-0.050832,-0.00075,0.284801,0.139891443,-0.007788866,0.774233711,0.486263,0.34018,-1.034755,1016.549561
316336,-0.054336,-0.005529,0.294983,0.130005464,0.006518866,0.809017629,0.483343,0.347846,-1.037374,1016.549561
316436,-0.054174,-0.025025,0.286367,0.126841856,0.025076804,0.859774845,0.487808,0.347726,-1.036373,1016.549561
316536,-0.053322,-0.05847,0.271369,0.13017701,0.024032784,0.905551649,0.480768,0.352626,-1.032123,1016.547302
316636,-0.052271,-0.095441,0.237841,0.136948454,0.018104227,0.931049794,0.475813,0.351283,-1.0337,1016.547302
316736,-0.051124,-0.12956,0.197787,0.143476392,0.012708866,0.924832165,0.462893,0.35901,-1.034323,1016.547302
316836,-0.055458,-0.145069,0.172933,0.139795876,0.00942299,0.909651959,0.46089,0.358021,-1.033874,1016.547302
316936,-0.052461,-0.144193,0.161426,0.133653918,0.00287299,0.909833093,0.450502,0.36284,-1.037148,1016.547302
317036,-0.039085,-0.141386,0.151874,0.124076701,-0.00504433,0.921644433,0.444998,0.364349,-1.035573,1016.547302
317136,-0.02412,-0.153205,0.143922,0.132810825,-0.010527526,0.935009588,0.429976,0.361902,-1.031707,1016.547302
317236,-0.008293,-0.165364,0.132046,0.163731546,-0.010724124,0.951839278,0.423793,0.356509,-1.021467,1016.547302
317336,0.006787,-0.17985,0.121126,0.201036186,-0.013807732,0.965984948,0.407289,0.355605,-1.018024,1016.547302
317436,0.015919,-0.179712,0.1041,0.228214021,-0.01420732,0.970441443,0.404141,0.354745,-1.009554,1016.547302
317536,0.016694,-0.164647,0.077522,0.23950134,-0.013274124,0.960978557,0.395033,0.353529,-1.00211,1016.547302
317636,0.006437,-0.147233,0.062224,0.231200825,-0.013410825,0.934117113,0.397001,0.349962,-1.001288,1016.547302
317736,-0.007736,-0.127184,0.059613,0.205192371,-0.020438351,0.908338557,0.398537,0.357982,-1.00238,1016.547302
317836,-0.015184,-0.109244,0.06744,0.176855361,-0.030542784,0.89683567,0.413757,0.361931,-1.016692,1016.547302
317936,-0.024345,-0.09186,0.07659,0.154713711,-0.032032371,0.894453814,0.419548,0.375545,-1.031524,1016.547302
318036,-0.034235,-0.059978,0.074345,0.147499278,-0.027243196,0.913420722,0.435437,0.387369,-1.053951,1016.547302
318136,-0.047345,-0.039848,0.065438,0.145310619,-0.014428969,0.939818866,0.443334,0.401738,-1.074755,1016.549011
318236,-0.064827,-0.032877,0.04912,0.157846289,-0.001232784,0.987014845,0.458736,0.41459,-1.097631,1016.549011
318336,-0.07907,-0.026399,0.030764,0.183095258,0.003818454,1.046323299,0.469636,0.426967,-1.119535,1016.549011
318436,-0.086067,-0.016195,0.00601,0.212875464,0.008197938,1.102039175,0.481012,0.432337,-1.141294,1016.549011
318536,-0.097051,0.005885,-0.015004,0.238599175,0.009812268,1.141633608,0.482236,0.440349,-1.152408,1016.549011
318636,-0.100941,0.051789,-0.023523,0.256260825,-0.001223918,1.171389485,0.495294,0.442899,-1.157775,1016.549011
318736,-0.101661,0.11652,-0.018528,0.252809897,-0.018579897,1.172926289,0.500349,0.443012,-1.161772,1016.549011
318836,-0.103827,0.184268,-0.011899,0.22887701,-0.025857732,1.156833402,0.519344,0.443379,-1.165239,1016.549011
318936,-0.106189,0.274673,-0.009388,0.221046907,-0.038843814,1.141865979,0.525247,0.443092,-1.161239,1016.549011
319036,-0.10865,0.360817,-0.017928,0.235990619,-0.059938454,1.139958763,0.546086,0.433125,-1.158216,1016.549011
319136,-0.113627,0.426152,-0.022602,0.255083918,-0.074112062,1.15079732,0.562314,0.424387,-1.148122,1016.549011
319236,-0.109157,0.494195,-0.023235,0.289631031,-0.063578763,1.183952268,0.586077,0.414204,-1.1416,1016.549011
319336,-0.109022,0.590265,-0.015474,0.325244845,-0.032960412,1.232874227,0.613207,0.404649,-1.128529,1016.549011
319436,-0.114829,0.691617,0.005739,0.328414948,0.027925567,1.307668866,0.651704,0.38625,-1.111887,1016.549011
319536,-0.120081,0.749394,0.016847,0.277837526,0.116318351,1.415485155,0.683597,0.37357,-1.087446,1016.549011
319636,-0.089678,0.631455,0.023295,0.170031134,0.148531959,1.483428866,0.712768,0.350911,-1.051992,1016.549011
319736,-0.013633,0.354005,0.032957,0.06794866,0.13576433,1.493490412,0.721274,0.322493,-1.00433,1016.549011
319836,0.040699,0.194706,0.051129,0.005426186,0.096463814,1.445209794,0.719006,0.285,-0.941108,1016.549011
319936,0.027805,0.211977,0.174793,-0.026030722,0.052263608,1.318651546,0.689883,0.25102,-0.879742,1016.549011
320036,-0.003287,0.234599,0.369614,-0.051823918,0.02362866,1.181035979,0.661759,0.208602,-0.819807,1016.549011
320136,-0.023346,0.189284,0.530873,-0.034561134,0.015837423,1.067308557,0.618865,0.175301,-0.767941,1016.549011
320236,-0.043869,0.084459,0.575121,0.017072062,0.027258866,0.988886392,0.59355,0.140115,-0.724169,1016.549011
320336,-0.033343,-0.020174,0.501673,0.068150928,0.048275773,0.942270309,0.561964,0.120437,-0.689132,1016.549011
320436,0.002127,-0.09567,0.317352,0.108528144,0.106780619,0.900505567,0.54839,0.093241,-0.659469,1016.549011
320536,0.064409,-0.154876,0.058964,0.119550103,0.199540103,0.870207526,0.536465,0.075351,-0.636846,1016.549011
320636,0.137786,-0.173142,-0.193217,0.102867938,0.300373711,0.834698866,0.540038,0.057361,-0.617217,1016.549011
320736,0.17944,-0.150592,-0.358904,0.056754433,0.381376804,0.783522165,0.541205,0.040125,-0.602061,1016.549011
320836,0.191946,-0.134079,-0.488983,-0.009649588,0.406309381,0.768519794,0.542497,0.030153,-0.592547,1016.549011
320936,0.176219,-0.123641,-0.569356,-0.068654845,0.396378866,0.794568247,0.540831,0.02775,-0.583652,1016.549011
321036,0.139955,-0.115775,-0.538097,-0.100263093,0.346165155,0.838406701,0.539835,0.02231,-0.584432,1016.549011
321136,0.091946,-0.125882,-0.423162,-0.08154134,0.27791701,0.893457938,0.524,0.029281,-0.589105,1016.549011
321236,0.043202,-0.135555,-0.261727,-0.030141237,0.177909175,0.96428866,0.51571,0.035827,-0.597799,1016.549011
321336,0.007305,-0.138307,-0.10192,0.003501649,0.057232784,1.038703608,0.505486,0.049002,-0.608662,1016.549011
321436,0.008064,-0.165026,-0.031551,0.01369866,-0.031746495,1.087070206,0.501238,0.056627,-0.620304,1016.549011
321536,0.035893,-0.219588,-0.025345,0.011303918,-0.067361546,1.088655464,0.485122,0.071111,-0.635616,1016.549011
321636,0.082841,-0.276079,-0.039106,0.024061856,-0.047344536,1.056326082,0.479285,0.077023,-0.642336,1016.549011
321736,0.125794,-0.306142,-0.0445,0.058972784,-0.000626289,1.014581237,0.461615,0.084435,-0.655506,1016.549011
321836,0.156821,-0.306763,-0.041433,0.101406186,0.053175258,0.974732062,0.448598,0.078517,-0.652816,1016.549011
321936,0.172199,-0.288705,-0.062709,0.123280103,0.113363093,0.936370103,0.429142,0.078255,-0.651348,1016.549011
322036,0.168673,-0.255954,-0.106385,0.133643299,0.157987938,0.901225567,0.414164,0.074434,-0.650057,1016.549011
322136,0.156385,-0.207985,-0.148223,0.129972577,0.177010619,0.864105567,0.399204,0.070661,-0.649765,1016.549011
322236,0.138307,-0.159907,-0.178822,0.111953608,0.175972887,0.828315052,0.390109,0.066006,-0.643498,1016.549011
322336,0.120589,-0.135896,-0.188272,0.090099897,0.156655258,0.798522784,0.380753,0.069909,-0.648822,1016.549011
322436,0.106269,-0.125669,-0.18261,0.077082165,0.128079588,0.782550722,0.388763,0.066415,-0.651496,1016.549011
322536,0.100703,-0.124712,-0.170736,0.07932268,0.094820928,0.779702268,0.383634,0.075839,-0.669059,1016.549011
322636,0.09915,-0.134352,-0.153352,0.083800619,0.067934845,0.786631959,0.400925,0.08244,-0.687241,1016.549011
322736,0.098805,-0.146142,-0.120663,0.087624021,0.056872371,0.803677423,0.407853,0.091441,-0.710324,1016.549011
322836,0.09505,-0.16078,-0.078138,0.089506392,0.064162474,0.824174021,0.430827,0.097987,-0.739526,1016.549011
322936,0.083051,-0.172486,-0.039223,0.093809794,0.088454021,0.844552474,0.436296,0.101153,-0.765412,1016.549011
323036,0.064529,-0.194628,-0.012199,0.10035134,0.115889691,0.853679072,0.446248,0.104248,-0.791298,1016.549011
323136,0.03718,-0.220466,-0.000586,0.10901567,0.133637938,0.85448732,0.447225,0.107461,-0.816686,1016.549011
323236,0.01929,-0.228883,-0.004753,0.123557526,0.137492062,0.853853093,0.445928,0.104029,-0.827885,1016.549011
323336,0.006695,-0.21985,-0.014427,0.138191443,0.132221237,0.848160309,0.432743,0.10691,-0.841783,1016.549011
323436,0.004101,-0.202103,-0.020844,0.144841959,0.112251031,0.84392,0.428897,0.10138,-0.850085,1016.549011
323536,0.008809,-0.178866,-0.023834,0.145074124,0.094174227,0.84464,0.413067,0.106381,-0.85536,1016.549011
323636,0.019494,-0.145634,-0.026968,0.151686598,0.084143608,0.852636186,0.406202,0.09983,-0.862215,1016.549011
323736,0.033148,-0.108943,-0.024083,0.157484021,0.088081443,0.872440309,0.395463,0.103547,-0.873561,1016.549011
323836,0.046501,-0.078311,-0.019433,0.171906289,0.102470103,0.89862701,0.396212,0.103691,-0.887081,1016.549011
323936,0.05983,-0.041003,-0.019157,0.203573505,0.123908041,0.937979485,0.392154,0.11379,-0.908617,1016.549011
324036,0.062251,0.020214,-0.014803,0.225830825,0.143972887,0.975005361,0.392987,0.114649,-0.92661,1016.549011
324136,0.05314,0.099483,-0.017807,0.229805876,0.161147835,1.002233093,0.386803,0.12245,-0.94125,1016.549011
324236,0.034065,0.157846,-0.017462,0.217082784,0.172919485,0.998667732,0.391006,0.124933,-0.952643,1016.549011
324336,0.01236,0.173541,-0.009064,0.202808866,0.160389381,0.963891649,0.385741,0.131031,-0.963361,1016.549011
324436,-0.002888,0.172694,-0.020968,0.1883,0.137019897,0.930143918,0.391812,0.131176,-0.968357,1016.549011
324536,0.004199,0.171631,-0.034025,0.191253608,0.104215567,0.933845773,0.38495,0.136534,-0.973603,1016.549011
324636,0.036345,0.193296,-0.034088,0.190043402,0.085154845,0.96829299,0.392903,0.132398,-0.973304,1016.549011
324736,0.077193,0.217835,-0.023012,0.187328041,0.08747701,1.004266598,0.39443,0.129979,-0.97543,1016.549011
324836,0.113505,0.223922,-0.024017,0.192852784,0.106439278,1.031023196,0.404809,0.120179,-0.97241,1016.549011
324936,0.135407,0.207311,-0.05202,0.216708144,0.13667134,1.059038041,0.402774,0.122581,-0.969785,1016.549011
325036,0.143964,0.182271,-0.099101,0.243182474,0.175275773,1.088776804,0.415775,0.113576,-0.973737,1016.549011
325136,0.146451,0.180859,-0.1667,0.273932371,0.212018247,1.121965567,0.422301,0.116085,-0.976107,1016.549011
325236,0.139262,0.22389,-0.22946,0.30218866,0.233270619,1.151994639,0.436791,0.114979,-0.978652,1016.549011
325336,0.133614,0.313618,-0.277547,0.328507835,0.241150515,1.183119897,0.451946,0.124216,-0.988686,1016.549011
325436,0.120941,0.436623,-0.311932,0.361439381,0.227382577,1.225768763,0.474344,0.12431,-0.987654,1016.549011
325536,0.110878,0.600494,-0.32427,0.39059866,0.18717732,1.314222784,0.493736,0.130359,-0.984819,1016.549011
325636,0.108108,0.802654,-0.291344,0.358875052,0.118455052,1.453329794,0.524818,0.128592,-0.968841,1016.549011
325736,0.121588,0.923746,-0.219333,0.290823299,0.068351443,1.559894742,0.54366,0.127763,-0.937296,1016.549011
325836,0.157209,0.824227,-0.152423,0.189715258,0.096231443,1.595879794,0.564623,0.117011,-0.887216,1016.549011
325936,0.165187,0.629454,-0.156631,0.067668351,0.124074433,1.553758763,0.555052,0.112311,-0.828343,1016.549011
326036,0.144096,0.44641,-0.207273,-0.041607938,0.091507113,1.457051134,0.536881,0.100457,-0.763331,1016.549011
326136,0.120018,0.232632,-0.221528,-0.145760825,0.006413918,1.318684227,0.496989,0.095909,-0.707992,1016.549011
326236,0.084322,-0.020806,-0.224634,-0.203045773,-0.041499072,1.152908866,0.460718,0.093138,-0.659573,1016.544983
326336,0.043861,-0.310889,-0.148675,-0.218961959,-0.069983608,0.995098866,0.409853,0.094484,-0.629498,1016.544983
326436,0.003874,-0.541761,-0.032877,-0.194787629,-0.114251031,0.90631567,0.374091,0.096998,-0.607866,1016.544983
326536,-0.010006,-0.638923,0.093468,-0.114782165,-0.169550309,0.865010515,0.334969,0.097415,-0.593358,1016.544983
326636,-0.01579,-0.606326,0.225974,-0.021020825,-0.212639897,0.85374268,0.307348,0.091815,-0.58215,1016.544983
326736,-0.023507,-0.458426,0.32455,0.059578866,-0.233986907,0.867164639,0.275242,0.084792,-0.57102,1016.544983
326836,-0.027502,-0.247177,0.380517,0.108952165,-0.233449588,0.90197268,0.256985,0.069359,-0.555794,1016.544983
326936,-0.030004,-0.023773,0.423496,0.127244742,-0.186990619,0.948278144,0.232727,0.050485,-0.539748,1016.544983
327036,-0.03752,0.136521,0.430273,0.109926804,-0.101141134,0.986345979,0.217896,0.031863,-0.521675,1016.544983
327136,-0.038129,0.211117,0.375123,0.088978144,-0.011979691,1.028451856,0.195175,0.012089,-0.508178,1016.544983
327236,-0.030194,0.246488,0.30454,0.087816495,0.061128866,1.070246598,0.186407,-0.005415,-0.49455,1016.544983
327336,-0.030373,0.260304,0.25432,0.090193918,0.123848351,1.103091031,0.161144,-0.018342,-0.4772,1016.544983
327436,-0.053558,0.239936,0.207868,0.05833701,0.170257526,1.09684433,0.141026,-0.02795,-0.468192,1016.544983
327536,-0.092734,0.187432,0.156547,0.025284742,0.177430619,1.060590722,0.115535,-0.029258,-0.463778,1016.544983
327636,-0.127061,0.142715,0.129262,0.019847938,0.138846186,0.99278866,0.097033,-0.027664,-0.459709,1016.544983
327736,-0.155776,0.104386,0.130806,0.035063093,0.100470722,0.919063505,0.073186,-0.018196,-0.461758,1016.544983
327836,-0.181445,0.044611,0.142285,0.064031443,0.065073196,0.850930412,0.053775,-0.00892,-0.461307,1016.544983
327936,-0.19845,-0.034243,0.164006,0.09606866,0.029794845,0.807233505,0.034924,0.003981,-0.463677,1016.544983
328036,-0.19972,-0.108526,0.184674,0.118238866,0.010501649,0.776079278,0.03211,0.013406,-0.471717,1016.544983
328136,-0.188683,-0.149202,0.179933,0.14585701,-0.001453711,0.760894845,0.023327,0.027908,-0.479505,1016.544983
328236,-0.174866,-0.142485,0.158848,0.168870515,-0.00401268,0.764083402,0.026439,0.034627,-0.485172,1016.544983
328336,-0.151616,-0.103985,0.121815,0.18498299,-0.003577835,0.777215567,0.029706,0.045218,-0.498657,1016.544983
328436,-0.131604,-0.032706,0.075713,0.183338144,-0.001982268,0.784528866,0.041292,0.05529,-0.504143,1016.544983
328536,-0.118579,0.039444,0.031024,0.164040412,-0.000893299,0.789567732,0.05199,0.063673,-0.515729,1016.544983
328636,-0.111031,0.098483,-0.006509,0.139537732,0.004322062,0.793640619,0.071109,0.071304,-0.524838,1016.544983
328736,-0.114856,0.122639,-0.024799,0.119462474,0.001695464,0.783377526,0.081813,0.077719,-0.537025,1016.544983
328836,-0.122687,0.099435,-0.028652,0.114205567,-0.010687526,0.778050619,0.099475,0.085968,-0.548109,1016.544983
328936,-0.127455,0.037655,-0.023357,0.106391134,-0.024180515,0.785015155,0.111771,0.095091,-0.565166,1016.544983
329036,-0.129553,-0.038701,-0.019238,0.109435464,-0.03328701,0.801802887,0.13244,0.102843,-0.577275,1016.544983
329136,-0.123942,-0.112601,-0.019568,0.119997423,-0.039605361,0.821917629,0.140727,0.114448,-0.592707,1016.544983
329236,-0.111264,-0.174805,-0.023949,0.138920619,-0.048205361,0.842036804,0.153464,0.12292,-0.606791,1016.544983
329336,-0.090225,-0.20785,-0.02638,0.158418557,-0.059273093,0.857780103,0.15776,0.131101,-0.622402,1016.544983
329436,-0.070989,-0.211538,-0.040359,0.178413093,-0.066852062,0.87523701,0.164473,0.13905,-0.634014,1016.544983
329536,-0.054566,-0.18639,-0.048099,0.201192268,-0.073319691,0.888230619,0.174353,0.148903,-0.655046,1016.544983
329636,-0.046762,-0.165338,-0.053506,0.222581443,-0.072628454,0.896983402,0.180499,0.154698,-0.663261,1016.544983
329736,-0.053133,-0.141536,-0.033766,0.232874742,-0.065570309,0.901330412,0.188238,0.164198,-0.676296,1016.544983
329836,-0.058392,-0.104097,-0.000753,0.238525258,-0.062376082,0.924458866,0.204435,0.168083,-0.689608,1016.544983
329936,-0.062156,-0.050199,0.024481,0.232466082,-0.059777216,0.954808247,0.210672,0.173123,-0.702873,1016.544983
330036,-0.066456,-0.007728,0.039156,0.228266392,-0.059292165,0.979667216,0.230354,0.175457,-0.716259,1016.544983
330136,-0.066573,0.007966,0.036736,0.231254124,-0.050991959,1.008115361,0.234552,0.180408,-0.727025,1016.544983
330236,-0.066585,0.008665,0.00917,0.238072062,-0.035603093,1.028162062,0.254286,0.181393,-0.743488,1016.544983
330336,-0.083696,0.025504,-0.025307,0.252975979,-0.014152268,1.043679381,0.266491,0.180857,-0.757029,1016.544983
330436,-0.121305,0.084005,-0.043739,0.263803505,0.001348041,1.066245361,0.293169,0.180662,-0.772041,1016.544983
330536,-0.165521,0.155919,-0.032887,0.26251567,0.008057423,1.105963299,0.312004,0.183398,-0.793425,1016.544983
330636,-0.201033,0.216669,-0.000328,0.258555567,0.00494299,1.145979072,0.338237,0.181363,-0.811537,1016.544983
330736,-0.230681,0.265701,0.036179,0.271307629,-0.00702433,1.178284639,0.357579,0.184115,-0.833421,1016.544983
330836,-0.252567,0.32725,0.092629,0.294128454,-0.023563505,1.21384866,0.387296,0.181029,-0.851583,1016.544983
330936,-0.26261,0.416282,0.171223,0.319354536,-0.03975,1.249921649,0.413923,0.177226,-0.864273,1016.544983
331036,-0.261405,0.517851,0.215944,0.339711031,-0.037390619,1.278667938,0.441411,0.165621,-0.870846,1016.544983
331136,-0.257428,0.601893,0.171945,0.372359897,-0.001947629,1.307895567,0.471722,0.144615,-0.869879,1016.544983
331236,-0.246639,0.665929,0.029503,0.428811959,0.052158763,1.338574124,0.507863,0.123129,-0.860913,1016.544983
331336,-0.237068,0.755189,-0.139437,0.497935979,0.116790412,1.414066701,0.540847,0.096299,-0.843706,1016.544983
331436,-0.228852,0.835063,-0.270659,0.471195876,0.190058454,1.525358351,0.583402,0.067801,-0.805529,1016.544983
331536,-0.211874,0.768019,-0.310666,0.320501237,0.228909278,1.609728557,0.607425,0.03487,-0.762588,1016.544983
331636,-0.155324,0.502304,-0.288129,0.102590103,0.211216701,1.60877701,0.618149,-0.001237,-0.701286,1016.544983
331736,-0.101179,0.247156,-0.199627,-0.091071443,0.145201649,1.509322784,0.596513,-0.031326,-0.640213,1016.544983
331836,-0.093206,0.086655,-0.067561,-0.198721649,0.108726186,1.324363196,0.565085,-0.059329,-0.588065,1016.544983
331936,-0.086197,-0.107592,-0.003518,-0.185969381,0.107791856,1.147685052,0.517437,-0.074607,-0.545808,1016.544983
332036,-0.064405,-0.345574,0.008341,-0.117031856,0.107353402,1.016317629,0.487011,-0.084948,-0.518311,1016.544983
332136,-0.046751,-0.515097,-0.021705,-0.049678351,0.089598351,0.906753299,0.458869,-0.088619,-0.505502,1016.544983
332236,-0.020501,-0.620765,-0.029736,-0.01058732,0.109508557,0.845370206,0.453755,-0.094832,-0.499311,1016.544983
332336,-0.005239,-0.656439,-0.033167,0.047064948,0.147920412,0.757745155,0.452708,-0.097926,-0.496965,1016.544983
332436,0.016869,-0.608345,-0.118138,0.124544021,0.226853711,0.760767732,0.465571,-0.105798,-0.493343,1016.544983
332536,0.04095,-0.4592,-0.239106,0.160498144,0.321888866,0.79320732,0.478456,-0.111628,-0.49062,1016.544983
332636,0.07102,-0.287671,-0.319006,0.125021546,0.365351856,0.838559897,0.494247,-0.117723,-0.483397,1016.544983
332736,0.091541,-0.177263,-0.402153,0.038001237,0.353577835,0.881455876,0.500698,-0.120863,-0.482548,1016.542786
332836,0.096458,-0.124778,-0.491209,-0.010969588,0.301577629,0.94399732,0.5121,-0.115235,-0.478741,1016.542786
332936,0.07725,-0.089768,-0.491315,-0.009736598,0.212281546,0.997859485,0.510727,-0.104483,-0.483706,1016.542786
333036,0.045488,-0.099514,-0.412625,0.008283608,0.095176289,1.025612268,0.516941,-0.086112,-0.493785,1016.542786
333136,0.028886,-0.144826,-0.306281,0.021595773,-0.021902062,1.021617423,0.510224,-0.071947,-0.505596,1016.542786
333236,0.044797,-0.213554,-0.182108,0.006743505,-0.093025155,0.985214536,0.506039,-0.055732,-0.519305,1016.542786
333336,0.080634,-0.290164,-0.063425,-0.006685979,-0.11068134,0.946042474,0.497397,-0.045329,-0.535319,1016.542786
333436,0.117705,-0.346431,0.006072,0.007397526,-0.075932371,0.915636392,0.490173,-0.036139,-0.547384,1016.542786
333536,0.144628,-0.355123,0.059034,0.043449794,-0.025997423,0.89685299,0.475495,-0.032238,-0.561231,1016.542786
333636,0.15671,-0.318072,0.077206,0.089931134,0.040718763,0.887669691,0.465173,-0.032209,-0.568756,1016.542786
333736,0.160849,-0.272932,0.075617,0.121601031,0.095963402,0.876164948,0.453361,-0.035121,-0.576935,1016.542786
333836,0.162931,-0.237706,0.066472,0.135109175,0.137492474,0.849176598,0.443449,-0.037808,-0.580089,1016.542786
333936,0.156293,-0.209041,0.048571,0.130937216,0.157680412,0.818327423,0.430052,-0.039941,-0.583219,1016.542786
334036,0.140408,-0.185332,0.046349,0.119609691,0.151364536,0.785421134,0.429139,-0.045165,-0.588497,1016.542786
334136,0.128447,-0.180972,0.079343,0.098973608,0.125424124,0.755330206,0.426823,-0.045665,-0.598045,1016.542786
334236,0.113578,-0.187093,0.123642,0.098145876,0.095721856,0.733066392,0.436531,-0.044691,-0.611012,1016.542786
334336,0.103151,-0.191319,0.156195,0.103935361,0.066839072,0.742907938,0.444993,-0.038582,-0.636744,1016.546204
334436,0.103237,-0.199691,0.179399,0.111223711,0.054270515,0.77251268,0.46281,-0.04283,-0.657985,1016.546204
334536,0.106037,-0.20405,0.207289,0.111884639,0.057556804,0.812962268,0.48291,-0.034453,-0.69311,1016.546204
334636,0.107707,-0.194653,0.207565,0.114299897,0.078182784,0.842394124,0.499449,-0.036628,-0.72577,1016.546204
334736,0.100741,-0.174409,0.205549,0.112911031,0.090290928,0.867758351,0.511554,-0.032159,-0.7601,1016.546204
334836,0.094814,-0.178829,0.195403,0.107836804,0.09859433,0.871108969,0.521487,-0.034569,-0.785765,1016.546204
334936,0.074667,-0.199069,0.195875,0.107987216,0.105721959,0.863149175,0.517973,-0.03527,-0.811358,1016.546204
335036,0.055702,-0.211883,0.223928,0.113928247,0.093971959,0.860283196,0.512789,-0.040865,-0.828184,1016.546204
335136,0.043505,-0.220276,0.256296,0.125747629,0.090796907,0.846595361,0.502583,-0.043513,-0.842359,1016.546204
335236,0.039685,-0.223149,0.27287,0.152320309,0.092748041,0.847488866,0.490295,-0.049832,-0.852215,1016.546204
335336,0.051837,-0.223582,0.255131,0.190908247,0.100945258,0.857223093,0.476123,-0.05187,-0.867366,1016.546204
335436,0.072326,-0.214369,0.212195,0.226804742,0.124304742,0.866131134,0.471797,-0.057344,-0.876668,1016.546204
335536,0.085782,-0.186301,0.147179,0.251917835,0.152125155,0.867739794,0.460678,-0.060257,-0.895368,1016.546204
335636,0.094507,-0.133278,0.097138,0.261008247,0.16219701,0.867339381,0.466532,-0.063343,-0.916062,1016.546204
335736,0.098486,-0.052116,0.081583,0.251298454,0.158468351,0.877594124,0.460509,-0.064053,-0.940656,1016.546204
335836,0.092464,0.030221,0.091307,0.226316907,0.160149588,0.898833093,0.467835,-0.069203,-0.960451,1016.546204
335936,0.074491,0.086416,0.100692,0.207414948,0.16494567,0.931879485,0.471319,-0.066977,-0.986889,1016.547974
336036,0.055881,0.115407,0.108629,0.199255052,0.157471649,0.965684227,0.477646,-0.068648,-1.006007,1016.547974
336136,0.05136,0.136793,0.095231,0.210827113,0.14350134,0.99645866,0.476533,-0.068135,-1.026524,1016.547974
336236,0.06242,0.162756,0.065867,0.23299567,0.128419691,1.019085464,0.484485,-0.068995,-1.052613,1016.547974
336336,0.086023,0.190636,0.01289,0.244252268,0.125188454,1.041543814,0.486951,-0.063338,-1.077374,1016.547974
336436,0.117309,0.206086,-0.056692,0.243929278,0.118613093,1.068574227,0.500915,-0.060732,-1.104783,1016.547974
336536,0.155168,0.198764,-0.146226,0.232758454,0.128461443,1.096193299,0.510387,-0.058079,-1.131694,1016.547974
336636,0.191677,0.17039,-0.240043,0.220175567,0.163864227,1.106918969,0.529464,-0.048762,-1.165268,1016.547974
336736,0.21289,0.14822,-0.336854,0.222586804,0.215796907,1.127056907,0.54211,-0.035759,-1.200666,1016.547974
336836,0.213991,0.182391,-0.411943,0.255159897,0.253810619,1.156942062,0.565277,-0.025244,-1.239686,1016.547974
336936,0.19771,0.269228,-0.429984,0.297414742,0.250227216,1.207767113,0.583886,-0.004436,-1.273177,1016.547974
337036,0.163908,0.410314,-0.384478,0.390593402,0.204950309,1.304540928,0.624485,0.014723,-1.310735,1016.547974
337136,0.128195,0.654551,-0.286668,0.510413608,0.130969278,1.468678144,0.669919,0.03541,-1.340193,1016.547974
337236,0.114277,1.001681,-0.127009,0.495507423,0.00207299,1.674030619,0.738903,0.046356,-1.351583,1016.547974
337336,0.136716,1.248305,0.050003,0.363262577,-0.055698351,1.805896289,0.815785,0.049246,-1.333311,1016.547974
337436,0.224065,1.180961,0.088523,0.132397938,-0.022671134,1.74482567,0.889416,0.041281,-1.275514,1016.547974
337536,0.291762,0.919331,0.043276,-0.135446392,0.042887423,1.513126082,0.930286,0.032344,-1.197261,1016.547974
337636,0.247392,0.635702,-0.093178,-0.292646907,0.090440928,1.311843093,0.941082,0.022902,-1.109045,1016.547974
337736,0.12897,0.414747,-0.292576,-0.341886598,0.041863196,1.199411134,0.914763,0.026089,-1.032253,1016.547974
337836,0.041796,0.258917,-0.370711,-0.272473093,-0.035444021,1.123017216,0.876855,0.037357,-0.974101,1016.547974
337936,0.032195,0.122781,-0.392483,-0.176899897,-0.11835,1.05524433,0.831797,0.052551,-0.932792,1016.547974
338036,0.07196,-0.019789,-0.327084,-0.087574639,-0.176898144,0.972747423,0.795952,0.059808,-0.905907,1016.547974
338136,0.107178,-0.147418,-0.200416,0.006225464,-0.185421443,0.906816907,0.762709,0.062854,-0.885747,1016.547974
338236,0.114318,-0.199368,-0.042027,0.079183711,-0.166553608,0.882953608,0.738367,0.054177,-0.86367,1016.547974
338336,0.083778,-0.148956,0.11284,0.104909794,-0.127437113,0.908911753,0.721606,0.044675,-0.847639,1016.547974
338436,0.035761,-0.059515,0.215154,0.100268144,-0.071810309,0.983465464,0.707669,0.026271,-0.824042,1016.547974
338536,-0.026013,0.009018,0.300701,0.086607835,-0.002257938,1.033228144,0.687282,0.011505,-0.801268,1016.547974
338636,-0.110316,0.066398,0.389356,0.094317732,0.059490825,1.059904021,0.666766,-0.008059,-0.772226,1016.547974
338736,-0.188506,0.107509,0.456379,0.098219175,0.100409381,1.071894639,0.637931,-0.016688,-0.74965,1016.547974
338836,-0.229443,0.073796,0.469878,0.077343505,0.126584948,1.053207938,0.609541,-0.023476,-0.723974,1016.547974
338936,-0.227408,0.00257,0.404126,0.084520825,0.121451443,1.040417629,0.569495,-0.01889,-0.712762,1016.547974
339036,-0.210986,-0.06204,0.32116,0.101750412,0.105165052,1.011588144,0.536469,-0.008837,-0.703268,1016.547974
339136,-0.194426,-0.132787,0.254098,0.111256495,0.077755773,0.948687732,0.501127,0.005675,-0.702567,1016.547974
339236,-0.177802,-0.202694,0.229093,0.140368763,0.049016701,0.87679567,0.471218,0.019979,-0.699366,1016.547302
339336,-0.178804,-0.243323,0.211587,0.16816567,0.026580412,0.81184567,0.441381,0.037939,-0.699486,1016.547302
339436,-0.177766,-0.248337,0.203304,0.183950309,0.006312784,0.758596701,0.41792,0.04711,-0.695537,1016.547302
339536,-0.174842,-0.213544,0.208887,0.190118557,-0.009639175,0.718005979,0.388974,0.053379,-0.691743,1016.547302
339636,-0.164599,-0.14758,0.233499,0.164080515,-0.020469691,0.691104536,0.371813,0.062488,-0.67827,1016.547302
339736,-0.1428,-0.06391,0.248853,0.125375979,-0.015452887,0.681663711,0.351772,0.06548,-0.671627,1016.547302
339836,-0.124437,-0.004615,0.241554,0.097182577,0.003109691,0.683101134,0.342736,0.067423,-0.667529,1016.547302
339936,-0.128941,0.00934,0.205589,0.100003093,0.030230103,0.685194742,0.333874,0.074283,-0.6722,1016.547302
340036,-0.133716,-0.031494,0.164067,0.122107216,0.034676392,0.706589691,0.342007,0.082513,-0.679788,1016.547302
340136,-0.136854,-0.090773,0.139414,0.146539588,0.027589485,0.750178041,0.347002,0.099638,-0.704963,1016.547302
340236,-0.137886,-0.14705,0.116503,0.14867433,0.021345979,0.794071443,0.361462,0.116612,-0.730136,1016.547302
340336,-0.137159,-0.187195,0.108677,0.146713608,0.005225464,0.834839794,0.371544,0.140376,-0.759978,1016.547302
340436,-0.140346,-0.216063,0.111637,0.135614948,-0.000979381,0.856036495,0.381613,0.157662,-0.79015,1016.547302
340536,-0.14905,-0.240651,0.111807,0.129855052,-0.000526495,0.867817113,0.379167,0.175974,-0.816777,1016.547302
340636,-0.166091,-0.265488,0.110694,0.133230103,-0.008439588,0.882750103,0.376067,0.19042,-0.835584,1016.547302
340736,-0.172926,-0.280083,0.108226,0.156401031,-0.025963402,0.900522784,0.36543,0.204817,-0.850895,1016.547302
340836,-0.16069,-0.272476,0.095166,0.177687629,-0.038399175,0.909088041,0.355183,0.210495,-0.86164,1016.549011
340936,-0.135592,-0.246586,0.051096,0.200909072,-0.039364227,0.905864948,0.341401,0.214613,-0.869963,1016.549011
341036,-0.105252,-0.204235,-0.00795,0.217948454,-0.041179485,0.902873196,0.335607,0.219152,-0.879258,1016.549011
341136,-0.074708,-0.174383,-0.058647,0.229124536,-0.041677732,0.904413402,0.329371,0.223842,-0.891552,1016.549011
341236,-0.059406,-0.148708,-0.089685,0.237937216,-0.029235052,0.923143608,0.330114,0.225955,-0.90447,1016.549011
341336,-0.067166,-0.115477,-0.088314,0.253419588,-0.019040103,0.956542062,0.325409,0.23022,-0.918788,1016.549011
341436,-0.089556,-0.07567,-0.066745,0.258335258,-0.01394567,0.994082887,0.332695,0.233894,-0.935127,1016.549011
341536,-0.122912,-0.040177,-0.048983,0.256216186,-0.018140722,1.037117938,0.330551,0.240779,-0.952816,1016.549011
341636,-0.155532,0.015949,-0.050434,0.260813196,-0.030401031,1.082337526,0.341782,0.247756,-0.966477,1016.549011
341736,-0.180005,0.074603,-0.057773,0.259472268,-0.037745567,1.104677938,0.34264,0.252151,-0.985292,1016.549011
341836,-0.19118,0.115141,-0.061751,0.239886289,-0.034042887,1.107744742,0.357867,0.255128,-1.000154,1016.549011
341936,-0.191527,0.142605,-0.02891,0.227273814,-0.042029588,1.098917629,0.36415,0.254831,-1.016697,1016.549011
342036,-0.19001,0.192358,0.053472,0.201062371,-0.056011959,1.081050103,0.380328,0.253212,-1.029788,1016.549011
342136,-0.193409,0.266408,0.165114,0.178016186,-0.077161546,1.078404639,0.396459,0.245517,-1.041186,1016.549011
342236,-0.180086,0.367901,0.308192,0.191429897,-0.113450722,1.130022887,0.421556,0.232721,-1.053334,1016.549011
342336,-0.156744,0.509936,0.409703,0.263311959,-0.100449381,1.237869381,0.442999,0.21459,-1.057241,1016.549011
342436,-0.142855,0.644502,0.372752,0.379353402,-0.05611866,1.332159175,0.479278,0.18751,-1.056577,1016.550781
342536,-0.153499,0.693478,0.292092,0.464681959,-0.006179072,1.386780825,0.512948,0.156694,-1.050093,1016.550781
342636,-0.131185,0.719902,0.180391,0.535859588,0.070965258,1.435447113,0.560353,0.115684,-1.033593,1016.550781
342736,-0.085425,0.789314,0.078204,0.530268763,0.168823814,1.486307113,0.615111,0.075239,-1.010542,1016.550781
342836,-0.035001,0.841774,-0.003945,0.395658454,0.270507113,1.512832887,0.675884,0.026062,-0.963879,1016.550781
342936,0.005151,0.736404,-0.055241,0.214538557,0.293203299,1.504313814,0.723467,-0.031958,-0.905657,1016.550781
343036,0.053151,0.539084,-0.055123,0.062342165,0.26258433,1.429137938,0.750772,-0.090078,-0.828422,1016.550781
343136,0.061031,0.389291,-0.017862,-0.063767629,0.177329485,1.267454948,0.754147,-0.144404,-0.749519,1016.550781
343236,0.035691,0.276844,0.064297,-0.131915361,0.10616433,1.083717629,0.739635,-0.198324,-0.673119,1016.550781
343336,0.009836,0.087198,0.122873,-0.146976907,0.101892062,0.933418351,0.721405,-0.243062,-0.609784,1016.550781
343436,0.017077,-0.160816,0.16788,-0.112974124,0.136176598,0.834230206,0.715475,-0.2866,-0.564912,1016.550781
343536,0.011365,-0.347676,0.186727,-0.065054845,0.194806289,0.766795876,0.719346,-0.323466,-0.537226,1016.550781
343636,-0.007466,-0.44011,0.137616,-0.023770928,0.25138732,0.747785052,0.744405,-0.351544,-0.522596,1016.550781
343736,-0.004636,-0.485412,0.0307,0.023105979,0.329385464,0.780166392,0.77777,-0.377885,-0.525906,1016.550781
343836,0.010828,-0.469973,-0.12934,0.083949072,0.434629588,0.857747526,0.827749,-0.399071,-0.537953,1016.550781
343936,0.030603,-0.384852,-0.263589,0.116051856,0.531780722,0.94748299,0.876447,-0.404805,-0.559235,1016.550781
344036,0.036951,-0.27838,-0.366551,0.109897216,0.552417938,1.044173711,0.922826,-0.392202,-0.5871,1016.549011
344136,0.034191,-0.179633,-0.467278,0.090975567,0.50018567,1.133785464,0.949282,-0.373328,-0.614166,1016.549011
344236,0.023007,-0.109174,-0.488789,0.081655773,0.401275155,1.201231134,0.957133,-0.337254,-0.629354,1016.549011
344336,0.003427,-0.075234,-0.472163,0.065597732,0.26516433,1.209046701,0.931538,-0.29439,-0.639723,1016.549011
344436,0.000236,-0.100728,-0.44892,0.040118041,0.104167629,1.150666598,0.889695,-0.252067,-0.633604,1016.549011
344536,0.01705,-0.14465,-0.427845,0.013522577,-0.021119381,1.070747423,0.822852,-0.216043,-0.623324,1016.549011
344636,0.048906,-0.19741,-0.386221,0.009730928,-0.05379433,0.988942062,0.760541,-0.18889,-0.616999,1016.549011
344736,0.068918,-0.234081,-0.302064,0.055638454,-0.036502371,0.896999588,0.694752,-0.167114,-0.611954,1016.549011
344836,0.075712,-0.254752,-0.196141,0.114886495,-0.002178247,0.830298557,0.64347,-0.147391,-0.610505,1016.549011
344936,0.0806,-0.268108,-0.14093,0.152748041,0.037956082,0.790954124,0.607223,-0.133619,-0.614854,1016.549011
345036,0.0984,-0.286546,-0.121876,0.166922268,0.059012062,0.759803299,0.585544,-0.119265,-0.62567,1016.549011
345136,0.132188,-0.314421,-0.146963,0.171157526,0.076438557,0.721713505,0.575835,-0.112004,-0.638338,1016.549011
345236,0.167777,-0.34156,-0.212489,0.174881856,0.098533505,0.682921856,0.577628,-0.105801,-0.653552,1016.549011
345336,0.195194,-0.339404,-0.27355,0.167210722,0.124630515,0.656267629,0.58343,-0.101581,-0.670366,1016.549011
345436,0.201876,-0.300198,-0.296391,0.140776186,0.137811237,0.648304021,0.598803,-0.100213,-0.693327,1016.549011
345536,0.199006,-0.257067,-0.270484,0.11454134,0.134777835,0.650999897,0.619689,-0.095371,-0.717607,1016.549011
345636,0.18412,-0.23302,-0.23334,0.098734742,0.123817216,0.664189485,0.646682,-0.096241,-0.749688,1016.549011
345736,0.164558,-0.259153,-0.204102,0.086120825,0.115213402,0.693875876,0.674004,-0.08882,-0.798381,1016.550781
345836,0.142119,-0.306251,-0.176966,0.093822474,0.097992887,0.738885155,0.706874,-0.079821,-0.850496,1016.550781
345936,0.116235,-0.339359,-0.150254,0.109068351,0.083423402,0.789148144,0.728401,-0.068858,-0.908534,1016.550781
346036,0.093016,-0.349206,-0.106745,0.120102887,0.074663196,0.840164124,0.745988,-0.053749,-0.96837,1016.550781
346136,0.076899,-0.339228,-0.047647,0.124912165,0.078318557,0.879648247,0.749527,-0.042645,-1.023416,1016.550781
346236,0.063974,-0.323668,0.011053,0.129353814,0.091343196,0.896887629,0.746891,-0.033447,-1.068044,1016.550781
346336,0.061419,-0.325842,0.073299,0.138658247,0.107702887,0.893910619,0.728013,-0.02676,-1.096785,1016.550781
346436,0.066897,-0.337894,0.121232,0.160651237,0.126403608,0.892361134,0.711906,-0.022667,-1.11413,1016.550781
346536,0.074347,-0.345578,0.150623,0.202394227,0.146975464,0.896238969,0.68431,-0.020955,-1.130107,1016.550781
346636,0.081328,-0.325035,0.16582,0.251942062,0.169042371,0.898618763,0.660943,-0.02146,-1.132664,1016.550781
346736,0.08915,-0.278491,0.167346,0.293222165,0.174706701,0.894488351,0.638073,-0.018011,-1.134518,1016.550781
346836,0.090832,-0.207362,0.152276,0.315142268,0.176780928,0.894323299,0.626252,-0.020449,-1.142171,1016.550781
346936,0.085682,-0.120389,0.119041,0.311490412,0.172118969,0.897229691,0.613482,-0.017793,-1.15157,1016.550781
347036,0.080662,-0.044877,0.086956,0.286116701,0.172950206,0.920507216,0.616836,-0.015406,-1.170985,1016.550781
347136,0.068505,0.010753,0.057736,0.255012887,0.173754742,0.950869588,0.613323,-0.010153,-1.195774,1016.550781
347236,0.059276,0.047518,0.050924,0.232203608,0.17123866,0.984977113,0.622279,-0.002084,-1.220905,1016.550781
347336,0.063357,0.07201,0.044637,0.223686186,0.173177835,1.013223299,0.625413,0.005493,-1.254587,1016.545044
347436,0.077145,0.089847,0.033443,0.218252268,0.175809072,1.034606495,0.63339,0.018584,-1.279964,1016.545044
347536,0.090775,0.112205,0.009222,0.213463299,0.172910928,1.052487423,0.638327,0.028613,-1.302997,1016.545044
347636,0.108548,0.131983,-0.015854,0.207349794,0.166492474,1.065573918,0.645724,0.037035,-1.324605,1016.545044
347736,0.123528,0.139912,-0.04715,0.200396701,0.159669588,1.076141856,0.651499,0.047137,-1.339114,1016.545044
347836,0.139278,0.129697,-0.083531,0.196297423,0.171594536,1.093929897,0.663155,0.054911,-1.348726,1016.545044
347936,0.157428,0.098198,-0.129294,0.198368041,0.201153196,1.13992433,0.666943,0.062577,-1.363863,1016.545044
348036,0.172749,0.092824,-0.188989,0.241507732,0.22271299,1.187054845,0.68159,0.076257,-1.372669,1016.545044
348136,0.176752,0.147897,-0.241181,0.326512887,0.22112268,1.226436495,0.695841,0.090709,-1.386948,1016.545044
348236,0.174495,0.257138,-0.268147,0.409888454,0.202790103,1.263191134,0.725538,0.112365,-1.400341,1016.545044
348336,0.165343,0.406943,-0.240978,0.46345433,0.169703608,1.324022268,0.769824,0.136146,-1.421124,1016.545044
348436,0.155193,0.609969,-0.162284,0.454263505,0.117970928,1.427184845,0.839546,0.162087,-1.443273,1016.545044
348536,0.159698,0.829628,-0.067974,0.346409897,0.049657526,1.538633711,0.927382,0.186917,-1.448422,1016.545044
348636,0.191177,0.865765,0.069501,0.238793299,0.052129072,1.570588041,1.02008,0.203119,-1.421438,1016.545044
348736,0.236678,0.6914,0.111545,0.100637113,0.10652567,1.55100268,1.094276,0.217639,-1.363997,1016.545044
348836,0.247231,0.527918,0.035674,-0.019877732,0.149236598,1.448326392,1.140423,0.229911,-1.271629,1016.545044
348936,0.186999,0.415217,-0.026567,-0.129203299,0.077130515,1.300786082,1.142906,0.242028,-1.161781,1016.545044
349036,0.104029,0.263801,0.014818,-0.262889588,-0.057753402,1.197566082,1.116933,0.244012,-1.049976,1016.545044
349136,0.039793,0.035732,0.124398,-0.336993814,-0.146397938,1.075415052,1.055022,0.24073,-0.962029,1016.545044
349236,0.001074,-0.269405,0.282781,-0.334986701,-0.194717113,0.963757629,0.99557,0.239616,-0.899021,1016.545044
349336,0.007934,-0.54356,0.424981,-0.245682371,-0.220845464,0.92775866,0.938228,0.229654,-0.870533,1016.545044
349436,0.045272,-0.675691,0.49485,-0.100673505,-0.24840433,0.972981237,0.893134,0.217782,-0.858161,1016.545044
349536,0.104143,-0.630448,0.488916,0.023649897,-0.24195866,1.048268041,0.861633,0.192677,-0.855468,1016.545044
349636,0.17835,-0.464771,0.415021,0.095243608,-0.190196495,1.105607423,0.841939,0.163037,-0.845478,1016.545044
349736,0.239878,-0.248891,0.314851,0.109785361,-0.11574299,1.125266598,0.823198,0.123841,-0.83447,1016.545044
349836,0.249401,-0.058302,0.239392,0.108320722,-0.024419485,1.129606701,0.807734,0.081071,-0.812618,1016.545044
349936,0.197068,0.069848,0.235488,0.108260619,0.070834948,1.131904021,0.785659,0.036073,-0.783872,1016.545044
350036,0.114372,0.119593,0.28017,0.081585567,0.148368247,1.114556701,0.755588,-0.003413,-0.75285,1016.545044
350136,0.031163,0.077049,0.319801,0.036170309,0.186099175,1.064964536,0.718017,-0.031941,-0.718773,1016.545044
350236,-0.047094,0.007227,0.338532,0.033981649,0.201475361,1.017106495,0.672628,-0.048048,-0.691085,1016.545044
350336,-0.11566,-0.042357,0.336827,0.074193196,0.197069691,0.965778763,0.613967,-0.053068,-0.671365,1016.545044
350436,-0.182403,-0.068335,0.321657,0.110661237,0.173202062,0.889017216,0.57336,-0.047148,-0.656579,1016.545044
350536,-0.242948,-0.064503,0.280437,0.143666186,0.139404948,0.801504021,0.535486,-0.030226,-0.653253,1016.546753
350636,-0.286452,-0.051679,0.248603,0.157695361,0.096547423,0.716780412,0.50819,-0.009195,-0.655719,1016.546753
350736,-0.307186,-0.031998,0.230841,0.151403299,0.061966907,0.640756392,0.493459,0.016387,-0.663449,1016.546753
350836,-0.305509,-0.011944,0.206591,0.13384701,0.042112784,0.587229278,0.487201,0.039865,-0.671779,1016.546753
350936,-0.284526,-0.008002,0.162289,0.113234948,0.034784536,0.558633299,0.484535,0.065049,-0.685529,1016.546753
351036,-0.25522,-0.022081,0.111653,0.098418969,0.030881649,0.558594227,0.491898,0.091239,-0.702724,1016.546753
351136,-0.226048,-0.052653,0.082569,0.086014742,0.039006289,0.584774433,0.497308,0.118553,-0.721869,1016.546753
351236,-0.213146,-0.067273,0.054176,0.08117,0.052878557,0.633146701,0.508271,0.145973,-0.745009,1016.546753
351336,-0.216625,-0.070416,0.025754,0.071920825,0.045052268,0.686767629,0.511856,0.178711,-0.772396,1016.546753
351436,-0.222699,-0.08789,-0.011405,0.069692165,0.023338247,0.732305567,0.516885,0.20981,-0.797361,1016.546753
351536,-0.218299,-0.12112,-0.057282,0.083426289,-0.002332474,0.774812887,0.511621,0.245969,-0.830596,1016.546753
351636,-0.212436,-0.165475,-0.092735,0.101691237,-0.023684639,0.812848454,0.504286,0.279973,-0.859935,1016.546753
351736,-0.204153,-0.216301,-0.103382,0.11879732,-0.035133505,0.848664124,0.48399,0.309201,-0.889532,1016.546753
351836,-0.187281,-0.273801,-0.095003,0.128634845,-0.046566804,0.890499072,0.46304,0.333567,-0.911361,1016.546753
351936,-0.171893,-0.321884,-0.083355,0.14291567,-0.049628866,0.924702784,0.432004,0.351326,-0.927526,1016.546753
352036,-0.158208,-0.343118,-0.06973,0.162740103,-0.056475155,0.949385052,0.406342,0.366739,-0.938293,1016.546753
352136,-0.1499,-0.347338,-0.050499,0.183083918,-0.063267423,0.961907938,0.367587,0.375544,-0.942396,1016.548523
352236,-0.148848,-0.336097,-0.031972,0.207090309,-0.072649794,0.970111649,0.33667,0.37793,-0.940305,1016.548523
352336,-0.143272,-0.292112,-0.018021,0.233575567,-0.083756186,0.975971753,0.306751,0.37634,-0.938917,1016.548523
352436,-0.131856,-0.210364,-0.002389,0.254640309,-0.09725134,0.972400515,0.288749,0.373964,-0.935551,1016.548523
352536,-0.118081,-0.106717,0.016761,0.270144433,-0.098190103,0.966496392,0.268772,0.371171,-0.93321,1016.548523
352636,-0.104351,-0.020684,0.038668,0.272157732,-0.084012371,0.967417423,0.26635,0.367915,-0.937387,1016.548523
352736,-0.099933,0.025458,0.040289,0.275544639,-0.056495361,0.984753608,0.267024,0.367867,-0.946909,1016.548523
352836,-0.097427,0.038775,0.027562,0.281661856,-0.033261959,1.011226495,0.272326,0.365641,-0.964553,1016.548523
352936,-0.098069,0.041712,0.005945,0.277225155,-0.009644021,1.048774433,0.282088,0.360805,-0.981323,1016.548523
353036,-0.111456,0.080847,-0.017523,0.268314021,0.018112062,1.094409897,0.303811,0.359267,-0.997911,1016.548523
353136,-0.144406,0.154694,-0.026441,0.24852,0.036469691,1.126493814,0.315536,0.353331,-1.013232,1016.548523
353236,-0.181685,0.217339,-0.01546,0.211349897,0.035809794,1.128094536,0.333705,0.351182,-1.026349,1016.548523
353336,-0.220028,0.233955,0.023649,0.191193505,0.021057938,1.115704639,0.355856,0.346478,-1.039591,1016.548523
353436,-0.25009,0.248052,0.093128,0.186283814,-0.012724021,1.116591546,0.374988,0.340752,-1.051385,1016.548523
353536,-0.264409,0.298118,0.191667,0.20138299,-0.047562165,1.137918454,0.39358,0.326991,-1.062087,1016.548523
353636,-0.261416,0.368847,0.308065,0.222902062,-0.06126134,1.171259175,0.423618,0.312526,-1.072311,1016.548523
353736,-0.244649,0.416242,0.389832,0.263087113,-0.034847216,1.233392784,0.453059,0.288884,-1.078494,1016.548523
353836,-0.221033,0.437331,0.355829,0.334065567,0.021264536,1.299939897,0.493867,0.26731,-1.079548,1016.548523
353936,-0.205145,0.459792,0.218272,0.43776268,0.081434227,1.385153608,0.54164,0.240145,-1.080879,1016.548523
354036,-0.180854,0.550722,0.039757,0.501060928,0.149577835,1.498951856,0.601972,0.211265,-1.061241,1016.548523
354136,-0.163147,0.681124,-0.107315,0.439254227,0.23113,1.58156866,0.66699,0.172615,-1.027064,1016.548523
354236,-0.160586,0.727562,-0.155914,0.29380732,0.30344567,1.571899588,0.728958,0.127104,-0.963678,1016.548523
354336,-0.14917,0.69992,-0.135113,0.113594124,0.333476186,1.470807629,0.763612,0.07797,-0.878462,1016.548523
354436,-0.148018,0.657497,-0.037387,-0.070333814,0.279,1.321470412,0.77155,0.028436,-0.77626,1016.548523
354536,-0.149265,0.520494,0.104221,-0.252345361,0.211919072,1.145239381,0.748165,-0.018463,-0.676966,1016.548523
354636,-0.125343,0.226707,0.171898,-0.341200928,0.17276134,0.989707835,0.710851,-0.0514,-0.603531,1016.548523
354736,-0.104668,-0.121149,0.108538,-0.341622577,0.175327526,0.841284845,0.673061,-0.078014,-0.557331,1016.548523
354836,-0.103292,-0.447064,-0.011779,-0.272036598,0.192466804,0.792634948,0.653276,-0.086569,-0.539251,1016.548523
354936,-0.064892,-0.651655,-0.094649,-0.15551567,0.230854124,0.82756732,0.640404,-0.088637,-0.54388,1016.548523
355036,-0.035207,-0.734989,-0.211127,-0.034110619,0.28639732,0.87891701,0.642701,-0.078954,-0.558916,1016.548523
355136,-0.004708,-0.664741,-0.315264,0.082033505,0.346529485,0.98515,0.646076,-0.070565,-0.578526,1016.548523
355236,0.019501,-0.459396,-0.305866,0.141585567,0.375429897,1.075661443,0.649335,-0.048586,-0.589928,1016.548523
355336,0.031753,-0.221098,-0.251588,0.137554639,0.371378557,1.113360309,0.643985,-0.033288,-0.594666,1016.548523
355436,0.023622,-0.020956,-0.305585,0.098667629,0.314025155,1.118220722,0.629452,-0.014439,-0.587207,1016.544495
355536,0.022718,0.093546,-0.370097,0.07291433,0.227270722,1.120751649,0.600895,0.002944,-0.575831,1016.544495
355636,0.04181,0.08947,-0.428921,0.042481237,0.147859278,1.09298866,0.566794,0.020743,-0.560932,1016.544495
355736,0.085272,0.007124,-0.455777,0.015759072,0.072089278,1.063171959,0.528769,0.036781,-0.549635,1016.544495
355836,0.135491,-0.064528,-0.422077,0.001027113,0.005022887,1.011890619,0.488206,0.046286,-0.53667,1016.544495
355936,0.167198,-0.111752,-0.331534,-0.001156392,-0.024786701,0.916449175,0.451852,0.057302,-0.535648,1016.544495
356036,0.173353,-0.178913,-0.243677,0.019980825,-0.020639175,0.821907113,0.42504,0.064398,-0.539325,1016.544495
356136,0.156156,-0.274737,-0.181552,0.053146804,0.001772577,0.764805773,0.40925,0.070991,-0.546522,1016.544495
356236,0.134298,-0.347628,-0.142948,0.079825361,0.020291856,0.748165361,0.402483,0.077586,-0.556715,1016.544495
356336,0.123889,-0.379198,-0.099973,0.10557,0.040799381,0.743934845,0.404724,0.07671,-0.570285,1016.544495
356436,0.122981,-0.37222,-0.059468,0.126097629,0.059783505,0.732207938,0.413938,0.075225,-0.583879,1016.544495
356536,0.126879,-0.330219,-0.037863,0.139138454,0.070745773,0.717843505,0.421152,0.069288,-0.597702,1016.544495
356636,0.137984,-0.257989,-0.03597,0.145593505,0.079057629,0.70605268,0.438216,0.062903,-0.605524,1016.544495
356736,0.155902,-0.178986,-0.037325,0.13758732,0.080809794,0.700140722,0.455332,0.049214,-0.617225,1016.544495
356836,0.180036,-0.127228,-0.034572,0.127271546,0.08549567,0.704101649,0.480978,0.039022,-0.631746,1016.544495
356936,0.201944,-0.104719,-0.026511,0.115954124,0.087845464,0.716484845,0.504702,0.026564,-0.650392,1016.544495
357036,0.213992,-0.109072,-0.020175,0.10433299,0.09081567,0.735435876,0.535521,0.019764,-0.674754,1016.546204
357136,0.21026,-0.121808,-0.006197,0.093194948,0.097681134,0.751163402,0.565478,0.010353,-0.706766,1016.546204
357236,0.19035,-0.134834,0.027354,0.083663402,0.107403918,0.764900412,0.591056,0.007231,-0.743473,1016.546204
357336,0.155036,-0.156499,0.094323,0.072310309,0.109184845,0.780503093,0.610715,0.000886,-0.783858,1016.546204
357436,0.123399,-0.175188,0.178214,0.072111856,0.105553196,0.816951031,0.624268,0.000253,-0.816443,1016.546204
357536,0.099151,-0.185532,0.253757,0.094014845,0.102967423,0.860606289,0.625243,-0.007447,-0.843389,1016.546204
357636,0.084573,-0.196592,0.297868,0.13187866,0.119289691,0.89446,0.625544,-0.015596,-0.86084,1016.546204
357736,0.083263,-0.207929,0.293777,0.183821753,0.144210206,0.912458041,0.608747,-0.031336,-0.87068,1016.546204
357836,0.09738,-0.214887,0.255357,0.240057113,0.170523299,0.915821237,0.598399,-0.040797,-0.878189,1016.546204
357936,0.110652,-0.195227,0.207806,0.274444433,0.188507526,0.905425258,0.587971,-0.058897,-0.88263,1016.546204
358036,0.12003,-0.160332,0.17293,0.288258866,0.199506392,0.886626392,0.589634,-0.073362,-0.893888,1016.546204
358136,0.113064,-0.106981,0.143717,0.283640412,0.201328247,0.865029691,0.593389,-0.08413,-0.909965,1016.546204
358236,0.101043,-0.028364,0.109389,0.283337732,0.191227423,0.869428866,0.611795,-0.094597,-0.937033,1016.546204
358336,0.095992,0.058439,0.086544,0.277868763,0.178898557,0.899844433,0.633246,-0.109427,-0.967828,1016.546204
358436,0.098308,0.13159,0.060504,0.25071433,0.167680103,0.94287433,0.664367,-0.118422,-1.008837,1016.546204
358536,0.106601,0.18236,0.036592,0.227217835,0.167049278,0.98576732,0.694053,-0.130711,-1.053521,1016.546204
358636,0.120135,0.205111,0.009937,0.227196598,0.174165052,1.024813711,0.732281,-0.137486,-1.101423,1016.547974
358736,0.149343,0.212553,-0.023087,0.236482268,0.170640722,1.053836082,0.765949,-0.145877,-1.145404,1016.547974
358836,0.171651,0.226272,-0.068873,0.249269278,0.165235258,1.077158763,0.79721,-0.149552,-1.193155,1016.547974
358936,0.186618,0.244663,-0.102161,0.247213814,0.160127423,1.090163402,0.831267,-0.161703,-1.231816,1016.547974
359036,0.199409,0.245552,-0.133167,0.216470103,0.161134227,1.098385876,0.870816,-0.172921,-1.270924,1016.547974
359136,0.216808,0.222048,-0.18784,0.198869794,0.185748763,1.113185361,0.90534,-0.181689,-1.307408,1016.547974
359236,0.232701,0.197694,-0.265821,0.206628866,0.239906598,1.141134227,0.945408,-0.185916,-1.346659,1016.547974
359336,0.245955,0.220289,-0.360854,0.255893814,0.279210619,1.178531134,0.989094,-0.184404,-1.392129,1016.547974
359436,0.244501,0.292856,-0.443637,0.325127629,0.281199897,1.224454845,1.044772,-0.172073,-1.438034,1016.547974
359536,0.228533,0.393557,-0.498769,0.390820722,0.244132371,1.287548969,1.113577,-0.150071,-1.49195,1016.547974
359636,0.204603,0.523287,-0.490867,0.470530103,0.185014227,1.380296701,1.211253,-0.124116,-1.544129,1016.547974
359736,0.170159,0.740505,-0.39183,0.485379278,0.120335464,1.524382474,1.328608,-0.090681,-1.581876,1016.547974
359836,0.153989,0.974539,-0.22765,0.385843093,0.022140412,1.658208866,1.476678,-0.056489,-1.583474,1016.547974
359936,0.180917,1.001829,-0.097704,0.230177938,0.017981237,1.652643093,1.618623,-0.025181,-1.523598,1016.547974
360036,0.232722,0.857562,-0.035644,0.016270928,0.030964227,1.528068247,1.730267,0.004732,-1.414725,1016.547974
360136,0.210482,0.671078,0.029424,-0.143861649,0.022869381,1.352907423,1.771844,0.028643,-1.262144,1016.547974
360236,0.112277,0.486344,0.042815,-0.311728866,-0.073293918,1.20513268,1.756595,0.051364,-1.107684,1016.547974
360336,0.013171,0.18314,0.048898,-0.476567216,-0.140289278,1.077060309,1.678653,0.066643,-0.985239,1016.547974
360436,-0.029967,-0.209694,0.106516,-0.471720619,-0.157729897,0.976660619,1.586585,0.077327,-0.907636,1016.547974
360536,-0.03592,-0.523353,0.154508,-0.34700701,-0.160472784,0.932007526,1.478437,0.08008,-0.877554,1016.547974
360636,0.004947,-0.694322,0.17559,-0.111478041,-0.189622784,0.967423093,1.388176,0.076786,-0.872813,1016.547974
360736,0.08841,-0.681982,0.172985,0.105089691,-0.19808701,1.048188454,1.31205,0.063835,-0.879571,1016.547974
360836,0.17332,-0.480354,0.155349,0.224803711,-0.157637938,1.126844742,1.252159,0.035718,-0.877564,1016.547974
360936,0.223267,-0.199865,0.123344,0.223862165,-0.082547629,1.169594124,1.204466,-0.000697,-0.86294,1016.547974
361036,0.206267,0.060872,0.123859,0.167255155,0.001486907,1.178203814,1.157994,-0.039826,-0.833922,1016.547974
361136,0.123398,0.271779,0.218381,0.138485876,0.082139897,1.179763196,1.103828,-0.078419,-0.792861,1016.547974
361236,0.010644,0.368621,0.3628,0.087090103,0.131627113,1.140096082,1.044608,-0.105714,-0.746219,1016.547974
361336,-0.084435,0.298292,0.440175,0.013216907,0.15460433,1.06853732,0.976471,-0.13175,-0.702028,1016.547974
361436,-0.142446,0.139488,0.412002,-0.006279278,0.156914433,1.009231443,0.904546,-0.140349,-0.66597,1016.547974
361536,-0.175911,-0.007486,0.362803,0.04492866,0.146505979,0.949426392,0.826458,-0.140104,-0.645502,1016.547974
361636,-0.206034,-0.114988,0.359443,0.102396392,0.129361237,0.885877835,0.765475,-0.128282,-0.632442,1016.547974
361736,-0.230964,-0.188107,0.343337,0.119938557,0.108474227,0.810921856,0.706681,-0.11499,-0.629826,1016.547974
361836,-0.24244,-0.24814,0.297396,0.120758969,0.088870309,0.733391753,0.670001,-0.096084,-0.63692,1016.547974
361936,-0.249629,-0.281782,0.232747,0.123446598,0.077982371,0.661569485,0.627272,-0.075781,-0.63994,1016.545593
362036,-0.25392,-0.2857,0.172665,0.134725876,0.069597732,0.611107423,0.601682,-0.050756,-0.653224,1016.545593
362136,-0.254118,-0.24887,0.131902,0.151416804,0.056465155,0.583700309,0.578517,-0.031895,-0.663812,1016.545593
362236,-0.238595,-0.185391,0.127371,0.159011134,0.046658969,0.580122062,0.5689,-0.00902,-0.67919,1016.545593
362336,-0.22044,-0.106845,0.129878,0.159387423,0.046912474,0.606655155,0.555836,0.009547,-0.697298,1016.545593
362436,-0.206495,-0.027206,0.123709,0.15081732,0.04829433,0.652143093,0.559714,0.031332,-0.715223,1016.545593
362536,-0.205452,0.026443,0.10344,0.137640825,0.037680515,0.695132887,0.558814,0.05273,-0.744195,1016.545593
362636,-0.207502,0.020798,0.084191,0.121548557,0.016707938,0.732716907,0.568922,0.081524,-0.774783,1016.545593
362736,-0.199851,-0.03696,0.051968,0.103157113,-0.002934742,0.763429588,0.571086,0.108523,-0.806973,1016.545593
362836,-0.185132,-0.121583,0.00552,0.08585268,-0.017135361,0.787482887,0.571905,0.136929,-0.847111,1016.545593
362936,-0.164469,-0.22031,-0.044078,0.074456082,-0.023083711,0.796396701,0.56563,0.159675,-0.881532,1016.545593
363036,-0.146055,-0.306013,-0.086164,0.084481134,-0.02586268,0.811314227,0.557336,0.183376,-0.914404,1016.545593
363136,-0.119563,-0.356559,-0.111604,0.106106289,-0.027647526,0.835714227,0.534928,0.19695,-0.939791,1016.545593
363236,-0.091843,-0.373596,-0.116906,0.133252887,-0.036267216,0.85771433,0.51942,0.211216,-0.961127,1016.545593
363336,-0.072513,-0.380043,-0.112479,0.15843567,-0.04150701,0.876320412,0.489343,0.212991,-0.977604,1016.545593
363436,-0.056373,-0.396749,-0.103452,0.190908144,-0.044514845,0.893426082,0.472155,0.215887,-0.990503,1016.545593
363536,-0.048596,-0.387246,-0.082035,0.230021649,-0.045188454,0.923797938,0.452383,0.213623,-0.999159,1016.543884
363636,-0.050809,-0.323505,-0.055316,0.279943093,-0.041702577,0.973074124,0.440712,0.21157,-1.014809,1016.543884
363736,-0.064305,-0.213369,-0.024503,0.301811237,-0.032806804,1.022448557,0.429039,0.204061,-1.031238,1016.543884
363836,-0.084943,-0.112166,-0.009416,0.293116804,-0.019909072,1.071712887,0.434827,0.205266,-1.047704,1016.543884
363936,-0.107189,-0.038654,-0.016242,0.286086804,-0.01127268,1.111967732,0.438169,0.20018,-1.0675,1016.543884
364036,-0.13293,0.016857,-0.024318,0.285077938,-0.01855866,1.142948866,0.449507,0.199997,-1.08804,1016.543884
364136,-0.149373,0.0638,-0.009935,0.277165567,-0.035641546,1.156516495,0.457762,0.198624,-1.103633,1016.543884
364236,-0.152328,0.098123,0.025621,0.27139,-0.033390309,1.163728351,0.478987,0.192136,-1.120976,1016.543884
364336,-0.159219,0.133063,0.048141,0.261096289,-0.021243918,1.155259794,0.49224,0.189735,-1.137618,1016.543884
364436,-0.166959,0.166809,0.066425,0.235637835,-0.015826495,1.137210825,0.519451,0.182678,-1.155483,1016.543884
364536,-0.179568,0.211675,0.094708,0.206426392,-0.018507113,1.106751856,0.54859,0.175421,-1.16985,1016.543884
364636,-0.199348,0.283946,0.142837,0.190819381,-0.022436186,1.09595134,0.582202,0.157653,-1.185249,1016.543884
364736,-0.227576,0.385302,0.231532,0.194492887,-0.033272268,1.128666392,0.619253,0.139212,-1.198172,1016.543884
364836,-0.236924,0.46247,0.319819,0.238456392,-0.038631753,1.197066804,0.666202,0.110029,-1.209127,1016.543884
364936,-0.225132,0.52712,0.319522,0.354378041,-0.003273814,1.289226495,0.716423,0.074283,-1.209391,1016.543884
365036,-0.200787,0.599666,0.179663,0.48499866,0.045598351,1.354862784,0.783587,0.037793,-1.210174,1016.543884
365136,-0.179507,0.633678,-0.021115,0.575033814,0.110580515,1.404874124,0.869521,-0.005361,-1.203259,1016.545593
365236,-0.136972,0.639134,-0.15877,0.541030103,0.20921866,1.445332887,0.97183,-0.052906,-1.193544,1016.545593
365336,-0.119767,0.606891,-0.265358,0.384207732,0.298624536,1.47180701,1.080247,-0.108444,-1.16519,1016.545593
365436,-0.131781,0.525308,-0.350205,0.17989567,0.326291134,1.50006,1.192171,-0.162308,-1.110692,1016.545593
365536,-0.126015,0.379813,-0.294573,-0.032559381,0.270610515,1.43822701,1.269305,-0.228122,-1.035297,1016.545593
365636,-0.129624,0.223156,-0.170166,-0.244992474,0.260009175,1.369575567,1.310692,-0.287909,-0.938592,1016.545593
365736,-0.109272,0.109925,-0.053707,-0.363629381,0.212231031,1.146784433,1.297858,-0.341684,-0.845148,1016.545593
365836,-0.10797,-0.041951,-0.026264,-0.337922165,0.20769134,0.932809381,1.271986,-0.382774,-0.772115,1016.545593
365936,-0.133621,-0.251431,-0.099554,-0.25241732,0.216053505,0.826769588,1.238219,-0.414812,-0.728693,1016.545593
366036,-0.125558,-0.426652,-0.169777,-0.161535464,0.201409381,0.794368557,1.217522,-0.427594,-0.71584,1016.545593
366136,-0.107281,-0.50517,-0.222076,-0.057554639,0.23688,0.788116392,1.209118,-0.433246,-0.720146,1016.545593
366236,-0.09202,-0.492718,-0.279014,0.036073814,0.307083608,0.846886289,1.216443,-0.428479,-0.738433,1016.545593
366336,-0.060906,-0.383567,-0.329519,0.100633608,0.37200134,0.942741031,1.223468,-0.411788,-0.765632,1016.545593
366436,0.003573,-0.220682,-0.341754,0.119565979,0.413941237,1.058764227,1.234429,-0.385365,-0.788824,1016.545593
366536,0.085832,-0.084812,-0.362196,0.092654124,0.406509794,1.154924845,1.219958,-0.35415,-0.809796,1016.545593
366636,0.143747,-0.016724,-0.422229,0.063595052,0.34130732,1.204608969,1.195273,-0.312515,-0.815717,1016.545593
366736,0.15246,-0.005502,-0.478385,0.048128866,0.262269588,1.210297113,1.14153,-0.276311,-0.81343,1016.545593
366836,0.13812,-0.033462,-0.489762,0.029835464,0.159602165,1.166222062,1.083178,-0.232426,-0.803241,1016.545593
366936,0.121295,-0.095726,-0.462347,0.015349588,0.056988866,1.085294227,1.008802,-0.203877,-0.790846,1016.545593
367036,0.116995,-0.137973,-0.408125,0.017103814,-0.014739794,1.00734134,0.946421,-0.179881,-0.781175,1016.545593
367136,0.124739,-0.179154,-0.314074,0.038416701,-0.023866598,0.915904639,0.880635,-0.166527,-0.777561,1016.545593
367236,0.116564,-0.226486,-0.215739,0.076653918,-0.002497216,0.819634742,0.83884,-0.155328,-0.77854,1016.545593
367336,0.10517,-0.247181,-0.135135,0.116574124,0.019360309,0.755352165,0.807116,-0.150949,-0.786369,1016.545593
367436,0.110648,-0.244723,-0.095134,0.145006598,0.036743093,0.715423608,0.792443,-0.149516,-0.800842,1016.545593
367536,0.134522,-0.220346,-0.077682,0.165296392,0.047525773,0.693771443,0.785788,-0.14759,-0.817787,1016.545593
367636,0.170872,-0.188759,-0.062729,0.167948041,0.055598557,0.680239278,0.797076,-0.149886,-0.835929,1016.545593
367736,0.203403,-0.136379,-0.064315,0.158952474,0.066090722,0.671580825,0.808958,-0.155911,-0.859772,1016.545593
367836,0.221992,-0.079187,-0.080196,0.137325979,0.077410103,0.661030515,0.835848,-0.162503,-0.887135,1016.545593
367936,0.230415,-0.04585,-0.09033,0.109601443,0.087642784,0.663774639,0.856372,-0.170197,-0.920573,1016.545593
368036,0.22954,-0.045528,-0.080668,0.092341959,0.093049072,0.683414021,0.8915,-0.176716,-0.962452,1016.545593
368136,0.225674,-0.075265,-0.056359,0.08381701,0.094191031,0.711246495,0.918354,-0.184088,-1.014907,1016.545593
368236,0.216496,-0.114319,-0.032852,0.088921649,0.09996732,0.738235464,0.947404,-0.186503,-1.077627,1016.547302
368336,0.195372,-0.15408,-0.005397,0.095239381,0.106596082,0.760302784,0.96153,-0.188134,-1.141327,1016.547302
368436,0.173016,-0.187348,0.032601,0.095616701,0.107733608,0.779237216,0.974071,-0.187989,-1.199928,1016.547302
368536,0.149498,-0.201388,0.067306,0.09689701,0.109844227,0.799214536,0.967474,-0.191561,-1.247716,1016.547302
368636,0.131745,-0.210777,0.091189,0.103712474,0.109340412,0.818185258,0.953729,-0.198446,-1.286663,1016.547302
368736,0.126368,-0.225502,0.105708,0.131688557,0.115285773,0.848157938,0.922634,-0.209111,-1.303776,1016.547302
368836,0.127815,-0.233096,0.114685,0.170023196,0.134090619,0.881513196,0.896869,-0.214791,-1.312111,1016.547302
368936,0.13302,-0.231846,0.120792,0.213352062,0.158257835,0.892959691,0.869821,-0.230621,-1.306435,1016.547302
369036,0.136299,-0.212015,0.136508,0.245453814,0.177287423,0.889846701,0.84847,-0.239033,-1.311397,1016.547302
369136,0.132667,-0.175425,0.143627,0.262738351,0.18780299,0.883973711,0.825393,-0.252483,-1.304593,1016.547302
369236,0.1229,-0.110838,0.147115,0.263544845,0.190817835,0.885035052,0.815559,-0.25844,-1.312423,1016.547302
369336,0.109192,-0.04645,0.14637,0.260993196,0.18289732,0.892458763,0.804276,-0.264752,-1.322779,1016.547302
369436,0.097495,0.01495,0.140196,0.261521237,0.161614536,0.909511856,0.80313,-0.266803,-1.341924,1016.547302
369536,0.095898,0.064654,0.129402,0.277129897,0.137935052,0.934931443,0.79607,-0.269586,-1.364621,1016.547302
369636,0.107471,0.102059,0.114282,0.295023918,0.128307526,0.980719897,0.799532,-0.27436,-1.390915,1016.547302
369736,0.130181,0.130467,0.092979,0.295722887,0.127759381,1.018601753,0.801877,-0.279431,-1.410711,1016.547302
369836,0.155128,0.164377,0.085116,0.288855464,0.139523918,1.043940412,0.813173,-0.288156,-1.430183,1016.547302
369936,0.176776,0.200243,0.07929,0.269967629,0.15316,1.047390825,0.822963,-0.297878,-1.449206,1016.549011
370036,0.190749,0.226536,0.064751,0.250056804,0.16473567,1.046985155,0.842253,-0.30865,-1.470277,1016.549011
370136,0.197133,0.240894,0.030218,0.238023608,0.174956701,1.061310928,0.857445,-0.325603,-1.486156,1016.549011
370236,0.204738,0.240578,-0.02431,0.240548247,0.179111134,1.088117526,0.884784,-0.333818,-1.511095,1016.549011
370336,0.21877,0.230805,-0.091907,0.252904124,0.201986598,1.126605155,0.909617,-0.345505,-1.535713,1016.549011
370436,0.228766,0.224028,-0.175504,0.28497268,0.241296186,1.167098557,0.947502,-0.352673,-1.565096,1016.549011
370536,0.222781,0.259474,-0.249281,0.346738763,0.274737835,1.208378969,0.982607,-0.351315,-1.604571,1016.549011
370636,0.200215,0.353399,-0.290594,0.417081856,0.274752062,1.243364124,1.046291,-0.350425,-1.654057,1016.549011
370736,0.17098,0.491646,-0.284594,0.472914433,0.239490619,1.275656289,1.125063,-0.341463,-1.71013,1016.549011
370836,0.137332,0.671983,-0.23876,0.512929588,0.178677113,1.351443505,1.23494,-0.33341,-1.778239,1016.549011
370936,0.114447,0.911147,-0.147166,0.445483196,0.093394845,1.509771649,1.368451,-0.319507,-1.830491,1016.549011
371036,0.133029,1.08998,0.031346,0.308705773,0.035987732,1.637068351,1.533864,-0.307845,-1.857269,1016.549011
371136,0.184216,0.871088,0.165426,0.074139691,0.040279381,1.603188041,1.686236,-0.296319,-1.825446,1016.549011
371236,0.208945,0.482288,0.170986,-0.117001856,0.055520928,1.478219485,1.790449,-0.281253,-1.747902,1016.549011
371336,0.158038,0.276852,0.101655,-0.199485258,0.028310928,1.326944124,1.829198,-0.251615,-1.630105,1016.549011
371436,0.063555,0.144264,0.076732,-0.290215876,-0.048044639,1.192672784,1.816093,-0.223269,-1.509928,1016.549011
371536,-0.016793,-0.080606,0.135002,-0.313810619,-0.078734845,1.083474845,1.760429,-0.193521,-1.404757,1016.550781
371636,-0.073259,-0.304649,0.158187,-0.237229381,-0.093502371,1.003562268,1.689961,-0.164358,-1.334205,1016.550781
371736,-0.067788,-0.421725,0.119993,-0.101377835,-0.162515979,0.971494433,1.618589,-0.137117,-1.295819,1016.550781
371836,-0.004841,-0.45053,0.08951,0.033665052,-0.218365979,0.98696268,1.569904,-0.123909,-1.274157,1016.550781
371936,0.082726,-0.384274,0.102897,0.107723918,-0.225798557,1.028926598,1.531257,-0.130999,-1.25953,1016.550781
372036,0.156239,-0.234911,0.119191,0.082757938,-0.174854845,1.098913711,1.503441,-0.152477,-1.240113,1016.550781
372136,0.173414,-0.083605,0.116591,0.030839381,-0.104274021,1.14159732,1.469448,-0.18777,-1.211889,1016.550781
372236,0.126539,-0.00337,0.136884,0.024171959,-0.018927113,1.142878247,1.422683,-0.224681,-1.166725,1016.550781
372336,0.033451,-0.012429,0.209362,0.034494536,0.054925052,1.129167938,1.36292,-0.261507,-1.119066,1016.550781
372436,-0.070597,-0.042094,0.291347,0.059655052,0.124624021,1.127579897,1.298162,-0.290354,-1.069503,1016.550781
372536,-0.153981,-0.059745,0.322145,0.064667938,0.165980515,1.101687732,1.223564,-0.302859,-1.024128,1016.550781
372636,-0.206297,-0.072918,0.293733,0.076298454,0.167647526,1.058253711,1.153609,-0.303117,-0.985639,1016.550781
372736,-0.231998,-0.086535,0.237521,0.119376701,0.160628351,0.992336701,1.085447,-0.292213,-0.96161,1016.550781
372836,-0.243248,-0.120272,0.174189,0.15716,0.135062577,0.90739567,1.031931,-0.272586,-0.947141,1016.550781
372936,-0.246055,-0.161663,0.124976,0.180005361,0.100853402,0.825757216,0.985562,-0.244689,-0.940761,1016.550781
373036,-0.243294,-0.192491,0.089058,0.18951701,0.064838351,0.755037629,0.958283,-0.214192,-0.942743,1016.550781
373136,-0.235465,-0.192794,0.078363,0.189116598,0.041407216,0.694637526,0.931062,-0.183053,-0.9477,1016.550781
373236,-0.22233,-0.147119,0.08049,0.17705567,0.030721649,0.64289,0.919297,-0.149144,-0.952999,1016.550781
373336,-0.20999,-0.077168,0.098247,0.15574732,0.018098247,0.607130309,0.906428,-0.117977,-0.952927,1016.550781
373436,-0.202154,-0.00921,0.119733,0.125756701,0.017452062,0.576733608,0.909704,-0.086532,-0.963846,1016.550781
373536,-0.2114,0.040416,0.111624,0.108734227,0.011087835,0.576434021,0.90454,-0.055379,-0.976293,1016.550781
373636,-0.221543,0.057039,0.093085,0.098801856,0.01373,0.608119381,0.90953,-0.020414,-0.998555,1016.550781
373736,-0.230909,0.036935,0.067173,0.099211237,0.013108763,0.656122784,0.911149,0.022344,-1.025934,1016.550781
373836,-0.235135,-0.012451,0.030264,0.104178144,0.011329691,0.709880825,0.916987,0.066637,-1.065757,1016.550781
373936,-0.243696,-0.079422,-0.007965,0.109370619,0.007649588,0.76097,0.914438,0.114247,-1.109428,1016.550781
374036,-0.236007,-0.15331,-0.041667,0.120176082,0.004984639,0.808142577,0.905368,0.157877,-1.151306,1016.550781
374136,-0.219021,-0.21507,-0.065025,0.128668866,0.005829072,0.846537629,0.884289,0.197093,-1.190916,1016.550781
374236,-0.196506,-0.257312,-0.071542,0.137888041,0.009117423,0.881476804,0.858062,0.236452,-1.221507,1016.550781
374336,-0.175672,-0.289903,-0.065314,0.144443299,0.005542887,0.908623402,0.817699,0.263642,-1.243715,1016.550781
374436,-0.156894,-0.322327,-0.059999,0.161439381,-0.009327423,0.927567835,0.782587,0.282219,-1.254832,1016.550781
374536,-0.146752,-0.346182,-0.05755,0.187753196,-0.031738454,0.941108454,0.737377,0.297628,-1.259107,1016.550781
374636,-0.141892,-0.354356,-0.062034,0.213725979,-0.048431649,0.944613711,0.703515,0.304144,-1.258813,1016.550781
374736,-0.131224,-0.343546,-0.071089,0.242088247,-0.060140103,0.943634536,0.666247,0.308939,-1.263119,1016.548523
374836,-0.117222,-0.312349,-0.07079,0.266601031,-0.068010412,0.948859381,0.642948,0.315057,-1.268345,1016.548523
374936,-0.102701,-0.249092,-0.054452,0.290013608,-0.069859794,0.954768144,0.624245,0.31743,-1.28027,1016.548523
375036,-0.095226,-0.161582,-0.032414,0.306722474,-0.06007701,0.96082299,0.615051,0.323236,-1.294014,1016.548523
375136,-0.103842,-0.073449,-0.006426,0.310267113,-0.042012577,0.975805052,0.610979,0.325364,-1.315955,1016.548523
375236,-0.116012,-0.010553,0.012499,0.302659175,-0.02495701,1.001474742,0.614915,0.332917,-1.339115,1016.548523
375336,-0.127907,0.038349,0.020401,0.295978763,-0.01875567,1.050215876,0.61792,0.335697,-1.366527,1016.548523
375436,-0.140164,0.103988,0.032199,0.298128969,-0.012432474,1.099826082,0.62777,0.338527,-1.386914,1016.548523
375536,-0.157142,0.18071,0.057696,0.293075876,0.000499485,1.137401134,0.63993,0.333909,-1.39866,1016.548523
375636,-0.17726,0.241449,0.084836,0.272103918,0.02004732,1.140712062,0.658528,0.328593,-1.40843,1016.548523
375736,-0.202058,0.250949,0.104123,0.236519588,0.02766299,1.11946299,0.673983,0.314992,-1.411111,1016.548523
375836,-0.219522,0.225299,0.128225,0.217789278,0.017368557,1.109995052,0.695952,0.302382,-1.415737,1016.548523
375936,-0.231455,0.232336,0.179131,0.229617526,-0.014988866,1.136540619,0.721914,0.288735,-1.420913,1016.548523
376036,-0.230551,0.323435,0.275802,0.259803299,-0.047210928,1.177991443,0.756859,0.2735,-1.427163,1016.548523
376136,-0.219349,0.459338,0.387874,0.300542371,-0.04498433,1.218987113,0.800251,0.252128,-1.433214,1016.548523
376236,-0.204316,0.571423,0.437325,0.341250206,-0.007643711,1.268526701,0.855479,0.225793,-1.433493,1016.548523
376336,-0.193676,0.630173,0.374228,0.398777216,0.063365155,1.311779794,0.922648,0.197251,-1.43337,1016.548523
376436,-0.184352,0.684058,0.100746,0.456829381,0.118747526,1.374551856,1.001602,0.171549,-1.423569,1016.548523
376536,-0.143433,0.720118,0.030361,0.467513505,0.19860732,1.468136907,1.093257,0.135574,-1.401752,1016.548523
376636,-0.109105,0.690983,-0.073294,0.35724732,0.249300722,1.51465134,1.188872,0.097182,-1.351995,1016.548523
376736,-0.058533,0.521447,-0.143551,0.182631237,0.281191753,1.508730619,1.265932,0.047545,-1.270264,1016.548523
376836,-0.042921,0.3431,-0.11183,0.008500103,0.221525876,1.457988557,1.319031,-0.008598,-1.159832,1016.548523
376936,-0.04719,0.263619,-0.021945,-0.134365773,0.197130722,1.316274021,1.326658,-0.071334,-1.042772,1016.548523
377036,-0.034459,0.17538,0.126011,-0.224061443,0.183942062,1.15163732,1.309484,-0.126459,-0.930362,1016.548523
377136,-0.035508,-0.016579,0.233725,-0.240422062,0.202737835,0.976965567,1.282314,-0.175754,-0.842216,1016.548523
377236,-0.049872,-0.228936,0.293496,-0.208514124,0.226560722,0.870786495,1.256751,-0.205137,-0.784119,1016.548523
377336,-0.066789,-0.360554,0.297424,-0.141811959,0.240285773,0.818465155,1.244704,-0.229294,-0.755803,1016.548523
377436,-0.07275,-0.405225,0.217626,-0.043700619,0.277044639,0.808614639,1.24543,-0.240423,-0.742841,1016.548523
377536,-0.058967,-0.340997,0.054252,0.052024742,0.337811959,0.855388866,1.254332,-0.240236,-0.739315,1016.548523
377636,-0.028072,-0.185562,-0.042012,0.12426299,0.389923814,0.93182299,1.266325,-0.239333,-0.741259,1016.548523
377736,0.034506,-0.041012,-0.076313,0.146010825,0.384481856,1.019961237,1.271742,-0.227679,-0.73615,1016.548523
377836,0.097236,0.102104,-0.198589,0.138908557,0.336899485,1.100596701,1.261985,-0.214895,-0.718473,1016.548523
377936,0.143539,0.193046,-0.349629,0.129500619,0.269939691,1.148514742,1.231692,-0.203073,-0.694857,1016.548523
378036,0.180009,0.164478,-0.48983,0.08581299,0.175481237,1.136900619,1.185732,-0.192082,-0.659275,1016.548523
378136,0.199476,0.067017,-0.486446,0.03562433,0.092647835,1.103778763,1.119934,-0.18452,-0.6289,1016.548523
378236,0.203827,-0.051107,-0.409785,-0.014170412,0.009379794,1.041999691,1.052239,-0.175191,-0.603448,1016.548523
378336,0.213035,-0.147131,-0.297355,-0.039175979,-0.03558134,0.96816567,0.983676,-0.171962,-0.585824,1016.548523
378436,0.216871,-0.223365,-0.179438,-0.014510928,-0.029486289,0.86583299,0.932282,-0.168399,-0.580689,1016.548523
378536,0.20868,-0.288324,-0.073481,0.045056186,-0.000216082,0.774655155,0.891085,-0.163396,-0.587996,1016.548523
378636,0.201099,-0.345036,-0.036892,0.099997629,0.040110825,0.717500103,0.869964,-0.157327,-0.603242,1016.548523
378736,0.213097,-0.387371,-0.048099,0.149525464,0.063982887,0.709007732,0.860781,-0.15496,-0.618163,1016.548523
378836,0.245873,-0.380762,-0.046563,0.193163196,0.089776598,0.710519381,0.862662,-0.151505,-0.638528,1016.548523
378936,0.273302,-0.323687,-0.048224,0.208078969,0.115230309,0.706074021,0.870352,-0.159491,-0.651452,1016.548523
379036,0.288151,-0.237881,-0.053574,0.192009381,0.13304732,0.687476392,0.882534,-0.167027,-0.66485,1016.548523
379136,0.281497,-0.145586,-0.066569,0.15499433,0.141257732,0.671001443,0.895231,-0.176514,-0.679349,1016.548523
379236,0.269736,-0.064091,-0.074958,0.118270206,0.127656495,0.660729381,0.915348,-0.183276,-0.690694,1016.548523
379336,0.25683,-0.010157,-0.081784,0.090972474,0.100234227,0.659159897,0.939276,-0.18479,-0.718802,1016.548523
379436,0.24696,-0.016375,-0.087202,0.068271753,0.073165464,0.665279588,0.970352,-0.182494,-0.755728,1016.548523
379536,0.24487,-0.096317,-0.081491,0.064741649,0.061408866,0.688024021,1.001239,-0.178398,-0.809096,1016.548523
379636,0.247744,-0.199998,-0.073119,0.08883433,0.070694639,0.738299485,1.032806,-0.170863,-0.871808,1016.548523
379736,0.251769,-0.281395,-0.056637,0.125374536,0.088381856,0.799350619,1.051984,-0.159001,-0.93732,1016.548523
379836,0.257875,-0.322297,-0.032257,0.157918351,0.113866082,0.853752371,1.062566,-0.156261,-0.997293,1016.548523
379936,0.254736,-0.327659,-0.006598,0.170685258,0.145942165,0.888995773,1.053954,-0.155888,-1.04338,1016.548523
380036,0.236101,-0.313312,0.009496,0.170664742,0.172836907,0.890512371,1.0431,-0.150677,-1.075193,1016.548523
380136,0.206546,-0.290478,0.018974,0.175428351,0.188910722,0.875410412,1.011627,-0.150607,-1.09727,1016.548523
380236,0.174117,-0.244727,0.023347,0.193422784,0.186263196,0.862135258,0.985875,-0.149312,-1.10525,1016.548523
380336,0.157187,-0.184623,0.037475,0.225985052,0.171732887,0.860009278,0.959256,-0.142706,-1.119473,1016.548523
380436,0.158307,-0.115693,0.041474,0.26717433,0.156961546,0.867013814,0.940121,-0.140157,-1.134897,1016.548523
380536,0.169362,-0.041718,0.025132,0.304808247,0.141210722,0.892964742,0.923099,-0.13187,-1.156038,1016.548523
380636,0.180337,0.024116,-0.005334,0.328864536,0.138737835,0.931733608,0.921596,-0.122638,-1.181122,1016.548523
380736,0.188164,0.077452,-0.029591,0.325316907,0.140866701,0.974895258,0.924248,-0.111541,-1.215125,1016.548523
380836,0.191706,0.116671,-0.042715,0.307146392,0.14563299,1.001802371,0.930915,-0.098941,-1.250551,1016.548523
380936,0.187074,0.14583,-0.057137,0.289868351,0.157953093,1.016410412,0.938337,-0.088166,-1.300097,1016.548523
381036,0.168174,0.186151,-0.063135,0.285356186,0.160976495,1.028980103,0.951612,-0.068879,-1.341688,1016.548523
381136,0.146308,0.259111,-0.046884,0.280612371,0.142469072,1.048615052,0.967012,-0.058703,-1.391757,1016.548523
381236,0.137773,0.327072,-0.041174,0.264187526,0.118711856,1.066943814,0.990335,-0.043817,-1.438571,1016.548523
381336,0.149066,0.358429,-0.069866,0.246853196,0.103902474,1.09009866,1.008671,-0.031842,-1.485539,1016.548523
381436,0.183003,0.347315,-0.112528,0.241066907,0.113958866,1.118584021,1.034868,-0.019285,-1.526456,1016.548523
381536,0.216252,0.316778,-0.152249,0.266605876,0.160508041,1.156974845,1.060506,-0.009356,-1.564501,1016.548523
381636,0.230505,0.308332,-0.19195,0.315992474,0.225001959,1.211032371,1.092028,0.000238,-1.597547,1016.548523
381736,0.218537,0.349119,-0.233108,0.373290309,0.272814124,1.25899299,1.127538,0.016719,-1.629735,1016.548523
381836,0.183376,0.432101,-0.274701,0.418736907,0.277716082,1.283929691,1.174006,0.042943,-1.660413,1016.548523
381936,0.143877,0.532188,-0.306656,0.452992784,0.24417567,1.299400619,1.234518,0.076137,-1.695229,1016.548523
382036,0.108847,0.665197,-0.298516,0.491548454,0.187606082,1.338622371,1.315495,0.122508,-1.730352,1016.548523
382136,0.085589,0.871649,-0.196685,0.490874021,0.100855155,1.443917835,1.412699,0.180472,-1.752341,1016.548523
382236,0.075215,1.083846,0.007025,0.361707835,0.031472784,1.542562474,1.53326,0.235141,-1.744909,1016.548523
382336,0.081451,1.079688,0.199489,0.192585876,0.002814021,1.560946392,1.640594,0.287011,-1.696048,1016.548523
382436,0.126396,0.83932,0.28409,0.003278557,-0.018182577,1.462606804,1.708548,0.330887,-1.593025,1016.548523
382536,0.117851,0.607102,0.288872,-0.149341546,-0.068264639,1.296288041,1.719242,0.359063,-1.466817,1016.548523
382636,0.062789,0.425595,0.23381,-0.22597433,-0.137080103,1.181522577,1.682506,0.37432,-1.336811,1016.548523
382736,-0.004263,0.158257,0.24048,-0.26093701,-0.152536392,1.059055464,1.612442,0.377634,-1.238015,1016.548523
382836,-0.040459,-0.151887,0.228119,-0.230318763,-0.144434124,0.933179691,1.537947,0.377987,-1.169438,1016.548523
382936,-0.055711,-0.379458,0.146621,-0.133177113,-0.164555258,0.851479072,1.468519,0.372836,-1.133202,1016.548523
383036,-0.016231,-0.486345,0.094749,-0.000588144,-0.251327835,0.870776598,1.419979,0.368067,-1.121976,1016.548523
383136,0.070946,-0.48876,0.084465,0.102218866,-0.283977113,0.952575979,1.386547,0.346626,-1.122104,1016.548523
383236,0.164984,-0.385246,0.035054,0.154649588,-0.222169897,1.102245155,1.363446,0.319226,-1.116011,1016.548523
383336,0.225953,-0.178828,-0.031004,0.152948041,-0.124464536,1.225184227,1.33162,0.272947,-1.098866,1016.548523
383436,0.220768,0.052432,-0.041262,0.16007268,-0.015520722,1.292873093,1.294919,0.220272,-1.061509,1016.548523
383536,0.143841,0.209571,0.051608,0.185082371,0.090839072,1.300970825,1.233026,0.157827,-1.010149,1016.548523
383636,0.016795,0.222588,0.210607,0.174839175,0.174017835,1.246909278,1.159433,0.105353,-0.944264,1016.548523
383736,-0.104114,0.142141,0.304694,0.143596804,0.209737113,1.162367423,1.073107,0.065547,-0.888269,1016.548523
383836,-0.189948,0.025032,0.326559,0.125048866,0.18205134,1.049901649,0.987499,0.040688,-0.842033,1016.548523
383936,-0.233227,-0.086359,0.30965,0.14456567,0.129785876,0.929929072,0.906122,0.028301,-0.807182,1016.548523
384036,-0.259651,-0.195461,0.282272,0.160893505,0.082388763,0.810694845,0.838529,0.026982,-0.788786,1016.548523
384136,-0.269148,-0.314588,0.230024,0.149379485,0.04425134,0.713842474,0.7931,0.039346,-0.781693,1016.548523
384236,-0.265504,-0.401843,0.166546,0.149137113,0.008490309,0.63236866,0.764338,0.055016,-0.786438,1016.548523
384336,-0.242557,-0.420299,0.103718,0.159234536,-0.018577216,0.568485155,0.74564,0.075253,-0.795949,1016.548523
384436,-0.207104,-0.389686,0.075436,0.170778144,-0.028391546,0.527536907,0.741455,0.097423,-0.808852,1016.548523
384536,-0.180319,-0.328485,0.077593,0.171488866,-0.020543299,0.519830825,0.740781,0.117117,-0.823381,1016.548523
384636,-0.171765,-0.260973,0.083184,0.158934433,-0.00356,0.54936,0.749098,0.140206,-0.838729,1016.548523
384736,-0.186562,-0.203724,0.064132,0.134432577,0.024319175,0.607092474,0.760029,0.165063,-0.860497,1016.548523
384836,-0.210241,-0.15833,0.021147,0.121760619,0.038075876,0.669484948,0.775413,0.188282,-0.880841,1016.548523
384936,-0.246061,-0.143443,0.006233,0.120009794,0.033658454,0.719423299,0.78347,0.225384,-0.906999,1016.548523
385036,-0.26042,-0.16356,-0.003473,0.119215052,0.016094536,0.786019072,0.792696,0.260936,-0.942754,1016.548523
385136,-0.260332,-0.182772,-0.019949,0.124175567,-0.009032474,0.828047423,0.793498,0.300205,-0.980333,1016.548523
385236,-0.244255,-0.210996,-0.052502,0.130326907,-0.029228351,0.844379175,0.793355,0.337145,-1.021039,1016.548523
385336,-0.214254,-0.256093,-0.10276,0.140616082,-0.040781649,0.845382268,0.788788,0.38125,-1.063889,1016.548523
385436,-0.176611,-0.308061,-0.156568,0.15838134,-0.045953299,0.849837423,0.780617,0.416676,-1.101674,1016.548523
385536,-0.136703,-0.35564,-0.195296,0.170515361,-0.049916701,0.86387433,0.763499,0.452791,-1.140436,1016.548523
385636,-0.106559,-0.383065,-0.21069,0.186435052,-0.052626598,0.877392371,0.745672,0.47944,-1.16916,1016.548523
385736,-0.077899,-0.405945,-0.202693,0.200887732,-0.046359072,0.890247629,0.718258,0.500469,-1.192168,1016.548523
385836,-0.054504,-0.432867,-0.187072,0.213976082,-0.044026186,0.90438732,0.697286,0.51238,-1.214633,1016.548523
385936,-0.047877,-0.440159,-0.166503,0.235040825,-0.050844948,0.913381237,0.669135,0.523871,-1.226103,1016.548523
386036,-0.050738,-0.40292,-0.130857,0.28124134,-0.068565773,0.934239897,0.64804,0.534472,-1.242121,1016.548523
386136,-0.057438,-0.305754,-0.099435,0.3326,-0.083066598,0.963721031,0.625488,0.545193,-1.260138,1016.548523
386236,-0.063223,-0.171421,-0.071367,0.358640928,-0.08574268,0.997055567,0.617821,0.558996,-1.274474,1016.548523
386336,-0.070197,-0.045636,-0.049909,0.360076289,-0.077560103,1.020386804,0.609769,0.57459,-1.294732,1016.548523
386436,-0.07244,0.041883,-0.029874,0.343359485,-0.070763196,1.053599278,0.610215,0.590621,-1.316461,1016.548523
386536,-0.07232,0.097972,0.001441,0.324767526,-0.062789381,1.088214021,0.60575,0.610387,-1.341513,1016.548523
386636,-0.077035,0.139329,0.059356,0.307796392,-0.055069072,1.113046289,0.61214,0.623261,-1.361893,1016.548523
386736,-0.091673,0.190617,0.135899,0.28418433,-0.044655258,1.131264845,0.613101,0.643792,-1.383893,1016.548523
386836,-0.110548,0.218275,0.220091,0.249286701,-0.043285361,1.128179072,0.620415,0.652994,-1.400952,1016.548523
386936,-0.131423,0.194383,0.286193,0.217110412,-0.05291,1.117327835,0.627275,0.660331,-1.420612,1016.548523
387036,-0.152889,0.171794,0.333625,0.220780515,-0.082002165,1.13821732,0.638513,0.666337,-1.434823,1016.548523
387136,-0.158508,0.230293,0.399437,0.270169691,-0.12399268,1.196913505,0.654228,0.663327,-1.44999,1016.548523
387236,-0.144284,0.356167,0.492867,0.332662371,-0.132237526,1.248936907,0.685886,0.6566,-1.465831,1016.548523
387336,-0.111451,0.482384,0.542854,0.39388701,-0.096788247,1.287249278,0.723978,0.647183,-1.479796,1016.548523
387436,-0.086373,0.546498,0.462197,0.478741649,-0.030104639,1.323454124,0.780922,0.631318,-1.490562,1016.548523
387536,-0.074626,0.551702,0.265285,0.562721031,0.034952371,1.362284639,0.855859,0.622764,-1.50344,1016.548523
387636,-0.05504,0.563845,0.086842,0.604269485,0.112627526,1.400434639,0.951022,0.613379,-1.505817,1016.548523
387736,-0.037439,0.673883,-0.004286,0.562000103,0.207066186,1.426322474,1.068043,0.611425,-1.503781,1016.550232
387836,-0.055738,0.746029,-0.05116,0.368548041,0.283611959,1.414813299,1.204006,0.602454,-1.476529,1016.550232
387936,-0.079298,0.536081,-0.09519,0.089786598,0.288960825,1.370520412,1.324463,0.584826,-1.420174,1016.550232
388036,-0.069564,0.157235,-0.141263,-0.121750825,0.23142732,1.345453196,1.419951,0.549273,-1.336202,1016.550232
388136,-0.067282,-0.090897,-0.078486,-0.296543299,0.14032299,1.26394433,1.463321,0.499845,-1.237463,1016.550232
388236,-0.061372,-0.171917,0.042836,-0.38657701,0.115000309,1.111014433,1.470388,0.437758,-1.143919,1016.550232
388336,-0.062265,-0.254068,0.037216,-0.316783196,0.167543711,0.968133093,1.447024,0.385265,-1.073469,1016.550232
388436,-0.043012,-0.390664,0.062828,-0.219639794,0.137001237,0.822817732,1.429544,0.346627,-1.02285,1016.550232
388536,-0.087259,-0.487536,0.063294,-0.047817732,0.195327629,0.781713093,1.418233,0.320596,-1.007655,1016.550232
388636,-0.098926,-0.449922,0.084925,0.043574124,0.233231546,0.833095876,1.426476,0.308473,-0.997241,1016.550232
388736,-0.091197,-0.408801,0.088109,0.112753711,0.303472474,0.877701959,1.434991,0.308957,-0.999712,1016.550232
388836,-0.058239,-0.357255,0.035877,0.138668144,0.380201856,0.983201649,1.453269,0.311244,-0.991057,1016.550232
388936,0.002976,-0.257748,-0.036363,0.125705979,0.385239278,1.112639175,1.45354,0.324537,-0.976851,1016.550232
389036,0.068161,-0.103128,-0.08441,0.075231753,0.327372577,1.23187567,1.431941,0.324107,-0.940321,1016.550232
389136,0.096974,-0.018106,-0.099852,-0.00575299,0.270044845,1.270425464,1.377689,0.325462,-0.888705,1016.550232
389236,0.112792,-0.056483,-0.174736,-0.060308557,0.176891237,1.26995134,1.301548,0.31732,-0.840103,1016.550232
389336,0.131535,-0.169494,-0.320331,-0.050496495,0.03243268,1.210277526,1.20463,0.307404,-0.799632,1016.550232
389436,0.148205,-0.294048,-0.421085,0.013411134,-0.08432866,1.103261031,1.113419,0.299474,-0.771078,1016.550232
389536,0.165061,-0.371434,-0.380881,0.079818454,-0.107685773,0.997770412,1.031924,0.293041,-0.755965,1016.550232
389636,0.177082,-0.393751,-0.299839,0.12251134,-0.081865876,0.895915258,0.975074,0.283857,-0.753991,1016.550232
389736,0.178917,-0.365689,-0.192712,0.169940825,-0.047119381,0.815170928,0.940739,0.283502,-0.756052,1016.550232
389836,0.183702,-0.306845,-0.098517,0.199148866,-0.014258041,0.755588866,0.933013,0.279794,-0.769778,1016.550232
389936,0.194291,-0.231427,-0.024403,0.196285464,0.013686701,0.703701649,0.928161,0.279214,-0.776827,1016.550232
390036,0.208213,-0.165354,0.034945,0.175162784,0.032132887,0.661322371,0.948776,0.272445,-0.788172,1016.550232
390136,0.219317,-0.102942,0.071684,0.140850619,0.050572784,0.638093608,0.964385,0.267177,-0.797943,1016.550232
390236,0.22254,-0.049457,0.074605,0.108964021,0.074636701,0.637474021,0.991455,0.253803,-0.809117,1016.550232
390336,0.212366,-0.018156,0.05036,0.075800722,0.09219732,0.648291031,1.018042,0.248908,-0.819859,1016.550232
390436,0.20351,-0.024959,0.033362,0.058944845,0.091780103,0.667941134,1.050323,0.244978,-0.842068,1016.550232
390536,0.196428,-0.06103,0.035684,0.061635361,0.065189175,0.684931443,1.081345,0.248127,-0.875944,1016.550232
390636,0.189769,-0.115673,0.059927,0.079096392,0.036762577,0.702472784,1.121106,0.252337,-0.924286,1016.550232
390736,0.188374,-0.169194,0.077281,0.099118041,0.029297216,0.723968866,1.15168,0.261382,-0.986922,1016.550232
390836,0.182344,-0.198888,0.082289,0.113832165,0.040877938,0.748993402,1.183888,0.270765,-1.057055,1016.550232
390936,0.171111,-0.194745,0.092248,0.128068763,0.067707526,0.780097938,1.205624,0.284749,-1.125962,1016.546204
391036,0.158033,-0.172218,0.111646,0.125790412,0.089958557,0.81355433,1.216386,0.28994,-1.195331,1016.546204
391136,0.148805,-0.154863,0.147493,0.126669175,0.104905258,0.846560309,1.207902,0.299071,-1.246983,1016.546204
391236,0.139711,-0.15613,0.194862,0.13621268,0.116191237,0.888922268,1.192177,0.298695,-1.2856,1016.546204
391336,0.132562,-0.168012,0.235843,0.156747732,0.12463701,0.924475979,1.161684,0.29474,-1.307381,1016.546204
391436,0.125929,-0.151387,0.267197,0.196840412,0.130404536,0.944991134,1.128273,0.284759,-1.306925,1016.546204
391536,0.130609,-0.108884,0.288165,0.25158,0.129689691,0.947961649,1.095801,0.274119,-1.303496,1016.546204
391636,0.132276,-0.03676,0.286202,0.297612165,0.129280928,0.94138,1.07266,0.261497,-1.293142,1016.546204
391736,0.132314,0.045471,0.260921,0.311375155,0.123818557,0.926916289,1.055219,0.252331,-1.29413,1016.546204
391836,0.131871,0.111719,0.224553,0.306048041,0.111642165,0.912685361,1.05583,0.243195,-1.30161,1016.546204
391936,0.129941,0.171543,0.201662,0.284121856,0.09337866,0.903009794,1.060651,0.234572,-1.321083,1016.546204
392036,0.124977,0.207028,0.195767,0.259257629,0.091905155,0.911065567,1.074111,0.22874,-1.349424,1016.546204
392136,0.124127,0.220604,0.196059,0.247246495,0.091874536,0.938212371,1.084143,0.224603,-1.380688,1016.546204
392236,0.125627,0.229314,0.199461,0.247201134,0.09144,0.983555773,1.106644,0.213863,-1.413779,1016.546204
392336,0.137636,0.231627,0.196226,0.252993196,0.091380206,1.028073402,1.115612,0.208077,-1.441621,1016.546204
392436,0.16617,0.213517,0.149773,0.254943505,0.095278763,1.071678454,1.131984,0.195553,-1.466792,1016.546204
392536,0.19927,0.185716,0.066662,0.26606701,0.115652577,1.108922062,1.147732,0.185189,-1.48484,1016.546204
392636,0.230044,0.172304,-0.039054,0.282134124,0.151423918,1.136702062,1.165276,0.162878,-1.493974,1016.546204
392736,0.234276,0.184959,-0.144691,0.297523093,0.210108247,1.153817526,1.186258,0.150307,-1.499101,1016.546204
392836,0.211407,0.22474,-0.237226,0.32972299,0.262281237,1.177554948,1.218618,0.134372,-1.500378,1016.546204
392936,0.166794,0.300682,-0.290994,0.373549485,0.281774124,1.195331546,1.252435,0.12923,-1.498097,1016.546204
393036,0.115955,0.398888,-0.315099,0.417098247,0.265598351,1.207038144,1.310635,0.130082,-1.493479,1016.546204
393136,0.067894,0.508405,-0.324177,0.463505567,0.215225979,1.226395979,1.37739,0.143423,-1.491723,1016.546204
393236,0.027955,0.628028,-0.294427,0.492245876,0.142381134,1.27299134,1.47035,0.15584,-1.479461,1016.546204
393336,-0.00388,0.768703,-0.229555,0.462960412,0.065751134,1.356426082,1.573683,0.181752,-1.460488,1016.546204
393436,0.00267,0.907919,-0.130713,0.352635258,-0.027954742,1.467135773,1.690286,0.201723,-1.405728,1016.546204
393536,0.065263,0.909555,-0.003419,0.21299732,-0.070474742,1.528691134,1.779674,0.227443,-1.306112,1016.546204
393636,0.143885,0.714467,0.06787,0.075121649,-0.050555052,1.507590619,1.832455,0.232969,-1.169488,1016.546204
393736,0.165549,0.518812,0.108147,-0.019823918,-0.025725773,1.413681753,1.811725,0.23891,-1.017392,1016.546204
393836,0.106251,0.389158,0.12181,-0.107301649,-0.011622371,1.262207835,1.756719,0.241676,-0.871008,1016.546204
393936,0.003683,0.187728,0.146317,-0.241747629,-0.033397732,1.085380515,1.666528,0.251229,-0.760393,1016.546204
394036,-0.077222,-0.120471,0.190854,-0.297532062,-0.062620825,0.962851031,1.578678,0.263448,-0.695233,1016.546204
394136,-0.111482,-0.360558,0.219752,-0.272531546,-0.11523,0.898673402,1.490098,0.282624,-0.670305,1016.546204
394236,-0.1069,-0.48585,0.245968,-0.179779485,-0.187127629,0.891493299,1.420878,0.289227,-0.670547,1016.546204
394336,-0.070266,-0.46265,0.259823,-0.057261856,-0.266879794,0.937413711,1.358346,0.294787,-0.682358,1016.546204
394436,-0.013623,-0.333603,0.228824,0.027612784,-0.300614948,1.021255979,1.301659,0.283545,-0.689508,1016.546204
394536,0.040484,-0.160761,0.181615,0.080371443,-0.280865876,1.128510206,1.237268,0.261405,-0.685699,1016.546204
394636,0.096324,-0.037363,0.196741,0.112158557,-0.203563814,1.229039691,1.170633,0.228232,-0.669928,1016.546204
394736,0.127714,0.030187,0.294616,0.139536082,-0.093849794,1.301145876,1.086035,0.193777,-0.65274,1016.546204
394836,0.120008,0.035393,0.402805,0.154013093,0.026007835,1.293944536,1.009288,0.159878,-0.629001,1016.546204
394936,0.066944,-0.009917,0.412712,0.158311753,0.131413196,1.22046866,0.921741,0.137476,-0.612204,1016.546204
395036,0.000689,-0.034163,0.329374,0.174807423,0.166245979,1.130025155,0.851218,0.127429,-0.598264,1016.546204
395136,-0.05814,-0.032869,0.247935,0.174027629,0.164988557,1.036048969,0.777864,0.128254,-0.59129,1016.546204
395236,-0.113443,-0.021869,0.218145,0.156076392,0.152065876,0.931756289,0.721539,0.134507,-0.588529,1016.546204
395336,-0.16404,-0.024035,0.237304,0.134298454,0.136528041,0.820817938,0.665271,0.145863,-0.588013,1016.546204
395436,-0.218649,-0.057799,0.280088,0.12413866,0.114705258,0.707980619,0.623473,0.161024,-0.588289,1016.546204
395536,-0.258333,-0.107834,0.301483,0.126169175,0.089498247,0.62285701,0.57435,0.186106,-0.595081,1016.546204
395636,-0.27056,-0.155482,0.283675,0.141252887,0.053679794,0.577846392,0.54251,0.19812,-0.595506,1016.546204
395736,-0.261851,-0.170839,0.239955,0.166338454,0.022695567,0.550632371,0.507344,0.217549,-0.603574,1016.546204
395836,-0.241558,-0.152171,0.189033,0.183893711,5.88E-06,0.537990928,0.491037,0.234516,-0.608239,1016.546204
395936,-0.214181,-0.100133,0.128203,0.192485464,-0.006798351,0.53970268,0.474402,0.252921,-0.621849,1016.546204
396036,-0.190706,-0.043727,0.069986,0.183683711,0.003814639,0.559519897,0.47928,0.271228,-0.640451,1016.546204
396136,-0.184566,0.008746,0.034669,0.161420515,0.007420928,0.592741134,0.480267,0.301249,-0.662468,1016.546204
396236,-0.188651,0.025583,0.025091,0.135654948,0.00296134,0.634211134,0.4984,0.329562,-0.696078,1016.546204
396336,-0.195819,-0.00038,0.026916,0.116950309,-0.008185773,0.688485979,0.512651,0.363162,-0.734432,1016.546204
396436,-0.200693,-0.065061,0.023212,0.106404124,-0.018311753,0.749242165,0.524341,0.394142,-0.769415,1016.546204
396536,-0.201121,-0.148737,0.007041,0.111890928,-0.023259794,0.813270928,0.523704,0.428123,-0.810773,1016.546204
396636,-0.194462,-0.224212,-0.00953,0.124696804,-0.026363196,0.871904948,0.520353,0.451152,-0.841669,1016.546204
396736,-0.184782,-0.291012,-0.022038,0.144377835,-0.030824124,0.923479485,0.501044,0.479343,-0.870817,1016.546204
396836,-0.175182,-0.35178,-0.036434,0.165020103,-0.043074948,0.963037629,0.476099,0.493334,-0.893681,1016.546204
396936,-0.161049,-0.396528,-0.05783,0.201677526,-0.060340619,0.976093402,0.44598,0.502936,-0.906753,1016.546204
397036,-0.145789,-0.416089,-0.078375,0.245995464,-0.074873814,0.971353402,0.421338,0.505999,-0.920654,1016.546204
397136,-0.125237,-0.409274,-0.092253,0.287145567,-0.089531134,0.968459485,0.393719,0.510129,-0.935004,1016.546204
397236,-0.103775,-0.373943,-0.091991,0.320135567,-0.094419072,0.96064732,0.383528,0.510495,-0.949528,1016.546204
397336,-0.088542,-0.320635,-0.077039,0.336981856,-0.090664536,0.957171546,0.369423,0.514581,-0.967372,1016.546204
397436,-0.087072,-0.239945,-0.046222,0.349946082,-0.082564124,0.962807629,0.372867,0.520173,-0.991133,1016.547974
397536,-0.103405,-0.140373,-0.008498,0.353306289,-0.064593299,0.985452062,0.37185,0.52292,-1.016548,1016.547974
397636,-0.130743,-0.041166,0.029116,0.349220619,-0.056702268,1.022399588,0.384766,0.527888,-1.040831,1016.547974
397736,-0.157296,0.042493,0.051246,0.344490412,-0.05415,1.076853196,0.391775,0.530653,-1.069242,1016.547974
397836,-0.18033,0.126272,0.059021,0.339563093,-0.04545268,1.119530928,0.407984,0.531098,-1.083731,1016.547974
397936,-0.20298,0.195703,0.055268,0.315683402,-0.034055567,1.138498557,0.415305,0.527917,-1.102925,1016.547974
398036,-0.225108,0.212486,0.043842,0.269633711,-0.006075567,1.129769175,0.437337,0.518938,-1.110373,1016.547974
398136,-0.251305,0.186184,0.035999,0.231090103,0.01219268,1.103454021,0.443437,0.514696,-1.117596,1016.547974
398236,-0.274748,0.171737,0.068408,0.221374433,0.001822784,1.093326598,0.464995,0.503805,-1.126645,1016.547974
398336,-0.286935,0.234584,0.16146,0.232923402,-0.032750515,1.118689691,0.477075,0.496005,-1.134545,1016.547974
398436,-0.283659,0.351345,0.318455,0.242154021,-0.076543093,1.171637835,0.50209,0.478533,-1.142924,1016.547974
398536,-0.261793,0.452694,0.463976,0.281583299,-0.089379794,1.251597938,0.528594,0.463504,-1.150675,1016.547974
398636,-0.226755,0.585944,0.440272,0.405010722,-0.055981753,1.354621443,0.569293,0.43768,-1.146435,1016.547974
398736,-0.186664,0.74929,0.266975,0.543013196,0.00380701,1.499796907,0.610813,0.406922,-1.133426,1016.547974
398836,-0.107849,0.810721,0.060573,0.509257732,0.114557835,1.678799485,0.664846,0.364412,-1.098456,1016.547974
398936,0.000441,0.619351,-0.182126,0.330203918,0.271808866,1.794375979,0.696039,0.323143,-1.0404,1016.547974
399036,0.045135,0.298112,-0.320084,0.107837526,0.351044639,1.753827113,0.703216,0.270265,-0.951397,1016.547974
399136,0.011394,0.097475,-0.247609,-0.122960515,0.354962577,1.562409175,0.665907,0.220671,-0.853759,1016.547974
399236,-0.05151,0.033451,-0.046108,-0.238266082,0.327658969,1.327422268,0.615361,0.176304,-0.766892,1016.547974
399336,-0.115341,-0.063928,0.090118,-0.223920412,0.312308763,1.120918144,0.545309,0.148212,-0.700261,1016.547974
399436,-0.155541,-0.201865,0.090134,-0.16956701,0.271479175,0.982860722,0.496566,0.125259,-0.653887,1016.547974
399536,-0.154317,-0.360566,0.022978,-0.127531649,0.216998041,0.882935361,0.454749,0.11477,-0.629917,1016.547974
399636,-0.132442,-0.517903,-0.051287,-0.069057526,0.195795876,0.825619072,0.43592,0.105107,-0.609888,1016.547974
399736,-0.089293,-0.594711,-0.175985,0.029667526,0.222999588,0.821511134,0.416373,0.099646,-0.604176,1016.547974
399836,-0.013829,-0.544923,-0.311902,0.134747423,0.290191237,0.848466186,0.411273,0.095948,-0.598358,1016.547974
399936,0.059789,-0.395981,-0.380293,0.166015155,0.358361959,0.891272371,0.402273,0.097489,-0.596285,1016.547974
400036,0.1088,-0.236156,-0.419655,0.091656186,0.339690928,0.934917113,0.398098,0.100534,-0.585612,1016.547974
400136,0.135461,-0.117819,-0.53729,0.032622887,0.301523608,0.964215155,0.379597,0.108083,-0.580739,1016.547974
400236,0.121292,-0.053613,-0.626924,0.018275361,0.243384948,1.003511443,0.362026,0.119908,-0.571638,1016.547974
400336,0.095519,-0.067085,-0.58706,0.029577113,0.147491443,1.033003814,0.333684,0.138343,-0.571732,1016.547974
400436,0.066293,-0.134264,-0.432741,0.051530206,0.042291649,1.029035258,0.310767,0.152585,-0.569528,1016.547974
400536,0.055164,-0.191193,-0.270385,0.046203196,-0.039772268,0.993367423,0.285936,0.169044,-0.571222,1016.547974
400636,0.072927,-0.249304,-0.173467,0.029010722,-0.071333299,0.937066289,0.269519,0.175805,-0.571397,1016.547974
400736,0.092395,-0.30314,-0.130081,0.03557134,-0.070815979,0.862660412,0.249141,0.185668,-0.57242,1016.547974
400836,0.120665,-0.340652,-0.10423,0.05977299,-0.052885567,0.797523402,0.245144,0.189669,-0.571218,1016.547974
400936,0.156537,-0.356996,-0.079368,0.088572371,-0.029273918,0.744587423,0.227808,0.187719,-0.576848,1016.547974
401036,0.186989,-0.349764,-0.032304,0.108753093,0.009636082,0.705684742,0.227755,0.184111,-0.574527,1016.547974
401136,0.209214,-0.334686,-0.007117,0.118519897,0.053908041,0.672538454,0.217752,0.177222,-0.573387,1016.547974
401236,0.22206,-0.310528,-0.013242,0.130182371,0.089718144,0.662386186,0.225624,0.168907,-0.569293,1016.547974
401336,0.230863,-0.283968,-0.037434,0.137124433,0.121824536,0.658206804,0.225694,0.166609,-0.573418,1016.547974
401436,0.231434,-0.280625,-0.065717,0.127520619,0.140594021,0.660940103,0.242712,0.160104,-0.578741,1016.547974
401536,0.221032,-0.289266,-0.077689,0.11927299,0.142205773,0.674678454,0.258959,0.160645,-0.595229,1016.547974
401636,0.210662,-0.299107,-0.070318,0.109340206,0.127894021,0.698855155,0.286228,0.160186,-0.615264,1016.547974
401736,0.205483,-0.31375,-0.055878,0.102433299,0.113887629,0.731933814,0.307687,0.17017,-0.642789,1016.547974
401836,0.19472,-0.314358,-0.042693,0.099571959,0.111686289,0.778392784,0.337709,0.1763,-0.676013,1016.547974
401936,0.178805,-0.297599,-0.033334,0.103223814,0.115783608,0.828231753,0.354797,0.187641,-0.709486,1016.547974
402036,0.165124,-0.280915,-0.022117,0.116437629,0.122604845,0.873254948,0.372266,0.195198,-0.73714,1016.547974
402136,0.153553,-0.274141,-0.019133,0.13227701,0.135582887,0.914209794,0.37277,0.202453,-0.763325,1016.547974
402236,0.143961,-0.272917,-0.008915,0.154446392,0.154556701,0.947553711,0.3746,0.208753,-0.780538,1016.547974
402336,0.130056,-0.268338,0.010586,0.180111649,0.171024433,0.956688041,0.364943,0.208211,-0.797111,1016.549683
402436,0.108398,-0.254405,0.036089,0.205239691,0.180800309,0.941166701,0.359598,0.211126,-0.803983,1016.549683
402536,0.086235,-0.228366,0.062179,0.220161443,0.169735258,0.910003608,0.347301,0.210737,-0.812534,1016.549683
402636,0.07283,-0.190599,0.081616,0.23678701,0.143785876,0.879409072,0.34495,0.210639,-0.820058,1016.549683
402736,0.066622,-0.137091,0.093629,0.249212371,0.114791546,0.851588041,0.337718,0.215346,-0.832352,1016.549683
402836,0.069958,-0.07784,0.095225,0.253046804,0.088112474,0.839658454,0.345884,0.216223,-0.84282,1016.549683
402936,0.078062,-0.015352,0.093929,0.257526495,0.064452371,0.853029897,0.34772,0.220554,-0.860634,1016.549683
403036,0.104254,0.037112,0.10102,0.262644124,0.061270619,0.890734227,0.364103,0.219465,-0.884722,1016.549683
403136,0.135539,0.082502,0.111197,0.262394845,0.082426495,0.934962887,0.3781,0.219675,-0.914257,1016.549683
403236,0.158139,0.115002,0.11807,0.241403402,0.118671856,0.972332165,0.399957,0.215509,-0.938495,1016.549683
403336,0.174177,0.140631,0.092339,0.223292784,0.153537732,1.01296701,0.418428,0.215625,-0.967529,1016.549683
403436,0.188487,0.185622,0.046011,0.20990866,0.183354639,1.058096186,0.440728,0.211805,-0.988742,1016.549683
403536,0.199184,0.224388,-0.017555,0.197362577,0.20385567,1.099008144,0.454563,0.209613,-1.009883,1016.549683
403636,0.204053,0.234866,-0.091749,0.190119072,0.223433196,1.13515567,0.476644,0.20225,-1.019753,1016.549683
403736,0.204296,0.208812,-0.149668,0.201745464,0.239718247,1.175704536,0.486335,0.199214,-1.032423,1016.549683
403836,0.195473,0.177929,-0.194264,0.236799588,0.259476804,1.216077732,0.513359,0.196633,-1.039539,1016.549683
403936,0.167473,0.192987,-0.224754,0.293780412,0.273506186,1.252881134,0.529515,0.202889,-1.050225,1016.549683
404036,0.128958,0.276242,-0.241967,0.375694021,0.243713402,1.277956907,0.564585,0.206827,-1.060507,1016.549683
404136,0.104976,0.407893,-0.228481,0.445241443,0.187294536,1.312415155,0.602803,0.221044,-1.077777,1016.549683
404236,0.098012,0.592321,-0.173619,0.509569175,0.117255567,1.38399567,0.670408,0.229338,-1.095817,1016.549683
404336,0.110215,0.855674,-0.051552,0.517078041,0.018660206,1.513280928,0.743904,0.245742,-1.107925,1016.549683
404436,0.144792,1.165523,0.144816,0.400208557,-0.06225701,1.675050825,0.841797,0.252004,-1.093968,1016.549683
404536,0.19183,1.253935,0.35651,0.214814742,-0.037752062,1.711918557,0.928653,0.251982,-1.049781,1016.549683
404636,0.224993,1.00149,0.431271,-0.049040928,0.029989175,1.534580722,0.997355,0.243929,-0.967943,1016.549683
404736,0.168772,0.705647,0.346118,-0.206340825,0.071873299,1.302940928,1.018063,0.232215,-0.877327,1016.549683
404836,0.042413,0.521314,0.191541,-0.252577526,0.033689588,1.160036392,1.014858,0.223845,-0.786067,1016.549683
404936,-0.060723,0.285496,0.175787,-0.27991567,0.004223608,1.069552268,0.984173,0.219968,-0.716654,1016.549683
405036,-0.124441,0.0393,0.156229,-0.264256598,-0.023773402,0.975243711,0.9534,0.217656,-0.669207,1016.549683
405136,-0.124522,-0.159303,0.133223,-0.181429897,-0.111465361,0.892752577,0.915061,0.218,-0.643178,1016.549683
405236,-0.0703,-0.263992,0.11501,-0.056400309,-0.211756186,0.853615052,0.895315,0.215995,-0.626267,1016.549683
405336,0.010254,-0.26656,0.1342,0.04742567,-0.301457423,0.878385155,0.877291,0.206621,-0.622757,1016.549683
405436,0.108801,-0.187996,0.165244,0.101213299,-0.304004742,0.967966907,0.87156,0.18473,-0.612355,1016.549683
405536,0.168778,-0.053263,0.185244,0.09868134,-0.223462268,1.065959381,0.8569,0.15812,-0.60471,1016.549683
405636,0.182275,0.06498,0.21098,0.069437526,-0.143328557,1.134647423,0.84546,0.121835,-0.584026,1016.549683
405736,0.15437,0.127211,0.252311,0.052103711,-0.059014124,1.170950619,0.81118,0.086108,-0.567347,1016.549683
405836,0.089353,0.134366,0.299522,0.077971546,0.042087526,1.185620619,0.769677,0.050837,-0.537125,1016.549683
405936,0.013675,0.082299,0.306554,0.093361856,0.144851546,1.172791856,0.712479,0.022897,-0.519073,1016.549683
406036,-0.047462,-9.40E-05,0.248849,0.093604536,0.189428866,1.118143196,0.654767,0.006827,-0.498412,1016.549683
406136,-0.090866,-0.053317,0.166287,0.106650928,0.187094433,1.048086392,0.589302,0.003347,-0.48764,1016.549683
406236,-0.128521,-0.076138,0.124077,0.126248763,0.163087835,0.961716289,0.54034,0.00573,-0.479557,1016.549683
406336,-0.154296,-0.10231,0.126406,0.136306804,0.128411237,0.866219072,0.488088,0.014129,-0.481191,1016.549683
406436,-0.171811,-0.1493,0.130289,0.14412701,0.087872887,0.784160206,0.450807,0.03228,-0.482812,1016.549683
406536,-0.193967,-0.189427,0.109755,0.16034732,0.046751237,0.700803711,0.411617,0.05068,-0.488933,1016.549683
406636,-0.218896,-0.192155,0.098004,0.173953093,0.009840928,0.629507423,0.38682,0.065242,-0.492727,1016.549683
406736,-0.221018,-0.160847,0.105502,0.174379381,-0.027029691,0.594031031,0.359149,0.08759,-0.50164,1016.549683
406836,-0.201386,-0.117191,0.121966,0.15980567,-0.041167216,0.578091753,0.351402,0.103667,-0.511351,1016.549683
406936,-0.17822,-0.080905,0.101459,0.152532887,-0.029247938,0.586355155,0.347209,0.121353,-0.524483,1016.549683
407036,-0.172852,-0.05415,0.063235,0.159348969,0.002586186,0.610532887,0.358085,0.140609,-0.544032,1016.549683
407136,-0.183506,-0.066154,0.035436,0.156636701,0.025504433,0.640599381,0.366673,0.159936,-0.574602,1016.551392
407236,-0.204595,-0.128673,0.024858,0.15200433,0.032742577,0.678308041,0.389232,0.187037,-0.605262,1016.551392
407336,-0.222531,-0.207478,0.026409,0.149319278,0.030900928,0.741003093,0.40348,0.213686,-0.644472,1016.551392
407436,-0.23835,-0.250298,0.037997,0.146872887,0.016021443,0.805744021,0.419645,0.239612,-0.679708,1016.551392
407536,-0.246649,-0.26826,0.057416,0.142974021,-0.00981134,0.866637938,0.420392,0.269319,-0.715771,1016.551392
407636,-0.250109,-0.261498,0.068017,0.143045258,-0.029228763,0.910111443,0.420823,0.287295,-0.736398,1016.551392
407736,-0.242201,-0.252949,0.071177,0.149216598,-0.045553918,0.926782784,0.402822,0.305064,-0.757057,1016.551392
407836,-0.228402,-0.272049,0.071457,0.157884021,-0.055929381,0.927209072,0.39208,0.312245,-0.767726,1016.551392
407936,-0.211116,-0.315023,0.053765,0.163297423,-0.063396907,0.920316082,0.37094,0.318764,-0.781948,1016.551392
408036,-0.184336,-0.372013,0.007701,0.176525464,-0.068277423,0.906942474,0.361662,0.324852,-0.791168,1016.551392
408136,-0.154924,-0.397886,-0.04754,0.211191856,-0.068837629,0.900293711,0.340418,0.329611,-0.799968,1016.551392
408236,-0.131097,-0.37164,-0.093262,0.250259897,-0.063891031,0.91261701,0.335109,0.326668,-0.809644,1016.551392
408336,-0.110271,-0.300618,-0.12334,0.27967701,-0.048866289,0.936542887,0.328373,0.329872,-0.822014,1016.551392
408436,-0.111227,-0.214923,-0.10918,0.287821031,-0.019082577,0.968729175,0.333054,0.326345,-0.833211,1016.551392
408536,-0.126468,-0.142938,-0.066117,0.281474948,-0.012464124,1.007492474,0.328333,0.327098,-0.847207,1016.551392
408636,-0.150647,-0.088816,-0.015893,0.277940103,-0.007398454,1.04496701,0.340527,0.325542,-0.8603,1016.551392
408736,-0.177719,-0.047404,0.004818,0.285941546,-0.001968969,1.077813093,0.343761,0.317699,-0.874726,1016.553101
408836,-0.1998,-0.019148,-0.001759,0.283822165,-0.004681443,1.100780412,0.360867,0.313902,-0.88442,1016.553101
408936,-0.220127,-0.012347,-0.017357,0.263464742,-0.010397835,1.10988732,0.369565,0.307418,-0.897768,1016.553101
409036,-0.225883,-0.00762,-0.009666,0.248252887,-0.022901443,1.112106495,0.389119,0.300496,-0.905615,1016.553101
409136,-0.228046,0.048116,0.063444,0.240066598,-0.04468567,1.099465258,0.402204,0.286749,-0.914818,1016.553101
409236,-0.233733,0.165931,0.189789,0.208255361,-0.072482268,1.088091031,0.427178,0.272645,-0.92052,1016.553101
409336,-0.22791,0.288955,0.337564,0.176546495,-0.119770103,1.112193608,0.446621,0.255517,-0.923877,1016.553101
409436,-0.186555,0.402532,0.466409,0.228887835,-0.131350412,1.207285567,0.473851,0.223903,-0.919446,1016.553101
409536,-0.140268,0.54895,0.436131,0.35914433,-0.077444742,1.335248454,0.498029,0.193165,-0.911466,1016.553101
409636,-0.121525,0.613723,0.26867,0.471618866,-0.007510412,1.416819485,0.537823,0.15241,-0.887445,1016.553101
409736,-0.094675,0.587418,0.100628,0.540834536,0.08264433,1.481359485,0.575038,0.10849,-0.859079,1016.553101
409836,-0.046269,0.641966,-0.005651,0.521641134,0.205636701,1.557744227,0.621476,0.06429,-0.81769,1016.553101
409936,-0.013674,0.718122,-0.08228,0.367713711,0.355002268,1.577654124,0.659099,0.007425,-0.75942,1016.553101
410036,-0.012451,0.617359,-0.137175,0.169001649,0.362975567,1.506878969,0.686983,-0.047023,-0.686007,1016.553101
410136,0.009736,0.455956,-0.157352,0.025606186,0.296331237,1.397181959,0.682424,-0.096168,-0.608351,1016.553101
410236,-0.001264,0.397793,-0.100565,-0.085158969,0.182342268,1.250700412,0.66537,-0.142744,-0.528072,1016.553101
410336,-0.034491,0.340548,0.040145,-0.14347299,0.106081134,1.096203918,0.619602,-0.183446,-0.456545,1016.553101
410436,-0.045784,0.156225,0.133866,-0.167358763,0.087194639,0.962161443,0.581432,-0.220466,-0.391336,1016.553101
410536,-0.030418,-0.081847,0.148896,-0.135205361,0.103949588,0.876672165,0.540162,-0.248496,-0.345713,1016.553101
410636,-0.008713,-0.25673,0.099177,-0.084988866,0.133381237,0.807696082,0.517498,-0.277357,-0.309632,1016.553101
410736,0.024484,-0.373883,0.017128,-0.035853505,0.194910515,0.766642784,0.507137,-0.298565,-0.291184,1016.553101
410836,0.049242,-0.444691,-0.099722,0.015479278,0.308413608,0.769917113,0.523842,-0.313812,-0.28092,1016.553101
410936,0.051289,-0.426256,-0.212343,0.059706495,0.439852268,0.822605979,0.541745,-0.320124,-0.28022,1016.553101
411036,0.031279,-0.349075,-0.291177,0.077315876,0.535072474,0.915155155,0.571688,-0.315495,-0.282455,1016.553101
