PacketCounter,SampleTimeFine,Acc_X,Acc_Y,Acc_Z,Gyr_X,Gyr_Y,Gyr_Z,Mag_X,Mag_Y,Mag_Z,Roll,Pitch,Yaw
00959,213949,9.503718,-0.652590,2.483729,0.006079,0.046811,-0.010530,-0.442353,0.124613,-0.415973,-19.068245,-75.615603,18.511799
00960,214049,9.554133,-0.575964,2.366179,0.010773,0.061362,-0.008845,-0.443379,0.124058,-0.414499,-18.985660,-75.594953,18.430984
00961,214149,9.493798,-0.582113,2.395855,0.006024,0.060869,-0.008734,-0.444835,0.124676,-0.416473,-18.907873,-75.573710,18.352796
00962,214249,9.454327,-0.667447,2.470776,-0.012216,0.038998,-0.011889,-0.443860,0.123118,-0.415550,-18.848908,-75.564082,18.283812
00963,214349,9.495812,-0.804423,2.531764,-0.027020,0.021313,-0.013629,-0.443327,0.121711,-0.417625,-18.806189,-75.562506,18.224550
00964,214449,9.530745,-0.943203,2.520545,-0.025506,0.032336,-0.011341,-0.442377,0.122073,-0.415100,-18.763556,-75.553806,18.164711
00965,214549,9.457506,-0.987927,2.429042,-0.008217,0.046935,-0.017775,-0.443829,0.124685,-0.416973,-18.691982,-75.536987,18.084537
00966,214649,9.338557,-0.952698,2.371150,0.001022,0.051457,-0.017704,-0.443835,0.121695,-0.417125,-18.610261,-75.516893,18.000530
00967,214749,9.325539,-0.837496,2.489394,0.011990,0.042777,-0.012847,-0.447345,0.118713,-0.416279,-18.538172,-75.500698,17.933181
00968,214849,9.364847,-0.678860,2.559085,0.029440,0.025647,-0.009926,-0.442856,0.122129,-0.416100,-18.479876,-75.491266,17.889136
00969,214949,9.483259,-0.573005,2.563666,0.039871,0.006351,-0.007159,-0.444834,0.119718,-0.417227,-18.434055,-75.491531,17.864803
00970,215049,9.577155,-0.585150,2.574783,0.044602,-0.009460,-0.009318,-0.443855,0.120651,-0.416177,-18.393732,-75.500328,17.848443
00971,215149,9.642048,-0.655216,2.618774,0.046839,-0.007725,-0.016710,-0.446385,0.119597,-0.414229,-18.335475,-75.509610,17.814753
00972,215249,9.606401,-0.862366,2.696388,0.043566,0.009347,-0.027239,-0.445889,0.118593,-0.414279,-18.245115,-75.511170,17.746114
00973,215349,9.494105,-1.005274,2.684508,0.035178,0.038301,-0.035140,-0.446375,0.119621,-0.414729,-18.123449,-75.498185,17.640134
00974,215449,9.385242,-0.965894,2.660253,0.027509,0.057665,-0.033092,-0.445914,0.120015,-0.412704,-17.997669,-75.474191,17.525300
00975,215549,9.338508,-0.800970,2.601587,0.022130,0.069829,-0.029515,-0.447375,0.117645,-0.414830,-17.874234,-75.442813,17.409855
00976,215649,9.332770,-0.631974,2.549024,0.015695,0.070106,-0.026039,-0.445881,0.117621,-0.414830,-17.762215,-75.410557,17.302359
00977,215749,9.405928,-0.485671,2.472994,0.009825,0.062040,-0.020849,-0.445870,0.118641,-0.415279,-17.670342,-75.381741,17.212173
00978,215849,9.435903,-0.449139,2.462424,0.000284,0.051936,-0.016220,-0.445409,0.118537,-0.413280,-17.600607,-75.357633,17.139179
00979,215949,9.470669,-0.536428,2.486340,-0.014960,0.046989,-0.016925,-0.445414,0.115548,-0.413432,-17.541390,-75.336330,17.068049
00980,216049,9.456844,-0.729495,2.645370,-0.016274,0.045300,-0.022197,-0.447385,0.117122,-0.414356,-17.473362,-75.316827,16.987016
00981,216149,9.455198,-0.950786,2.778385,-0.003942,0.044977,-0.026071,-0.446898,0.116094,-0.413907,-17.390608,-75.298116,16.898061
00982,216249,9.399958,-1.121386,2.841527,0.009453,0.049363,-0.027530,-0.446897,0.117090,-0.413856,-17.294654,-75.277192,16.803388
00983,216349,9.326161,-1.124247,2.762312,0.026680,0.050985,-0.023501,-0.446383,0.115137,-0.414957,-17.196432,-75.254630,16.716585
00984,216449,9.214185,-0.965699,2.641529,0.041397,0.045606,-0.019397,-0.447898,0.114117,-0.414009,-17.102098,-75.234289,16.642507
00985,216549,9.173964,-0.784924,2.550998,0.045573,0.031638,-0.015860,-0.448930,0.115032,-0.411959,-17.021907,-75.220974,16.585514
00986,216649,9.168710,-0.659086,2.518378,0.049315,0.012140,-0.016059,-0.447433,0.116005,-0.411908,-16.951622,-75.218333,16.540989
00987,216749,9.254762,-0.603497,2.569600,0.053042,-0.009997,-0.021460,-0.445424,0.115025,-0.412958,-16.881895,-75.228701,16.499257
00988,216849,9.348049,-0.631191,2.636765,0.054398,-0.021951,-0.024030,-0.446428,0.116013,-0.412407,-16.813500,-75.246045,16.459697
00989,216949,9.398347,-0.706962,2.648566,0.052041,-0.028821,-0.028522,-0.446444,0.112502,-0.412085,-16.741188,-75.267886,16.414698
00990,217049,9.381153,-0.762593,2.627358,0.049384,-0.028102,-0.030273,-0.446423,0.113546,-0.413034,-16.666183,-75.289590,16.365343
00991,217149,9.339271,-0.786777,2.576255,0.044748,-0.034050,-0.025779,-0.448456,0.111987,-0.411112,-16.606782,-75.313820,16.329374
00992,217249,9.343230,-0.735504,2.541376,0.041319,-0.044973,-0.019363,-0.446006,0.109858,-0.409213,-16.569480,-75.342978,16.314223
00993,217349,9.350692,-0.650628,2.494676,0.038563,-0.059791,-0.019386,-0.444977,0.107448,-0.411339,-16.542843,-75.380265,16.308473
00994,217449,9.335961,-0.584433,2.471689,0.038823,-0.073867,-0.020531,-0.444494,0.108886,-0.410263,-16.522427,-75.425475,16.309292
00995,217549,9.318589,-0.483943,2.499710,0.040345,-0.089379,-0.022407,-0.449942,0.111038,-0.411663,-16.506823,-75.479522,16.315977
00996,217649,9.313427,-0.408794,2.509017,0.040698,-0.104822,-0.022649,-0.446500,0.111859,-0.409112,-16.500154,-75.542084,16.332090
00997,217749,9.353621,-0.370887,2.517265,0.037093,-0.114152,-0.021683,-0.442535,0.111249,-0.408137,-16.503483,-75.609607,16.356385
00998,217849,9.391327,-0.398709,2.555458,0.028688,-0.124280,-0.015896,-0.445507,0.110348,-0.409188,-16.530596,-75.681761,16.400245
00999,217949,9.453645,-0.418097,2.571416,0.023132,-0.130669,-0.011735,-0.443507,0.114303,-0.408984,-16.574401,-75.756720,16.458020
01000,218049,9.488114,-0.432191,2.502195,0.014629,-0.132640,-0.006742,-0.443031,0.112254,-0.408086,-16.635614,-75.831941,16.528702
01001,218149,9.508550,-0.462687,2.433083,-0.000004,-0.130956,-0.008529,-0.445472,0.113909,-0.410510,-16.700915,-75.906511,16.594929
01002,218249,9.489133,-0.492989,2.364989,-0.021735,-0.117313,-0.007717,-0.447985,0.117363,-0.408833,-16.772213,-75.973462,16.654457
01003,218349,9.453866,-0.485923,2.257784,-0.035184,-0.106975,-0.013914,-0.449986,0.117869,-0.408309,-16.831209,-76.035763,16.693347
01004,218449,9.448659,-0.541691,2.245124,-0.049668,-0.106767,-0.018797,-0.451996,0.118351,-0.407284,-16.887972,-76.098765,16.721370
01005,218549,9.459097,-0.585431,2.243531,-0.052091,-0.111203,-0.025345,-0.454991,0.120367,-0.406684,-16.934980,-76.165291,16.737901
01006,218649,9.438633,-0.681208,2.285099,-0.046746,-0.118888,-0.032334,-0.455982,0.117916,-0.407310,-16.968704,-76.237185,16.743917
01007,218749,9.426343,-0.794726,2.392799,-0.028303,-0.131029,-0.035032,-0.456945,0.120993,-0.408658,-16.994483,-76.316157,16.752631
01008,218849,9.474642,-0.916188,2.431098,-0.004967,-0.147298,-0.035279,-0.459966,0.123934,-0.406507,-17.017898,-76.404100,16.772650
01009,218949,9.537516,-0.960433,2.523234,0.020115,-0.156352,-0.034808,-0.460946,0.122503,-0.407583,-17.034500,-76.496896,16.800459
01010,219049,9.580444,-1.013895,2.528833,0.037727,-0.143905,-0.038768,-0.459429,0.124520,-0.408481,-17.023576,-76.583501,16.810339
01011,219149,9.554588,-1.003409,2.487115,0.037831,-0.115081,-0.039658,-0.458899,0.121619,-0.410632,-16.990091,-76.654452,16.797101
01012,219249,9.484459,-0.872048,2.386338,0.028429,-0.095886,-0.030115,-0.458934,0.123018,-0.408557,-16.970486,-76.713297,16.792577
01013,219349,9.429920,-0.651151,2.236777,0.016967,-0.097274,-0.018851,-0.458445,0.127944,-0.407303,-16.984769,-76.771012,16.816112
01014,219449,9.409695,-0.491495,2.223756,-0.000466,-0.126877,-0.009203,-0.460370,0.129639,-0.410726,-17.052927,-76.843315,16.884733
01015,219549,9.530555,-0.442069,2.227277,-0.008823,-0.154704,-0.005579,-0.457883,0.133063,-0.410048,-17.155428,-76.930217,16.983666
01016,219649,9.645731,-0.427046,2.306992,0.008959,-0.156513,-0.007076,-0.454863,0.134582,-0.411470,-17.246720,-77.018310,17.081524
01017,219749,9.611363,-0.538807,2.351780,0.026450,-0.157005,-0.014872,-0.454853,0.135105,-0.411945,-17.310906,-77.107983,17.161807
01018,219849,9.588855,-0.671669,2.297414,0.036903,-0.139467,-0.027653,-0.456342,0.138118,-0.411793,-17.326241,-77.190243,17.198083
01019,219949,9.507754,-0.834997,2.325543,0.025263,-0.104245,-0.031013,-0.453312,0.140658,-0.413664,-17.313909,-77.253776,17.199158
01020,220049,9.363822,-0.935412,2.312870,-0.007647,-0.084389,-0.026331,-0.456277,0.143743,-0.414512,-17.316813,-77.305668,17.196513
01021,220149,9.336044,-0.806308,2.200170,-0.031554,-0.085739,-0.010134,-0.454831,0.147560,-0.411309,-17.374021,-77.355533,17.235479
01022,220249,9.375496,-0.527969,2.114994,-0.031417,-0.092946,0.008869,-0.455290,0.149159,-0.413233,-17.483453,-77.406062,17.328045
01023,220349,9.449865,-0.288859,2.031436,-0.032752,-0.096969,0.017367,-0.456695,0.151891,-0.417604,-17.618365,-77.457285,17.445908
01024,220449,9.542836,-0.236010,1.984180,-0.037462,-0.107235,0.017929,-0.458265,0.151224,-0.413632,-17.766389,-77.513976,17.574392
01025,220549,9.644115,-0.321306,2.064347,-0.038996,-0.121470,0.010196,-0.458172,0.156921,-0.417850,-17.908746,-77.579717,17.696140
01026,220649,9.711141,-0.466183,2.219731,-0.029739,-0.133972,0.004796,-0.459144,0.159974,-0.418698,-18.043820,-77.653164,17.815820
01027,220749,9.702103,-0.687020,2.231518,-0.019956,-0.140203,-0.008191,-0.458668,0.162884,-0.417046,-18.147411,-77.732260,17.908978
01028,220849,9.617240,-0.957910,2.247142,-0.010481,-0.128149,-0.016252,-0.456634,0.165439,-0.418918,-18.216604,-77.806192,17.972473
01029,220949,9.539739,-1.112656,2.221444,-0.008734,-0.117515,-0.015199,-0.456566,0.167601,-0.422315,-18.279496,-77.874121,18.030539
01030,221049,9.521445,-0.969286,2.165137,-0.002853,-0.107301,-0.004010,-0.458083,0.170542,-0.420663,-18.359628,-77.934454,18.109674
01031,221149,9.534906,-0.743298,2.129582,0.001608,-0.106082,0.009566,-0.456536,0.173628,-0.423009,-18.471676,-77.991635,18.224040
01032,221249,9.556400,-0.552353,2.063428,0.000338,-0.106079,0.017337,-0.458984,0.177251,-0.424832,-18.605443,-78.047347,18.359837
01033,221349,9.591612,-0.455565,2.050575,-0.009645,-0.106629,0.021681,-0.455513,0.178144,-0.423780,-18.757819,-78.102493,18.508775
01034,221449,9.631996,-0.476703,2.076519,-0.015257,-0.100492,0.023878,-0.454468,0.184702,-0.425449,-18.915016,-78.153823,18.659319
01035,221549,9.620880,-0.564249,2.089192,-0.024099,-0.096080,0.020820,-0.454485,0.185650,-0.424398,-19.066720,-78.203247,18.799043
01036,221649,9.625294,-0.632085,2.087622,-0.023765,-0.088881,0.017910,-0.448447,0.188689,-0.427243,-19.205354,-78.249245,18.925586
01037,221749,9.579501,-0.688695,2.073445,-0.024801,-0.081307,0.017383,-0.447421,0.195199,-0.427912,-19.337326,-78.291182,19.044698
01038,221849,9.521217,-0.636937,2.063181,-0.027538,-0.071996,0.019849,-0.444402,0.196220,-0.429359,-19.469606,-78.327558,19.162505
01039,221949,9.531673,-0.436968,2.027547,-0.034415,-0.062606,0.027830,-0.442881,0.200728,-0.430130,-19.618704,-78.357276,19.293440
01040,222049,9.587359,-0.284242,1.896713,-0.047699,-0.057567,0.032947,-0.439889,0.202674,-0.430027,-19.784718,-78.383224,19.433852
01041,222149,9.613276,-0.218992,1.842944,-0.068034,-0.061610,0.034665,-0.439852,0.207728,-0.431273,-19.971341,-78.410942,19.583383
01042,222249,9.665018,-0.275666,1.861415,-0.089871,-0.065586,0.037207,-0.436845,0.212687,-0.431518,-20.181724,-78.440206,19.744369
01043,222349,9.670644,-0.412701,1.913537,-0.100029,-0.075474,0.030201,-0.432349,0.214633,-0.431915,-20.390032,-78.476063,19.897271
01044,222449,9.702178,-0.593071,1.982873,-0.092754,-0.092665,0.022150,-0.429322,0.220637,-0.433108,-20.591047,-78.522652,20.046959
01045,222549,9.693656,-0.811523,2.055296,-0.076805,-0.105446,0.017009,-0.428378,0.217511,-0.430761,-20.783584,-78.577022,20.197294
01046,222649,9.611420,-0.932425,2.080146,-0.068237,-0.098865,0.012860,-0.425364,0.226456,-0.430803,-20.955156,-78.628608,20.331228
01047,222749,9.503986,-0.965529,2.069540,-0.067985,-0.084278,0.012623,-0.419387,0.225863,-0.430826,-21.112388,-78.672354,20.450668
01048,222849,9.458093,-0.850999,1.982455,-0.080815,-0.061468,0.020478,-0.414920,0.227238,-0.429749,-21.275384,-78.702213,20.568477
01049,222949,9.454752,-0.596577,1.874471,-0.087496,-0.049830,0.030559,-0.412928,0.232165,-0.428995,-21.457693,-78.723689,20.702063
01050,223049,9.516189,-0.392938,1.774600,-0.093436,-0.051718,0.043953,-0.408022,0.231395,-0.425020,-21.681791,-78.743266,20.874772
01051,223149,9.587789,-0.297251,1.774790,-0.097258,-0.064353,0.048058,-0.402062,0.232248,-0.423968,-21.933253,-78.768561,21.073122
01052,223249,9.689524,-0.365859,1.861350,-0.099393,-0.074062,0.043737,-0.398587,0.235632,-0.422789,-22.185883,-78.799778,21.271386
01053,223349,9.824132,-0.478503,1.969458,-0.096530,-0.077812,0.037224,-0.389185,0.237306,-0.419186,-22.424729,-78.834235,21.457242
01054,223449,9.866425,-0.643901,2.027461,-0.090567,-0.078863,0.027605,-0.387751,0.234647,-0.416314,-22.636757,-78.871214,21.619220
01055,223549,9.789384,-0.805994,1.994020,-0.090910,-0.068397,0.017054,-0.383339,0.235878,-0.412238,-22.809970,-78.904885,21.741421
01056,223649,9.682229,-0.911267,1.909912,-0.093012,-0.055146,0.010340,-0.377405,0.237656,-0.409636,-22.952094,-78.932985,21.830707
01057,223749,9.586458,-0.864111,1.812498,-0.099058,-0.047442,0.007589,-0.376968,0.234514,-0.406789,-23.082036,-78.957595,21.904046
01058,223849,9.515195,-0.776598,1.748788,-0.103139,-0.049741,0.011035,-0.372076,0.236685,-0.401662,-23.226792,-78.982607,21.990090
01059,223949,9.497270,-0.688900,1.707168,-0.107438,-0.058465,0.016210,-0.368665,0.229984,-0.398493,-23.398769,-79.010993,22.101346
01060,224049,9.498785,-0.654605,1.762895,-0.110487,-0.062853,0.022456,-0.369748,0.228289,-0.394071,-23.595348,-79.040193,22.235870
01061,224149,9.517611,-0.623127,1.792755,-0.112091,-0.055379,0.027389,-0.366350,0.225027,-0.389724,-23.798168,-79.064247,22.375799
01062,224249,9.546375,-0.634070,1.796821,-0.112898,-0.046649,0.030971,-0.362976,0.219227,-0.384505,-24.001369,-79.082803,22.515631
01063,224349,9.584057,-0.615373,1.778689,-0.117419,-0.045044,0.033728,-0.364578,0.215498,-0.379185,-24.213248,-79.099780,22.661651
01064,224449,9.635460,-0.589769,1.809792,-0.119869,-0.050008,0.034472,-0.362178,0.211754,-0.374864,-24.435183,-79.119071,22.816466
01065,224549,9.695749,-0.577054,1.846693,-0.117048,-0.061830,0.029139,-0.361187,0.208748,-0.375016,-24.656349,-79.145680,22.972126
01066,224649,9.748007,-0.581742,1.895622,-0.118491,-0.068217,0.021449,-0.365298,0.206008,-0.368647,-24.866343,-79.177346,23.115548
01067,224749,9.760114,-0.615587,1.863460,-0.121283,-0.065070,0.012521,-0.365827,0.198992,-0.368003,-25.050608,-79.209443,23.231126
01068,224849,9.666546,-0.676958,1.859333,-0.129032,-0.058647,0.000524,-0.366472,0.194155,-0.360735,-25.199210,-79.241060,23.305866
01069,224949,9.575650,-0.765030,1.775523,-0.132372,-0.052385,-0.006795,-0.367991,0.191141,-0.359888,-25.322294,-79.271186,23.352676
01070,225049,9.549971,-0.826551,1.728691,-0.128306,-0.049163,-0.011365,-0.369518,0.188103,-0.358541,-25.426846,-79.300747,23.382991
01071,225149,9.538389,-0.878716,1.695080,-0.118781,-0.050905,-0.007757,-0.373061,0.188014,-0.355544,-25.538541,-79.330306,23.426130
01072,225249,9.581911,-0.880542,1.686943,-0.110330,-0.064515,-0.000746,-0.374618,0.183907,-0.352749,-25.683111,-79.365142,23.507644
01073,225349,9.684973,-0.832309,1.703536,-0.092898,-0.073278,0.007181,-0.377114,0.180957,-0.352902,-25.851981,-79.402482,23.624033
01074,225449,9.734104,-0.741588,1.759909,-0.068598,-0.068654,0.010950,-0.380199,0.179269,-0.347981,-26.012087,-79.436433,23.745656
01075,225549,9.708352,-0.694217,1.710277,-0.055203,-0.061152,0.007865,-0.381264,0.177124,-0.344584,-26.146676,-79.467246,23.849113
01076,225649,9.640555,-0.699474,1.635599,-0.055557,-0.060641,0.002703,-0.383736,0.176713,-0.345610,-26.267154,-79.499064,23.937997
01077,225749,9.539186,-0.793198,1.721554,-0.072163,-0.067747,-0.002845,-0.387740,0.176728,-0.344612,-26.392182,-79.535904,24.021823
01078,225849,9.505034,-0.855655,1.784567,-0.089418,-0.073907,-0.001886,-0.391762,0.171737,-0.343368,-26.539104,-79.575616,24.117849
01079,225949,9.537089,-0.921955,1.750660,-0.093534,-0.073830,0.005856,-0.392776,0.171705,-0.342368,-26.710879,-79.613244,24.236736
01080,226049,9.582546,-0.883324,1.674761,-0.078828,-0.051793,0.012733,-0.397345,0.170563,-0.337922,-26.863338,-79.637761,24.344544
01081,226149,9.595636,-0.847332,1.575597,-0.064510,-0.037127,0.020418,-0.397891,0.164994,-0.336203,-27.008845,-79.652743,24.453619
01082,226249,9.648682,-0.805429,1.557113,-0.054232,-0.044623,0.025406,-0.404406,0.163505,-0.334281,-27.173554,-79.670198,24.588193
01083,226349,9.676888,-0.687526,1.593398,-0.043299,-0.063362,0.028421,-0.406454,0.163392,-0.331283,-27.368033,-79.696333,24.759380
01084,226449,9.664537,-0.634719,1.656535,-0.031609,-0.088534,0.024446,-0.408980,0.159374,-0.329988,-27.582377,-79.736210,24.957540
01085,226549,9.594762,-0.609110,1.682283,-0.031498,-0.104575,0.013570,-0.411988,0.158875,-0.329015,-27.791394,-79.786993,25.150316
01086,226649,9.528026,-0.652606,1.756520,-0.035746,-0.110761,0.000177,-0.412044,0.158730,-0.326016,-27.976264,-79.844376,25.316048
01087,226749,9.452188,-0.714664,1.726872,-0.038153,-0.111004,-0.009659,-0.412541,0.159236,-0.325991,-28.136938,-79.904441,25.455764
01088,226849,9.452537,-0.795572,1.630040,-0.034717,-0.106256,-0.011939,-0.415635,0.157524,-0.320570,-28.283656,-79.962657,25.583278
01089,226949,9.570492,-0.860468,1.589349,-0.023248,-0.102857,-0.005041,-0.414168,0.157926,-0.319045,-28.439889,-80.017222,25.727106
01090,227049,9.679058,-0.870416,1.585996,-0.012094,-0.101756,0.005724,-0.415180,0.159389,-0.317969,-28.620594,-80.068211,25.902247
01091,227149,9.769659,-0.856662,1.617953,-0.003545,-0.108350,0.014787,-0.414677,0.161872,-0.317842,-28.834813,-80.119911,26.116354
01092,227249,9.801291,-0.788107,1.683242,0.003870,-0.116080,0.023462,-0.416191,0.161350,-0.316868,-29.084501,-80.172927,26.370737
01093,227349,9.780110,-0.728636,1.680607,0.002184,-0.128030,0.027411,-0.416688,0.161855,-0.316843,-29.368785,-80.230609,26.659200
01094,227449,9.778559,-0.673962,1.740359,-0.007404,-0.130821,0.029284,-0.417202,0.163808,-0.315742,-29.671973,-80.288898,26.961215
01095,227549,9.739014,-0.640372,1.740247,-0.022914,-0.123854,0.027560,-0.417241,0.162715,-0.313793,-29.970884,-80.343943,27.249816
01096,227649,9.670608,-0.628268,1.687174,-0.035479,-0.113596,0.025218,-0.416783,0.166075,-0.311116,-30.255941,-80.394327,27.517010
01097,227749,9.629820,-0.591650,1.620506,-0.045063,-0.102985,0.023521,-0.418267,0.166620,-0.311591,-30.526011,-80.439742,27.763389
01098,227849,9.615723,-0.566408,1.501054,-0.051538,-0.095513,0.018647,-0.420782,0.168581,-0.309991,-30.774807,-80.482718,27.984393
01099,227949,9.611695,-0.574414,1.493132,-0.050962,-0.087122,0.015715,-0.418346,0.168895,-0.306966,-31.001866,-80.522283,28.183658
01100,228049,9.611864,-0.627592,1.446618,-0.049965,-0.081177,0.012253,-0.417831,0.173395,-0.307237,-31.209271,-80.559837,28.363546
01101,228149,9.660961,-0.756649,1.444314,-0.042342,-0.074949,0.008923,-0.422810,0.174471,-0.307188,-31.392779,-80.595235,28.523616
01102,228249,9.655357,-0.866018,1.484795,-0.043565,-0.077916,0.012632,-0.423307,0.175475,-0.307137,-31.594671,-80.630881,28.701594
01103,228349,9.624063,-0.930009,1.550102,-0.052376,-0.088974,0.021853,-0.424293,0.180971,-0.306858,-31.850738,-80.669015,28.929344
01104,228449,9.605903,-0.913842,1.633872,-0.055755,-0.099038,0.031361,-0.423858,0.182290,-0.303283,-32.157663,-80.708958,29.206644
01105,228549,9.628273,-0.908478,1.682634,-0.059190,-0.103621,0.041300,-0.424815,0.183398,-0.305232,-32.507208,-80.747806,29.525104
01106,228649,9.645985,-0.862599,1.649814,-0.067185,-0.104753,0.049187,-0.425388,0.183213,-0.301233,-32.889693,-80.784419,29.872260
01107,228749,9.649622,-0.745192,1.599082,-0.074700,-0.104766,0.057708,-0.426869,0.185254,-0.301632,-33.304604,-80.817978,30.247864
01108,228849,9.654257,-0.629469,1.563060,-0.077849,-0.105349,0.060507,-0.428436,0.186082,-0.297583,-33.733545,-80.850488,30.635808
01109,228949,9.639595,-0.597645,1.494078,-0.078028,-0.101215,0.059006,-0.428403,0.189143,-0.298930,-34.152669,-80.881056,31.013661
01110,229049,9.693099,-0.557125,1.483761,-0.081028,-0.088361,0.051656,-0.428933,0.192044,-0.296779,-34.528292,-80.907507,31.345676
01111,229149,9.703771,-0.562410,1.430877,-0.083530,-0.073507,0.044148,-0.432875,0.195193,-0.298627,-34.854714,-80.929092,31.626379
01112,229249,9.714942,-0.572887,1.411221,-0.083711,-0.073053,0.035129,-0.433415,0.198070,-0.295976,-35.155110,-80.953192,31.880594
01113,229349,9.720816,-0.618016,1.431288,-0.086001,-0.082691,0.027392,-0.437386,0.200649,-0.296350,-35.455627,-80.984156,32.133572
01114,229449,9.775129,-0.697143,1.515627,-0.088640,-0.098575,0.022343,-0.439417,0.205044,-0.293622,-35.778264,-81.023985,32.407383
01115,229549,9.801677,-0.817712,1.582238,-0.099038,-0.105900,0.019520,-0.443894,0.203146,-0.294225,-36.116874,-81.067906,32.691296
01116,229649,9.787273,-0.936998,1.609618,-0.108237,-0.106092,0.021268,-0.442429,0.207510,-0.291997,-36.469372,-81.111043,32.983897
01117,229749,9.710354,-0.967019,1.556893,-0.112468,-0.104068,0.028561,-0.447397,0.209606,-0.292397,-36.844449,-81.150455,33.296864
01118,229849,9.676948,-0.892383,1.471067,-0.113527,-0.097571,0.033837,-0.452420,0.207098,-0.290526,-37.224193,-81.184748,33.613907
01119,229949,9.677119,-0.833912,1.409828,-0.107589,-0.081916,0.034329,-0.454917,0.209106,-0.289926,-37.569268,-81.211431,33.899281
01120,230049,9.687442,-0.849236,1.264829,-0.103910,-0.062401,0.032702,-0.458908,0.211138,-0.289325,-37.864868,-81.229596,34.136708
01121,230149,9.687106,-0.926458,1.214666,-0.102438,-0.052350,0.029319,-0.462409,0.213138,-0.288225,-38.127772,-81.244239,34.341894
01122,230249,9.701955,-1.033638,1.252551,-0.107140,-0.052711,0.029487,-0.466957,0.213539,-0.284703,-38.395532,-81.258835,34.549266
01123,230349,9.713369,-1.110798,1.356571,-0.113548,-0.052217,0.034063,-0.465994,0.215420,-0.282601,-38.680005,-81.271413,34.769830
01124,230449,9.695989,-1.120920,1.459449,-0.120800,-0.052221,0.042547,-0.471933,0.216109,-0.284577,-38.994059,-81.280755,35.016117
01125,230549,9.663869,-1.047460,1.519322,-0.118656,-0.045773,0.052826,-0.471964,0.214542,-0.283154,-39.321955,-81.283288,35.277649
01126,230649,9.659514,-0.933524,1.503306,-0.107226,-0.045955,0.057012,-0.473510,0.216913,-0.280028,-39.655907,-81.284138,35.551931
01127,230749,9.718354,-0.846718,1.482243,-0.088141,-0.049234,0.053726,-0.478490,0.217988,-0.279979,-39.977364,-81.287392,35.824630
01128,230849,9.774886,-0.787398,1.503716,-0.070632,-0.054605,0.042961,-0.479532,0.217884,-0.277481,-40.271158,-81.296749,36.079479
01129,230949,9.750101,-0.745304,1.475524,-0.061620,-0.049979,0.031050,-0.485021,0.217946,-0.276982,-40.515070,-81.308328,36.289072
01130,231049,9.658802,-0.715811,1.434077,-0.066961,-0.044139,0.016734,-0.485533,0.220397,-0.275856,-40.707513,-81.322585,36.443488
01131,231149,9.587476,-0.751530,1.329095,-0.085285,-0.028501,0.010027,-0.489020,0.220453,-0.275857,-40.853429,-81.332501,36.540204
01132,231249,9.608217,-0.819758,1.243374,-0.100342,-0.005651,0.009661,-0.487036,0.220895,-0.275331,-40.950860,-81.332631,36.579142
01133,231349,9.609431,-0.887727,1.198106,-0.108125,0.013308,0.012923,-0.492553,0.220387,-0.273359,-41.015272,-81.323326,36.580166
01134,231449,9.654820,-0.971018,1.149577,-0.108530,0.018190,0.016568,-0.491001,0.226961,-0.275527,-41.078166,-81.310541,36.579421
01135,231549,9.767645,-1.096146,1.167213,-0.104878,0.013443,0.019537,-0.493556,0.227330,-0.272004,-41.159006,-81.298683,36.598953
01136,231649,9.791506,-1.151756,1.261487,-0.100412,-0.007030,0.018910,-0.493577,0.226286,-0.271055,-41.285926,-81.295871,36.667696
01137,231749,9.829571,-1.220100,1.418021,-0.102772,-0.033170,0.023588,-0.496101,0.233180,-0.268201,-41.492052,-81.302477,36.815206
01138,231849,9.860282,-1.157658,1.457613,-0.103809,-0.036920,0.029213,-0.498087,0.231741,-0.268778,-41.724146,-81.308449,36.988388
01139,231949,9.755065,-0.980579,1.345231,-0.096041,-0.014281,0.026572,-0.496608,0.233662,-0.267676,-41.888008,-81.305665,37.097045
01140,232049,9.655592,-0.813035,1.172911,-0.077480,0.009342,0.022403,-0.498066,0.232785,-0.269727,-41.970359,-81.294379,37.133998
01141,232149,9.613111,-0.703643,1.064945,-0.058362,0.020782,0.016931,-0.497042,0.238298,-0.270447,-41.997772,-81.280324,37.126445
01142,232249,9.594572,-0.662812,1.109987,-0.045754,0.020045,0.007690,-0.498095,0.243128,-0.266694,-41.994088,-81.270141,37.094727
01143,232349,9.611634,-0.720540,1.181628,-0.040270,0.001565,-0.000298,-0.498068,0.242204,-0.268245,-42.011204,-81.270898,37.087223
01144,232449,9.645009,-0.877031,1.236788,-0.047749,-0.023631,-0.007325,-0.499527,0.246784,-0.269516,-42.076103,-81.285075,37.123721
01145,232549,9.699685,-1.028949,1.227870,-0.057196,-0.042436,-0.010821,-0.503024,0.246317,-0.269042,-42.184167,-81.308576,37.198410
01146,232649,9.803105,-1.129604,1.249873,-0.063876,-0.043735,-0.013859,-0.504494,0.244420,-0.270644,-42.291440,-81.333769,37.268425
01147,232749,9.864204,-1.173383,1.225555,-0.058946,-0.025366,-0.015917,-0.505460,0.245505,-0.272093,-42.344096,-81.351952,37.286054
01148,232849,9.744305,-1.206916,1.137019,-0.046565,-0.004116,-0.014990,-0.504942,0.246541,-0.273041,-42.338468,-81.360770,37.251911
01149,232949,9.640622,-1.197834,1.074827,-0.029624,-0.000028,-0.010946,-0.509877,0.246242,-0.275568,-42.324091,-81.366290,37.218747
01150,233049,9.584187,-1.144843,1.037704,-0.012713,-0.007590,-0.005394,-0.511341,0.247833,-0.276991,-42.334814,-81.372869,37.220777
01151,233149,9.599207,-1.090813,1.054972,0.004725,-0.023024,-0.001346,-0.510855,0.246306,-0.276567,-42.386248,-81.384419,37.274095
01152,233249,9.577613,-1.113972,1.112691,0.016963,-0.039500,0.000051,-0.513259,0.248057,-0.280990,-42.476910,-81.402384,37.374181
01153,233349,9.608159,-1.107329,1.195912,0.020315,-0.059450,-0.000946,-0.515249,0.249085,-0.280940,-42.614610,-81.429121,37.523780
01154,233449,9.648627,-1.030253,1.270335,0.018141,-0.081532,0.001250,-0.511809,0.249408,-0.278414,-42.817840,-81.464229,37.738375
01155,233549,9.648971,-0.882709,1.338934,0.012369,-0.084675,-0.001990,-0.515171,0.251769,-0.284811,-43.025185,-81.501804,37.953761
01156,233649,9.625398,-0.743795,1.382403,0.000057,-0.082390,-0.006662,-0.514160,0.254767,-0.285159,-43.222214,-81.540141,38.151552
01157,233749,9.649259,-0.662220,1.359793,-0.014183,-0.072492,-0.014712,-0.517177,0.254742,-0.283660,-43.380126,-81.577429,38.301515
01158,233849,9.676201,-0.605516,1.379783,-0.026608,-0.070877,-0.021580,-0.519637,0.255850,-0.285110,-43.522699,-81.616701,38.428745
01159,233949,9.659741,-0.594645,1.308854,-0.033029,-0.073706,-0.033127,-0.519128,0.256863,-0.285558,-43.645063,-81.661673,38.531799
01160,234049,9.634444,-0.649182,1.228071,-0.037412,-0.074050,-0.045785,-0.520618,0.259378,-0.285432,-43.736032,-81.711777,38.600560
01161,234149,9.692837,-0.801694,1.196696,-0.040864,-0.075179,-0.052791,-0.522084,0.259972,-0.286906,-43.812984,-81.765114,38.653141
01162,234249,9.814232,-1.001498,1.219160,-0.040692,-0.071018,-0.057125,-0.520080,0.260961,-0.287354,-43.866742,-81.818438,38.682380
01163,234349,9.842501,-1.088810,1.257101,-0.040702,-0.060349,-0.057893,-0.524062,0.263017,-0.287254,-43.889187,-81.867649,38.679978
01164,234449,9.761575,-1.082710,1.246277,-0.042658,-0.054918,-0.058259,-0.525536,0.264086,-0.288203,-43.896647,-81.914754,38.661311
01165,234549,9.642616,-1.018605,1.176922,-0.048847,-0.051109,-0.052632,-0.528011,0.262180,-0.289305,-43.913354,-81.958045,38.648404
01166,234649,9.584944,-0.897316,1.106462,-0.051002,-0.060461,-0.045867,-0.529520,0.264647,-0.288179,-43.977639,-82.002505,38.682297
01167,234749,9.564350,-0.793910,1.116835,-0.056411,-0.071869,-0.042256,-0.529531,0.263626,-0.287730,-44.088723,-82.050221,38.760306
01168,234849,9.525097,-0.731732,1.138498,-0.056003,-0.081775,-0.042105,-0.531494,0.264229,-0.289205,-44.229607,-82.101928,38.868619
01169,234949,9.483673,-0.779211,1.148623,-0.054210,-0.088951,-0.043419,-0.533978,0.262797,-0.289782,-44.388009,-82.157066,38.995632
01170,235049,9.520567,-0.897919,1.192064,-0.048573,-0.099953,-0.042301,-0.534988,0.265754,-0.288630,-44.580836,-82.216192,39.160633
01171,235149,9.617699,-0.996673,1.208833,-0.039101,-0.113760,-0.043601,-0.536976,0.262821,-0.289283,-44.808143,-82.281375,39.365885
01172,235249,9.735205,-1.072659,1.195497,-0.028139,-0.120807,-0.040893,-0.538013,0.261245,-0.287360,-45.062267,-82.348192,39.604506
01173,235349,9.830865,-1.100776,1.152996,-0.013961,-0.125333,-0.038810,-0.542484,0.262836,-0.287785,-45.332752,-82.415831,39.867796
01174,235449,9.806705,-1.106362,1.131497,0.004890,-0.131516,-0.034237,-0.545569,0.260649,-0.282890,-45.630302,-82.483902,40.169248
01175,235549,9.769743,-1.034696,1.105981,0.018322,-0.139124,-0.031327,-0.548002,0.256871,-0.286592,-45.958441,-82.553592,40.509267
01176,235649,9.750302,-0.910204,1.108504,0.018697,-0.137818,-0.029556,-0.550036,0.254315,-0.284721,-46.293873,-82.621770,40.856802
01177,235749,9.709293,-0.809567,1.121235,0.008930,-0.132240,-0.025380,-0.551064,0.251768,-0.283349,-46.635912,-82.685746,41.205298
01178,235849,9.666168,-0.721106,1.117335,-0.007981,-0.124375,-0.021344,-0.554056,0.250321,-0.283426,-46.980169,-82.744685,41.546204
01179,235949,9.664128,-0.639608,1.104628,-0.018365,-0.117596,-0.017353,-0.555067,0.246825,-0.283104,-47.325536,-82.799050,41.882176
01180,236049,9.657801,-0.585167,1.044794,-0.031684,-0.109134,-0.010623,-0.559541,0.246920,-0.283605,-47.675726,-82.847048,42.215266
01181,236149,9.677063,-0.605033,1.018100,-0.042038,-0.102600,-0.011496,-0.562555,0.242933,-0.282810,-48.011352,-82.892662,42.527652
01182,236249,9.713904,-0.690324,0.999487,-0.049130,-0.094560,-0.010449,-0.562063,0.239438,-0.282988,-48.330596,-82.934539,42.819395
01183,236349,9.740871,-0.799795,1.034275,-0.051389,-0.086650,-0.008239,-0.563544,0.241977,-0.283361,-48.633908,-82.972266,43.093749
01184,236449,9.784194,-0.888499,1.105103,-0.056183,-0.080983,-0.004129,-0.566068,0.238955,-0.282014,-48.935688,-83.005899,43.363770
01185,236549,9.810849,-0.933401,1.107905,-0.056387,-0.076825,0.000266,-0.567518,0.237604,-0.284590,-49.238994,-83.035885,43.635191
01186,236649,9.828864,-0.905091,1.075246,-0.055896,-0.070867,0.004314,-0.570546,0.236558,-0.282643,-49.535483,-83.061709,43.900010
01187,236749,9.824957,-0.768597,1.005139,-0.052666,-0.059658,0.011005,-0.569528,0.233128,-0.284320,-49.812090,-83.080294,44.146645
01188,236849,9.740799,-0.690841,0.955353,-0.049739,-0.051461,0.014438,-0.572048,0.232098,-0.282872,-50.069024,-83.094218,44.375135
01189,236949,9.699848,-0.653786,0.966454,-0.044519,-0.052181,0.016345,-0.572461,0.233320,-0.287319,-50.332235,-83.107447,44.612942
01190,237049,9.765502,-0.688915,0.978352,-0.035835,-0.035172,0.021644,-0.572986,0.228795,-0.286549,-50.544967,-83.112016,44.804901
01191,237149,9.720068,-0.780893,1.024949,-0.036902,-0.022561,0.022236,-0.574389,0.228063,-0.291598,-50.713951,-83.111661,44.952172
01192,237249,9.704089,-0.905799,1.022632,-0.037380,-0.008648,0.022949,-0.573934,0.229928,-0.288997,-50.834141,-83.105900,45.050017
01193,237349,9.686128,-1.036394,1.066767,-0.028349,0.005461,0.022370,-0.572390,0.226063,-0.292199,-50.895402,-83.095262,45.093722
01194,237449,9.666291,-1.144767,1.133619,-0.028793,0.003856,0.021658,-0.576864,0.226158,-0.292700,-50.960526,-83.085497,45.141072
01195,237549,9.670161,-1.180187,1.143973,-0.041858,-0.015881,0.020748,-0.574338,0.225219,-0.294749,-51.102747,-83.083219,45.258553
01196,237649,9.739436,-1.122308,1.161804,-0.045959,-0.027468,0.025113,-0.573774,0.225877,-0.298222,-51.302792,-83.083091,45.431922
01197,237749,9.808278,-1.016007,1.075476,-0.040896,-0.031506,0.033398,-0.572298,0.225806,-0.297222,-51.539174,-83.080604,45.644821
01198,237849,9.803300,-0.953735,0.957143,-0.026014,-0.031289,0.037964,-0.573299,0.223330,-0.297349,-51.779384,-83.075878,45.870167
01199,237949,9.777112,-0.983423,0.944769,-0.004244,-0.032984,0.042394,-0.574214,0.227026,-0.301170,-52.025952,-83.069632,46.114487
01200,238049,9.749578,-1.029058,0.981375,0.015183,-0.043121,0.040315,-0.575208,0.228537,-0.301095,-52.292731,-83.067750,46.390387
01201,238149,9.744923,-1.056276,1.016987,0.022166,-0.058407,0.037521,-0.576182,0.225635,-0.302746,-52.604574,-83.072297,46.715715
01202,238249,9.721588,-1.042926,1.023976,0.029844,-0.068230,0.030854,-0.576647,0.228705,-0.304094,-52.930434,-83.083063,47.059594
01203,238349,9.747856,-0.990459,0.970999,0.029222,-0.072487,0.025600,-0.577648,0.225731,-0.304246,-53.258939,-83.097457,47.405769
01204,238449,9.741930,-0.928293,0.907041,0.014921,-0.066120,0.021550,-0.579608,0.228326,-0.305619,-53.561315,-83.111310,47.717360
01205,238549,9.664450,-0.854712,0.790402,-0.010872,-0.062012,0.021795,-0.576608,0.229798,-0.306042,-53.864624,-83.123462,48.014995
01206,238649,9.629499,-0.776696,0.770124,-0.037138,-0.062690,0.022649,-0.577639,0.230714,-0.303992,-54.189019,-83.135258,48.318694
01207,238749,9.592267,-0.750789,0.819433,-0.054476,-0.064467,0.024096,-0.580084,0.230375,-0.306518,-54.535272,-83.146766,48.634390
01208,238849,9.557360,-0.791849,0.864670,-0.062427,-0.065362,0.023436,-0.581068,0.232408,-0.306916,-54.888813,-83.158651,48.952822
01209,238949,9.540261,-0.915806,0.930405,-0.062641,-0.064706,0.021461,-0.583068,0.227956,-0.307145,-55.235621,-83.171012,49.264340
01210,239049,9.506786,-1.025877,0.989762,-0.048843,-0.064520,0.022809,-0.581149,0.228230,-0.303121,-55.578581,-83.182442,49.579939
01211,239149,9.491119,-1.132788,1.004344,-0.030044,-0.063627,0.026613,-0.583585,0.227915,-0.306146,-55.918528,-83.191543,49.903353
01212,239249,9.520120,-1.134181,1.021932,-0.007659,-0.052339,0.024092,-0.585566,0.228967,-0.306596,-56.194689,-83.198009,50.175445
01213,239349,9.605058,-1.116251,0.977169,0.013513,-0.049623,0.019591,-0.584574,0.226959,-0.306697,-56.436369,-83.205598,50.425030
01214,239449,9.718688,-1.099368,0.953716,0.023733,-0.046342,0.016112,-0.588112,0.223904,-0.304351,-56.650316,-83.213685,50.652584
01215,239549,9.782121,-1.076304,0.919153,0.023928,-0.051945,0.012840,-0.587572,0.221526,-0.306977,-56.878663,-83.224988,50.894752
01216,239649,9.806211,-0.978294,0.924661,0.021037,-0.068188,0.013113,-0.589621,0.220915,-0.304004,-57.176067,-83.241090,51.204784
01217,239749,9.759244,-0.908135,0.913007,0.013890,-0.074938,0.012015,-0.590585,0.218037,-0.306156,-57.503675,-83.259608,51.541092
01218,239849,9.691518,-0.860931,0.898309,0.003940,-0.075112,0.010849,-0.593602,0.218012,-0.304658,-57.836426,-83.278516,51.876820
01219,239949,9.632768,-0.903412,0.929780,-0.007791,-0.083034,0.008813,-0.593638,0.218414,-0.302633,-58.205299,-83.300575,52.242133
01220,240049,9.602729,-0.983198,1.056980,-0.010824,-0.090162,0.007908,-0.596132,0.216959,-0.302710,-58.605682,-83.324919,52.637402
01221,240149,9.656403,-1.026361,1.145762,-0.005829,-0.086542,0.010265,-0.597116,0.213536,-0.303888,-58.996680,-83.346702,53.026086
01222,240249,9.699832,-1.149782,1.129878,0.001545,-0.061261,0.012890,-0.599671,0.213905,-0.300365,-59.285398,-83.359479,53.316040
01223,240349,9.757787,-1.228393,1.027967,0.013690,-0.043589,0.018069,-0.601685,0.211895,-0.299467,-59.506089,-83.364378,53.544519
01224,240449,9.792643,-1.199103,0.913318,0.039103,-0.029945,0.024000,-0.600184,0.210401,-0.300043,-59.669250,-83.362286,53.729746
01225,240549,9.728078,-1.076782,0.801172,0.070597,-0.025655,0.032778,-0.603168,0.207981,-0.300671,-59.817708,-83.354548,53.918343
01226,240649,9.648875,-0.971779,0.728803,0.100408,-0.021232,0.032356,-0.605176,0.204501,-0.300349,-59.928845,-83.345697,54.086566
01227,240749,9.644842,-0.959793,0.675552,0.124900,-0.022198,0.029342,-0.607175,0.206003,-0.299774,-60.022324,-83.338586,54.251142
01228,240849,9.646451,-0.994327,0.674719,0.139295,-0.034606,0.026109,-0.609157,0.201599,-0.301003,-60.152182,-83.336591,54.460652
01229,240949,9.633343,-0.995948,0.761397,0.144688,-0.060337,0.023866,-0.611675,0.201567,-0.299504,-60.383125,-83.342947,54.775045
01230,241049,9.644492,-1.021221,0.836970,0.141358,-0.082172,0.027549,-0.611168,0.201583,-0.300004,-60.718912,-83.353432,55.193067
01231,241149,9.674330,-1.002926,0.931925,0.136201,-0.096784,0.030537,-0.613673,0.198609,-0.299657,-61.128876,-83.366171,55.682781
01232,241249,9.650750,-0.944344,0.951669,0.138831,-0.090093,0.034055,-0.616142,0.200689,-0.300556,-61.518154,-83.374905,56.153173
01233,241349,9.532369,-0.900855,0.893738,0.156152,-0.083491,0.033991,-0.618167,0.197659,-0.299209,-61.869588,-83.381528,56.595446
01234,241449,9.506263,-0.895521,0.807699,0.172278,-0.080254,0.030923,-0.618120,0.198278,-0.301683,-62.191255,-83.388538,57.017043
01235,241549,9.552377,-0.948090,0.748323,0.185022,-0.088647,0.030021,-0.621648,0.195746,-0.299812,-62.541161,-83.397954,57.474410
01236,241649,9.613918,-0.993036,0.715533,0.196139,-0.106492,0.029265,-0.625100,0.194403,-0.301888,-62.962938,-83.412083,58.010527
01237,241749,9.743296,-1.005533,0.758961,0.202490,-0.125432,0.031320,-0.625166,0.193736,-0.298415,-63.471902,-83.429551,58.638055
01238,241849,9.877107,-0.951797,0.840573,0.198763,-0.133355,0.034867,-0.623119,0.193351,-0.301439,-64.029153,-83.446537,59.312014
01239,241949,9.838956,-0.835472,0.857452,0.198450,-0.132725,0.032751,-0.629125,0.198331,-0.299187,-64.582203,-83.463722,59.981530
01240,242049,9.725601,-0.721833,0.873804,0.200342,-0.122616,0.025122,-0.628145,0.194306,-0.298891,-65.075083,-83.481714,60.591536
01241,242149,9.681410,-0.623478,0.849906,0.205999,-0.117742,0.017687,-0.630659,0.191806,-0.298019,-65.529769,-83.501856,61.166320
01242,242249,9.667414,-0.616158,0.859780,0.217145,-0.114327,0.007448,-0.632621,0.193404,-0.299443,-65.944273,-83.526066,61.707044
01243,242349,9.707315,-0.639853,0.884210,0.226619,-0.110278,-0.000335,-0.632099,0.190978,-0.301069,-66.322090,-83.553011,62.216264
01244,242449,9.774444,-0.705277,0.907772,0.230633,-0.101070,-0.007441,-0.633665,0.192303,-0.296995,-66.643739,-83.581249,62.671229
01245,242549,10.021356,-0.728773,0.870081,0.214357,-0.095982,-0.011800,-0.636591,0.191025,-0.300570,-66.945298,-83.610373,63.096551
01246,242649,9.911213,-1.006921,0.857036,0.230915,-0.081124,-0.003773,-0.637616,0.190470,-0.299097,-67.186084,-83.631718,63.470244
01247,242749,9.947545,-0.783681,0.889145,0.210369,-0.082654,-0.015675,-0.638596,0.189538,-0.300148,-67.424349,-83.659531,63.829526
01248,242849,10.051512,-0.863291,0.928297,0.210628,-0.041536,-0.006131,-0.641102,0.191522,-0.299047,-67.486984,-83.673164,64.012222
01249,242949,10.017001,-0.784251,0.719473,0.191520,0.006596,0.004639,-0.640543,0.189192,-0.302672,-67.352298,-83.670536,63.985359
01250,243049,9.740276,-0.652947,0.682442,0.172966,0.014314,-0.002417,-0.641557,0.189657,-0.301648,-67.177336,-83.669941,63.907261
01251,243149,9.482061,-0.591444,0.661689,0.167511,-0.008710,-0.008070,-0.645001,0.192798,-0.303496,-67.103640,-83.677457,63.927887
01252,243249,9.309551,-0.547367,0.599011,0.155543,-0.039460,-0.018660,-0.641527,0.190726,-0.303097,-67.162162,-83.697433,64.074620
01253,243349,9.334546,-0.527423,0.602244,0.149154,-0.059044,-0.024722,-0.644019,0.189769,-0.303148,-67.306805,-83.724950,64.304284
01254,243449,9.351120,-0.617282,0.584056,0.149377,-0.053824,-0.031094,-0.642454,0.187945,-0.307248,-67.414865,-83.754647,64.497246
01255,243549,9.289696,-0.798649,0.551117,0.158360,-0.056879,-0.031390,-0.645009,0.188314,-0.303724,-67.533443,-83.785139,64.705948
01256,243649,9.339779,-0.908827,0.618656,0.161717,-0.069586,-0.028331,-0.648958,0.187477,-0.305776,-67.719993,-83.816723,64.984943
01257,243749,9.413296,-0.953211,0.713441,0.165070,-0.076450,-0.021363,-0.651982,0.188425,-0.303726,-67.954652,-83.845981,65.314243
01258,243849,9.407919,-1.014904,0.735096,0.164078,-0.081119,-0.018371,-0.648495,0.188868,-0.303700,-68.221585,-83.874485,65.675416
01259,243949,9.411418,-1.146983,0.755070,0.169965,-0.092453,-0.013696,-0.651901,0.187147,-0.308301,-68.553780,-83.902675,66.105607
01260,244049,9.491455,-1.252575,0.763555,0.175757,-0.101048,-0.006639,-0.652448,0.186038,-0.305853,-68.943025,-83.928575,66.596500
01261,244149,9.608198,-1.346219,0.827860,0.184033,-0.101004,0.002885,-0.656423,0.186623,-0.306329,-69.349137,-83.948980,67.109120
01262,244249,9.634671,-1.409706,0.835435,0.197421,-0.107244,0.011651,-0.655928,0.184623,-0.306430,-69.798761,-83.965494,67.673213
01263,244349,9.681798,-1.450122,0.852141,0.201790,-0.122624,0.019558,-0.657464,0.187017,-0.303804,-70.341743,-83.980208,68.333707
01264,244449,9.775853,-1.496650,0.949150,0.205535,-0.140608,0.029804,-0.658929,0.182653,-0.306033,-70.996139,-83.992035,69.108397
01265,244549,9.899026,-1.562333,0.934026,0.210309,-0.150533,0.043049,-0.660470,0.183055,-0.303509,-71.724438,-83.997474,69.960162
01266,244649,9.954854,-1.639511,0.862403,0.221132,-0.158519,0.058080,-0.660458,0.184075,-0.303958,-72.513877,-83.994902,70.879669
01267,244749,9.909927,-1.686975,0.750016,0.234210,-0.167717,0.077305,-0.661501,0.183971,-0.301459,-73.372733,-83.981922,71.876560
01268,244849,9.864683,-1.577142,0.737205,0.243891,-0.168913,0.088481,-0.663018,0.181953,-0.300562,-74.244423,-83.961376,72.891992
01269,244949,9.813406,-1.421186,0.843185,0.245725,-0.160772,0.088195,-0.664504,0.181503,-0.301087,-75.065460,-83.938157,73.857608
01270,245049,9.936515,-1.193768,0.972248,0.242843,-0.150529,0.079772,-0.667474,0.181598,-0.302088,-75.816509,-83.916728,74.751227
01271,245149,10.194980,-0.925870,1.208626,0.226119,-0.142142,0.068091,-0.667481,0.182571,-0.301537,-76.512618,-83.899463,75.579981
01272,245249,10.394115,-0.710691,1.453586,0.202367,-0.123904,0.047557,-0.666999,0.184010,-0.300461,-77.097961,-83.890302,76.283648
01273,245349,10.532671,-0.544428,1.570299,0.177696,-0.119600,0.028476,-0.665040,0.180916,-0.299114,-77.650660,-83.890557,76.940242
01274,245449,10.432483,-0.444358,1.530402,0.141058,-0.119500,0.006798,-0.670522,0.179508,-0.299191,-78.199603,-83.902306,77.571902
01275,245549,10.113381,-0.403983,1.425185,0.108342,-0.127005,-0.018981,-0.669036,0.179959,-0.298666,-78.781690,-83.928758,78.217981
01276,245649,9.809453,-0.458443,1.216904,0.080188,-0.149402,-0.041421,-0.669092,0.179814,-0.295667,-79.481851,-83.969518,78.966501
01277,245749,9.577232,-0.559030,1.078864,0.066770,-0.170807,-0.058458,-0.669542,0.180939,-0.298115,-80.298663,-84.021013,79.824495
01278,245849,9.361767,-0.668438,1.045238,0.070802,-0.192799,-0.072616,-0.672552,0.178945,-0.297218,-81.235234,-84.081173,80.805110
01279,245949,9.195126,-0.855038,1.097913,0.085585,-0.211772,-0.083262,-0.674075,0.178897,-0.295719,-82.279344,-84.147165,81.902226
01280,246049,9.055791,-1.086675,1.186821,0.103207,-0.235522,-0.088318,-0.675100,0.178342,-0.294245,-83.467069,-84.215503,83.153722
01281,246149,9.018715,-1.343261,1.258833,0.120284,-0.261846,-0.081619,-0.673598,0.177346,-0.294796,-84.826552,-84.278696,84.587548
01282,246249,9.053516,-1.575115,1.331838,0.140427,-0.269906,-0.065549,-0.671147,0.175716,-0.292872,-86.256785,-84.329510,86.103959
01283,246349,9.088509,-1.691678,1.315850,0.152847,-0.259625,-0.040649,-0.671668,0.173682,-0.291974,-87.651087,-84.361990,87.591339
01284,246449,9.071202,-1.689597,1.275281,0.155363,-0.236791,-0.018081,-0.671221,0.176021,-0.288848,-88.928421,-84.377684,88.962607
01285,246549,8.998089,-1.653652,1.214377,0.156075,-0.219142,0.001797,-0.670197,0.176078,-0.290347,-90.108332,-84.378971,90.236408
01286,246649,9.090056,-1.472256,1.209711,0.152666,-0.219904,0.012096,-0.669740,0.173482,-0.288475,-91.292777,-84.371747,91.512835
01287,246749,9.329146,-1.335642,1.259970,0.152105,-0.211305,0.017384,-0.670227,0.174511,-0.288924,-92.422157,-84.359113,92.733646
01288,246849,9.519282,-1.256277,1.288710,0.156176,-0.196234,0.019531,-0.671288,0.174856,-0.285400,-93.455173,-84.343421,93.860010
01289,246949,9.621364,-1.220076,1.228793,0.165909,-0.185816,0.020769,-0.670270,0.176383,-0.286323,-94.415334,-84.325498,94.918809
01290,247049,9.680065,-1.226393,1.220289,0.171963,-0.182571,0.020743,-0.673790,0.173377,-0.284977,-95.346339,-84.306021,95.951839
01291,247149,9.654989,-1.256328,1.201137,0.182223,-0.182593,0.017438,-0.675308,0.170861,-0.284105,-96.266225,-84.286769,96.979649
01292,247249,9.653876,-1.258474,1.193809,0.189889,-0.194077,0.010985,-0.674304,0.175329,-0.283876,-97.244108,-84.268720,98.070207
01293,247349,9.623979,-1.236228,1.203044,0.194488,-0.208167,0.003201,-0.672368,0.174655,-0.280902,-98.297791,-84.252071,99.239639
01294,247449,9.585814,-1.170247,1.244607,0.192429,-0.227938,-0.004506,-0.672887,0.173120,-0.279979,-99.463170,-84.235776,100.520189
01295,247549,9.567121,-1.080482,1.298458,0.194967,-0.237491,-0.014912,-0.673433,0.172509,-0.277506,-100.683203,-84.221734,101.857169
01296,247649,9.547003,-0.980645,1.372215,0.190795,-0.240491,-0.031628,-0.671937,0.173482,-0.277454,-101.934426,-84.213869,103.223118
01297,247749,9.527252,-0.975967,1.417256,0.194215,-0.226539,-0.050045,-0.675447,0.170500,-0.276608,-103.125936,-84.215127,104.531023
01298,247849,9.503676,-0.998318,1.454555,0.197050,-0.206822,-0.066568,-0.676951,0.170500,-0.276109,-104.230209,-84.225634,105.752860
01299,247949,9.454991,-1.051509,1.407893,0.206626,-0.193514,-0.081098,-0.678991,0.169913,-0.273636,-105.281163,-84.243835,106.926590
01300,248049,9.454222,-1.100226,1.367037,0.208855,-0.182317,-0.091089,-0.677504,0.171360,-0.273059,-106.291686,-84.267180,108.060929
01301,248149,9.427705,-1.162632,1.319143,0.204453,-0.170031,-0.087469,-0.677517,0.168844,-0.272687,-107.239179,-84.288636,109.129352
01302,248249,9.445398,-1.181536,1.263661,0.196080,-0.165820,-0.080977,-0.678009,0.167382,-0.273263,-108.163530,-84.305548,110.169669
01303,248349,9.456539,-1.221971,1.248236,0.186081,-0.174100,-0.072961,-0.678010,0.166385,-0.273314,-109.128481,-84.314891,111.245018
01304,248449,9.516411,-1.251089,1.240478,0.175275,-0.197410,-0.068900,-0.676555,0.165268,-0.271365,-110.219981,-84.315638,112.441323
01305,248549,9.626241,-1.215411,1.243669,0.169232,-0.205712,-0.062226,-0.678575,0.165228,-0.269866,-111.344676,-84.308839,113.667528
01306,248649,9.640537,-1.117130,1.291197,0.160693,-0.200217,-0.057353,-0.680056,0.162809,-0.270993,-112.430540,-84.298297,114.849818
01307,248749,9.653811,-1.018419,1.364127,0.139800,-0.195020,-0.063842,-0.681598,0.161716,-0.268545,-113.510719,-84.290149,116.014384
01308,248849,9.650466,-0.965718,1.477239,0.120759,-0.186242,-0.074890,-0.681110,0.161186,-0.268071,-114.578216,-84.287693,117.155249
01309,248949,9.710022,-0.912416,1.621246,0.093094,-0.175780,-0.087905,-0.682137,0.159634,-0.266648,-115.637820,-84.292464,118.272244
01310,249049,9.762343,-0.885985,1.676957,0.068035,-0.169881,-0.098724,-0.681168,0.160044,-0.265123,-116.710205,-84.302262,119.387633
01311,249149,9.887605,-0.852770,1.789670,0.060162,-0.165256,-0.107245,-0.682150,0.157617,-0.266250,-117.789068,-84.315577,120.504966
01312,249249,10.002176,-0.819726,1.887253,0.060296,-0.135777,-0.117416,-0.682708,0.154989,-0.263378,-118.751035,-84.340102,121.504856
01313,249349,10.104692,-0.847540,1.847210,0.056080,-0.105922,-0.129579,-0.684205,0.154017,-0.263429,-119.607160,-84.377530,122.395895
01314,249449,10.149489,-0.912418,1.803604,0.048912,-0.070837,-0.142075,-0.684692,0.154547,-0.263904,-120.337780,-84.430033,123.156626
01315,249549,10.230176,-0.994286,1.811704,0.047102,-0.037989,-0.152520,-0.685206,0.151043,-0.263582,-120.947519,-84.496449,123.794788
01316,249649,10.286438,-1.103516,1.800441,0.050105,-0.018512,-0.163306,-0.685740,0.151453,-0.261558,-121.503849,-84.573341,124.380951
01317,249749,10.423623,-1.257942,1.812359,0.050660,-0.025878,-0.164398,-0.684221,0.150007,-0.263133,-122.117008,-84.647995,125.024455
01318,249849,10.718466,-1.356228,1.870952,0.036565,-0.038270,-0.163757,-0.685725,0.149508,-0.262659,-122.817422,-84.717858,125.747420
01319,249949,11.102611,-1.367538,1.914288,0.013814,-0.040226,-0.157415,-0.687683,0.148142,-0.264735,-123.537114,-84.783259,126.476593
01320,250049,11.490917,-1.276374,1.928046,-0.013638,-0.014928,-0.147645,-0.686736,0.146511,-0.262312,-124.121984,-84.851352,127.054530
01321,250149,11.855695,-1.223115,1.827005,-0.034842,0.037451,-0.138638,-0.687678,0.146173,-0.265336,-124.422380,-84.931710,127.334603
01322,250249,11.959897,-1.148951,1.509356,-0.041373,0.084216,-0.137483,-0.687686,0.146647,-0.264811,-124.477663,-85.026633,127.364829
01323,250349,11.803652,-1.348785,1.241385,-0.027495,0.101416,-0.150073,-0.690630,0.145818,-0.267362,-124.478402,-85.133090,127.348304
01324,250449,11.684769,-1.576303,0.869333,0.014935,0.097240,-0.159298,-0.688612,0.144364,-0.268937,-124.513078,-85.242537,127.390270
01325,250549,11.769037,-1.619047,0.667472,0.060855,0.069921,-0.166952,-0.693089,0.142965,-0.269514,-124.711197,-85.346675,127.622661
01326,250649,11.930771,-1.507089,0.527429,0.075267,0.051598,-0.165305,-0.691581,0.144958,-0.269912,-125.011445,-85.443939,127.965794
01327,250749,11.962322,-1.370757,0.359498,0.068895,0.050448,-0.159900,-0.692538,0.146565,-0.271835,-125.312858,-85.538132,128.306413
01328,250849,11.879120,-1.290603,0.215694,0.070449,0.050155,-0.158679,-0.692496,0.143696,-0.274487,-125.623272,-85.631497,128.656931
01329,250949,11.708652,-1.176705,0.114304,0.081484,0.040027,-0.157913,-0.695459,0.142819,-0.276038,-126.000742,-85.720934,129.081012
01330,251049,11.428424,-0.993829,0.126454,0.088358,0.024129,-0.164291,-0.696959,0.144811,-0.275437,-126.520677,-85.807671,129.651858
01331,251149,11.141552,-0.795228,0.150822,0.104227,0.029703,-0.172357,-0.695458,0.143317,-0.276012,-127.057599,-85.899633,130.248785
01332,251249,10.829668,-0.624233,0.293760,0.118138,0.045388,-0.171748,-0.698492,0.144241,-0.273463,-127.507562,-85.996400,130.766445
01333,251349,10.430213,-0.475998,0.309178,0.107634,0.086399,-0.162207,-0.697946,0.144851,-0.275937,-127.666320,-86.102991,130.986093
01334,251449,9.968872,-0.369367,0.214857,0.062144,0.124909,-0.147150,-0.698876,0.145534,-0.279410,-127.518753,-86.216223,130.872558
01335,251549,9.469050,-0.256821,0.132790,-0.022268,0.155276,-0.121731,-0.700813,0.145710,-0.282410,-127.059099,-86.328385,130.397800
01336,251649,8.869963,-0.045914,-0.123969,-0.108894,0.174430,-0.097596,-0.697832,0.146137,-0.281884,-126.346979,-86.435711,129.620370
01337,251749,8.377640,0.151113,-0.492546,-0.198748,0.184797,-0.067255,-0.700266,0.147317,-0.284833,-125.395029,-86.531714,128.551129
01338,251849,7.947917,0.316558,-0.835888,-0.274956,0.197197,-0.033690,-0.699238,0.149367,-0.286230,-124.148437,-86.614699,127.143038
01339,251949,7.682040,0.495533,-1.460466,-0.332328,0.161208,-0.001586,-0.700683,0.151006,-0.288654,-122.997365,-86.669163,125.797757
01340,252049,7.678906,0.870126,-1.746426,-0.376844,0.106005,0.019314,-0.700145,0.152589,-0.290576,-122.189721,-86.695144,124.770924
01341,252149,7.822314,1.229259,-1.679873,-0.401019,0.080945,0.016764,-0.698685,0.153963,-0.288500,-121.610482,-86.714078,123.958941
01342,252249,8.207603,1.383320,-1.483994,-0.408931,0.077756,-0.004953,-0.701154,0.156044,-0.289399,-121.169433,-86.742304,123.280755
01343,252349,8.904564,1.137618,-1.240039,-0.385196,0.072313,-0.025797,-0.699629,0.157587,-0.290822,-120.862210,-86.778939,122.750169
01344,252449,9.545523,0.835357,-0.956701,-0.341287,0.061659,-0.038082,-0.699621,0.156615,-0.291373,-120.680059,-86.818398,122.369998
01345,252549,10.095904,0.573099,-0.671890,-0.295328,0.045471,-0.046171,-0.697051,0.159757,-0.295218,-120.653646,-86.857099,122.172133
01346,252649,10.549153,0.311967,-0.406820,-0.258683,0.032975,-0.062019,-0.697135,0.159043,-0.290745,-120.802943,-86.899979,122.171227
01347,252749,10.710646,0.047965,-0.316298,-0.242248,0.011895,-0.076554,-0.696081,0.160666,-0.293667,-121.219426,-86.943782,122.447294
01348,252849,10.698436,-0.180705,-0.340443,-0.243248,-0.002816,-0.080699,-0.695067,0.165158,-0.293938,-121.806779,-86.985068,122.893868
01349,252949,10.605818,-0.377172,-0.322942,-0.258004,-0.010046,-0.071401,-0.693595,0.163093,-0.293040,-122.429585,-87.019370,123.367458
01350,253049,10.421513,-0.447853,-0.228424,-0.282214,-0.021927,-0.055591,-0.695602,0.165568,-0.291914,-123.094088,-87.042071,123.868898
01351,253149,10.166129,-0.390037,-0.047344,-0.310463,-0.039164,-0.042308,-0.697609,0.167544,-0.290813,-123.861264,-87.052637,124.456929
01352,253249,9.854409,-0.300500,0.292666,-0.329543,-0.042296,-0.027689,-0.695589,0.167585,-0.292312,-124.580254,-87.054873,124.985753
01353,253349,9.575566,-0.113884,0.583536,-0.353792,-0.040729,-0.015191,-0.697034,0.169224,-0.294735,-125.219188,-87.051444,125.420481
01354,253449,9.288225,0.042900,0.851553,-0.379066,-0.016302,-0.003257,-0.695076,0.175549,-0.291905,-125.572825,-87.050385,125.555007
01355,253549,8.914927,0.179382,0.947655,-0.393309,0.023996,0.010612,-0.695084,0.176521,-0.291355,-125.479417,-87.056298,125.233685
01356,253649,8.607561,0.278490,0.924862,-0.400064,0.069523,0.016684,-0.695060,0.179559,-0.292202,-124.932597,-87.074359,124.454444
01357,253749,8.357723,0.274259,0.793399,-0.392352,0.110606,0.019540,-0.695040,0.180105,-0.293176,-123.970056,-87.103898,123.263347
01358,253849,8.152678,0.196380,0.636625,-0.378498,0.135266,0.019439,-0.694519,0.183135,-0.294023,-122.740504,-87.140121,121.812852
01359,253949,8.066999,0.019878,0.505426,-0.364481,0.144080,0.022268,-0.694937,0.186325,-0.297869,-121.364432,-87.176001,120.223723
01360,254049,8.079049,-0.195518,0.422914,-0.350221,0.134750,0.025120,-0.694490,0.188663,-0.294743,-120.021002,-87.205868,118.675494
01361,254149,8.233172,-0.406043,0.463832,-0.324987,0.121670,0.035190,-0.690964,0.189701,-0.296690,-118.711235,-87.225257,117.175480
01362,254249,8.397649,-0.526851,0.440815,-0.301032,0.094403,0.058213,-0.694921,0.190334,-0.298166,-117.529951,-87.224042,115.817865
01363,254349,8.502146,-0.572225,0.467130,-0.278478,0.052349,0.081817,-0.691408,0.194313,-0.298961,-116.656303,-87.198618,114.781187
01364,254449,8.639853,-0.525517,0.615429,-0.251077,0.006176,0.102851,-0.694357,0.195951,-0.300885,-116.157630,-87.150022,114.135637
01365,254549,8.774668,-0.429663,0.707878,-0.213899,-0.031709,0.120262,-0.694876,0.199873,-0.299182,-115.956069,-87.082738,113.808877
01366,254649,8.842237,-0.268905,0.784749,-0.183277,-0.063679,0.129947,-0.695897,0.201809,-0.297582,-116.017783,-87.002432,113.763282
01367,254749,8.845622,-0.103128,0.788966,-0.171431,-0.092882,0.127785,-0.695907,0.201287,-0.297107,-116.361063,-86.915888,114.006426
01368,254849,8.826424,0.036967,0.789042,-0.150124,-0.098030,0.120377,-0.696372,0.204357,-0.298455,-116.757923,-86.831773,114.315451
01369,254949,8.786866,0.184612,0.880510,-0.144677,-0.097783,0.113966,-0.697854,0.205899,-0.298878,-117.160331,-86.750927,114.633147
01370,255049,8.648747,0.221531,0.773647,-0.159487,-0.116982,0.104121,-0.694378,0.210280,-0.297649,-117.765822,-86.669905,115.145748
01371,255149,8.603729,0.237195,0.814363,-0.157657,-0.129333,0.091745,-0.693863,0.214282,-0.297945,-118.504470,-86.591506,115.792788
01372,255249,8.677515,0.246689,1.008824,-0.129278,-0.098717,0.084049,-0.695888,0.211750,-0.296574,-118.978536,-86.525066,116.191062
01373,255349,8.684850,0.225465,1.037862,-0.091928,-0.039848,0.085130,-0.698333,0.216868,-0.298320,-118.932691,-86.474382,116.089876
01374,255449,8.789686,0.148381,1.024390,-0.046882,0.001389,0.085656,-0.696844,0.218813,-0.297718,-118.528440,-86.434822,115.655411
01375,255549,9.172282,-0.033130,1.059302,0.000249,0.022527,0.094805,-0.695817,0.220863,-0.299115,-117.897276,-86.396175,115.020597
01376,255649,9.543673,-0.136093,1.103300,0.030728,0.026563,0.096810,-0.696794,0.220927,-0.300115,-117.221203,-86.357178,114.358231
01377,255749,9.821477,-0.250122,1.196495,0.047207,0.038316,0.101814,-0.697800,0.220918,-0.299616,-116.435890,-86.318178,113.595812
01378,255849,10.006864,-0.324621,1.288602,0.054347,0.060025,0.107449,-0.697248,0.224519,-0.301937,-115.468226,-86.281022,112.654711
01379,255949,10.271524,-0.385823,1.319582,0.061541,0.094507,0.121305,-0.697233,0.228030,-0.302259,-114.190923,-86.243818,111.407388
01380,256049,10.577961,-0.413633,1.217573,0.056488,0.133017,0.138115,-0.696658,0.229710,-0.306181,-112.578325,-86.204532,109.821071
01381,256149,10.844382,-0.306120,0.983182,0.030990,0.170684,0.157387,-0.695642,0.230240,-0.307155,-110.654618,-86.159766,107.908218
01382,256249,10.980331,-0.088726,0.686202,-0.032181,0.187252,0.180581,-0.694092,0.230361,-0.310153,-108.618159,-86.101347,105.845937
01383,256349,11.132156,0.275754,0.601409,-0.122368,0.175570,0.191266,-0.696090,0.237818,-0.308773,-106.762864,-86.030434,103.913247
01384,256449,11.440098,0.584602,0.891997,-0.204421,0.172415,0.194893,-0.692010,0.238992,-0.313719,-105.039290,-85.953009,102.065231
01385,256549,11.985435,0.719665,1.507826,-0.241480,0.212006,0.191221,-0.692492,0.242511,-0.314041,-103.104983,-85.879159,99.984401
01386,256649,12.685292,0.845205,1.978715,-0.237907,0.301052,0.170530,-0.690424,0.248627,-0.317234,-100.586824,-85.821800,97.319967
01387,256749,13.335236,0.648004,2.731680,-0.124045,0.427601,0.142515,-0.691366,0.247791,-0.320285,-97.134628,-85.781624,93.784140
01388,256849,14.075688,-0.232101,3.200217,-0.003010,0.607282,0.135455,-0.690267,0.253496,-0.325003,-92.315757,-85.735451,88.947188
01389,256949,14.699613,-0.930032,2.813591,0.098370,0.781764,0.126886,-0.685150,0.256744,-0.331846,-86.255090,-85.659211,82.922808
01390,257049,14.751012,-1.747830,1.860285,0.170163,0.889737,0.138732,-0.679093,0.254375,-0.336469,-79.659162,-85.519175,76.402036
01391,257149,14.154424,-2.000297,0.948553,0.184374,0.920738,0.149784,-0.679443,0.259726,-0.343713,-73.340819,-85.313247,70.166445
01392,257249,13.656615,-1.735416,0.320660,0.133404,0.914724,0.156369,-0.672832,0.262950,-0.350555,-67.694508,-85.054111,64.573950
01393,257349,13.410287,-1.383735,-0.344689,0.078742,0.877929,0.165604,-0.670714,0.265723,-0.356925,-62.912007,-84.757470,59.814950
01394,257449,12.832597,-0.965764,-1.120216,0.047646,0.762872,0.174700,-0.669088,0.271991,-0.363117,-59.292753,-84.458146,56.204234
01395,257549,11.853204,-0.668007,-1.754761,0.017916,0.568881,0.157664,-0.666528,0.274611,-0.366488,-56.928554,-84.208718,53.835968
01396,257649,10.777395,-0.495687,-2.012421,0.006079,0.318531,0.111304,-0.663477,0.278195,-0.369308,-55.748739,-84.053942,52.650690
01397,257749,9.761731,-0.403257,-1.760418,0.011021,0.064623,0.052871,-0.662978,0.284142,-0.368504,-55.573188,-84.007555,52.477802
01398,257849,8.700706,-0.358351,-1.333698,0.037805,-0.151490,-0.003670,-0.663977,0.282663,-0.368580,-56.188524,-84.057593,53.115554
01399,257949,7.796768,-0.523370,-0.622654,0.081103,-0.260466,-0.045868,-0.662473,0.287622,-0.368325,-57.172053,-84.161257,54.148321
01400,258049,7.185746,-0.874131,-0.302957,0.144680,-0.282207,-0.076676,-0.662006,0.291005,-0.366148,-58.168781,-84.284676,55.230789
01401,258149,6.808076,-1.392835,-0.071288,0.203606,-0.228569,-0.085018,-0.663015,0.289004,-0.365750,-58.884045,-84.394477,56.064178
01402,258249,6.536419,-2.032343,-0.092823,0.268137,-0.121390,-0.056562,-0.665976,0.289124,-0.367251,-59.132681,-84.457947,56.465843
01403,258349,6.693716,-2.544704,-0.240425,0.312423,-0.005270,-0.010895,-0.663500,0.291527,-0.366123,-58.910856,-84.464679,56.420431
01404,258449,7.290017,-2.715496,-0.360487,0.349887,0.080884,0.036849,-0.661960,0.291126,-0.368647,-58.381889,-84.422287,56.088126
01405,258549,7.907379,-2.583221,-0.440466,0.368070,0.112037,0.063721,-0.663429,0.289727,-0.370224,-57.780188,-84.357040,55.693297
01406,258649,8.579329,-2.198234,-0.415313,0.363480,0.080965,0.087996,-0.662939,0.290193,-0.369698,-57.418866,-84.289257,55.537443
01407,258749,9.463241,-1.652555,-0.321846,0.351917,0.037472,0.111194,-0.662385,0.290330,-0.372697,-57.349572,-84.223672,55.668482
01408,258849,10.405389,-0.954379,-0.241167,0.324983,0.017638,0.129220,-0.661337,0.293424,-0.375043,-57.443675,-84.155559,55.948291
01409,258949,11.045212,-0.191212,-0.378772,0.284114,0.012233,0.133026,-0.663862,0.294862,-0.372968,-57.593921,-84.087304,56.261021
01410,259049,11.116190,0.466134,-0.578161,0.214862,-0.000917,0.108263,-0.662848,0.294396,-0.373993,-57.767608,-84.035101,56.557415
01411,259149,10.547724,0.867481,-0.573936,0.103329,-0.023174,0.048731,-0.662337,0.296405,-0.374391,-57.932133,-84.018607,56.780299
01412,259249,9.926695,0.843467,-0.183491,-0.023102,-0.059932,-0.019416,-0.661849,0.295875,-0.373917,-58.142296,-84.046429,56.976169
01413,259349,9.423041,0.515995,0.304054,-0.116814,-0.097607,-0.074605,-0.663353,0.300833,-0.372663,-58.425910,-84.112493,57.191835
01414,259449,9.091157,0.135705,0.835803,-0.164860,-0.128505,-0.102881,-0.661353,0.300327,-0.373188,-58.809137,-84.201524,57.479900
01415,259549,8.744176,-0.165126,1.199498,-0.173999,-0.143319,-0.117692,-0.660906,0.302665,-0.370062,-59.237726,-84.302014,57.808225
01416,259649,8.558052,-0.389705,1.441775,-0.152255,-0.148666,-0.135288,-0.662870,0.302770,-0.371562,-59.642403,-84.412508,58.124970
01417,259749,8.436258,-0.604378,1.482949,-0.120040,-0.121136,-0.145553,-0.660930,0.304586,-0.368461,-59.870190,-84.519962,58.282483
01418,259849,8.141188,-0.894087,1.347469,-0.096801,-0.071947,-0.156935,-0.662374,0.306724,-0.370859,-59.798820,-84.618857,58.152856
01419,259949,7.902260,-1.133260,1.102915,-0.081303,-0.014636,-0.164261,-0.662384,0.306699,-0.370359,-59.386617,-84.704679,57.689881
01420,260049,7.843548,-1.256683,0.902190,-0.072679,0.037124,-0.165601,-0.659435,0.305061,-0.368435,-58.673636,-84.775452,56.929917
01421,260149,7.768983,-1.241356,0.714701,-0.061605,0.058051,-0.159723,-0.661400,0.304666,-0.369961,-57.842353,-84.836093,56.057652
01422,260249,7.858670,-1.176567,0.627030,-0.059887,0.022076,-0.153114,-0.660388,0.303702,-0.371011,-57.207740,-84.903581,55.383962
01423,260349,8.103991,-1.128649,0.615217,-0.066515,-0.044068,-0.141294,-0.658394,0.304169,-0.370985,-56.963134,-84.985505,55.098102
01424,260449,8.443906,-1.043109,0.692165,-0.065562,-0.098891,-0.132798,-0.655911,0.305102,-0.370433,-57.045909,-85.080412,55.141473
01425,260549,8.889759,-0.965879,0.801763,-0.078462,-0.120394,-0.128655,-0.660877,0.303236,-0.371536,-57.277254,-85.179994,55.326551
01426,260649,9.025903,-1.019961,0.875101,-0.093758,-0.111607,-0.128123,-0.656396,0.307127,-0.370831,-57.477471,-85.276538,55.471595
01427,260749,8.822187,-1.204224,1.030843,-0.109170,-0.145104,-0.118860,-0.657880,0.307673,-0.371307,-57.930181,-85.378763,55.861125
01428,260849,8.698243,-1.373124,1.127518,-0.135993,-0.206274,-0.103812,-0.660929,0.305583,-0.368410,-58.853925,-85.491599,56.707752
01429,260949,8.616228,-1.484693,1.329182,-0.150128,-0.247838,-0.087630,-0.659440,0.307528,-0.367808,-60.160280,-85.607162,57.929932
01430,261049,8.566657,-1.538462,1.551810,-0.139905,-0.251894,-0.071948,-0.661984,0.308917,-0.364734,-61.613275,-85.713645,59.304910
01431,261149,8.484470,-1.535539,1.665512,-0.098156,-0.215837,-0.056776,-0.657467,0.306950,-0.366833,-62.916262,-85.800236,60.553322
01432,261249,8.368148,-1.484870,1.628137,-0.042878,-0.171758,-0.055262,-0.659459,0.307480,-0.366809,-63.930708,-85.872823,61.544101
01433,261349,8.312665,-1.426298,1.548092,0.003024,-0.129770,-0.058374,-0.658476,0.310405,-0.365656,-64.637243,-85.935449,62.252500
01434,261449,8.410488,-1.345870,1.478431,0.033389,-0.093715,-0.061242,-0.660462,0.308966,-0.366233,-65.071032,-85.990248,62.704899
01435,261549,8.645255,-1.206517,1.454276,0.049984,-0.058829,-0.063441,-0.662380,0.309190,-0.370232,-65.237681,-86.037600,62.899041
01436,261649,8.995104,-1.040792,1.431501,0.060371,-0.018520,-0.063697,-0.662445,0.309022,-0.366733,-65.095986,-86.075370,62.790081
01437,261749,9.460941,-0.962952,1.389713,0.080696,0.025672,-0.072134,-0.661951,0.306523,-0.366860,-64.573292,-86.106696,62.310926
01438,261849,9.901608,-1.058483,1.371141,0.106373,0.065931,-0.077394,-0.661832,0.305341,-0.373434,-63.701940,-86.130264,61.497090
01439,261949,10.328407,-1.204260,1.374100,0.132410,0.095630,-0.086850,-0.661851,0.305293,-0.372434,-62.544138,-86.149981,60.411150
01440,262049,10.782852,-1.279244,1.371841,0.148150,0.110807,-0.097022,-0.660290,0.306434,-0.375882,-61.210906,-86.169132,59.158472
01441,262149,11.165488,-1.379760,1.437280,0.153053,0.115713,-0.104290,-0.660804,0.302931,-0.375560,-59.795108,-86.188489,57.825915
01442,262249,11.377926,-1.514564,1.493505,0.152249,0.108697,-0.105847,-0.661742,0.304087,-0.378508,-58.411613,-86.208480,56.525333
01443,262349,11.409320,-1.641588,1.508463,0.165665,0.103998,-0.103894,-0.658670,0.304257,-0.383005,-57.050923,-86.226867,55.255375
01444,262449,11.383466,-1.766777,1.564631,0.195065,0.111910,-0.103029,-0.661160,0.299338,-0.383760,-55.608967,-86.240245,53.920922
01445,262549,11.515324,-1.811933,1.807982,0.237070,0.145203,-0.104347,-0.660661,0.299828,-0.383734,-53.892080,-86.240775,52.335116
01446,262649,11.853283,-1.743784,2.294370,0.263988,0.206136,-0.105554,-0.663032,0.299184,-0.390284,-51.737065,-86.217204,50.325703
01447,262749,12.240416,-1.532681,2.950255,0.261728,0.276501,-0.110994,-0.660996,0.297280,-0.392883,-49.123001,-86.164828,47.854860
01448,262849,12.476979,-1.164153,3.613361,0.220286,0.323219,-0.126603,-0.662418,0.296500,-0.396933,-46.230208,-86.093169,45.080676
01449,262949,12.698050,-0.638153,4.080607,0.144125,0.383828,-0.152807,-0.659897,0.298028,-0.398356,-42.990808,-85.997371,41.915020
01450,263049,12.839273,-0.035892,4.116223,0.064582,0.467281,-0.169403,-0.661295,0.294828,-0.404032,-39.429094,-85.859038,38.380047
01451,263149,12.950356,0.441900,3.630286,0.004018,0.588916,-0.186518,-0.663243,0.293984,-0.406582,-35.496305,-85.655195,34.437364
01452,263249,13.060031,0.795251,2.718123,-0.026172,0.721728,-0.213563,-0.659173,0.294636,-0.411054,-31.287161,-85.376117,30.198803
01453,263349,13.105681,0.972940,1.556999,-0.055018,0.867383,-0.217061,-0.656496,0.295078,-0.421049,-27.129729,-85.001753,25.993535
01454,263449,12.991192,0.739533,0.436001,-0.058263,0.980529,-0.199125,-0.654412,0.294789,-0.426072,-23.399926,-84.541104,22.213089
01455,263549,12.455595,-0.057612,-1.074226,-0.029764,0.963710,-0.170927,-0.652290,0.294596,-0.433094,-20.427936,-84.064228,19.207663
01456,263649,11.087458,-0.964363,-3.065239,0.016157,0.721003,-0.198473,-0.650711,0.295288,-0.437567,-18.132358,-83.710879,16.906759
01457,263749,9.142088,-1.147155,-4.553166,-0.066231,0.320799,-0.182898,-0.645651,0.297892,-0.441436,-16.770822,-83.566223,15.497146
01458,263849,8.205592,-0.782884,-4.514397,-0.198383,-0.112691,-0.116810,-0.649626,0.298478,-0.441912,-16.469706,-83.646688,15.078362
01459,263949,7.864262,0.215248,-3.587262,-0.284626,-0.410185,-0.086139,-0.654707,0.299289,-0.436365,-16.808933,-83.885622,15.254166
01460,264049,7.928893,1.265876,-2.469559,-0.287227,-0.564511,-0.099783,-0.656753,0.300670,-0.433290,-17.353083,-84.211367,15.634382
01461,264149,8.248071,1.854187,-1.119848,-0.213430,-0.624067,-0.134981,-0.658273,0.301618,-0.431741,-17.816276,-84.575484,15.975448
01462,264249,9.093914,1.802847,0.320233,-0.147426,-0.568681,-0.145783,-0.659379,0.302342,-0.425692,-18.119849,-84.911161,16.193933
01463,264349,10.382552,1.254945,1.324776,-0.140943,-0.380821,-0.122981,-0.661891,0.301337,-0.424745,-18.201747,-85.140459,16.193488
01464,264449,11.284936,0.590915,1.541835,-0.149001,-0.140237,-0.101036,-0.660941,0.301200,-0.422245,-17.917595,-85.234831,15.821036
01465,264549,11.696172,0.147784,1.223327,-0.129816,0.073428,-0.097115,-0.663391,0.303329,-0.424143,-17.193484,-85.211557,15.018132
01466,264649,11.779074,-0.449011,0.707363,-0.117055,0.245333,-0.080142,-0.659386,0.303812,-0.425117,-16.254116,-85.090222,14.006469
01467,264749,11.360326,-1.158797,-0.073788,-0.173025,0.320876,-0.035443,-0.658358,0.306360,-0.426489,-15.543415,-84.919078,13.191978
01468,264849,10.525349,-1.736698,-1.047241,-0.292437,0.245342,0.030497,-0.659329,0.309911,-0.427311,-15.472005,-84.779131,12.950551
01469,264949,9.708704,-1.884521,-1.575059,-0.428921,0.057191,0.092535,-0.657344,0.310852,-0.426759,-16.168753,-84.733413,13.402026
01470,265049,9.203500,-1.583263,-1.195046,-0.498376,-0.121026,0.137468,-0.659854,0.315802,-0.425007,-17.487870,-84.777330,14.438591
01471,265149,8.758339,-1.158973,-0.487345,-0.468528,-0.213938,0.158393,-0.660869,0.320727,-0.423254,-19.126107,-84.865613,15.812691
01472,265249,8.381502,-0.671951,0.160193,-0.349734,-0.245511,0.153232,-0.658956,0.322970,-0.418628,-20.788706,-84.968336,17.279399
01473,265349,8.090038,-0.313794,0.712058,-0.191191,-0.250631,0.134930,-0.661948,0.326481,-0.417951,-22.324087,-85.073996,18.709362
01474,265449,7.846402,-0.061851,1.124905,-0.051606,-0.239727,0.114556,-0.662950,0.328466,-0.417350,-23.686085,-85.175309,20.045351
01475,265549,7.638130,0.088421,1.367969,0.054877,-0.225984,0.093443,-0.664996,0.329848,-0.414276,-24.870497,-85.271878,21.264151
01476,265649,7.489459,0.245659,1.389957,0.114354,-0.197914,0.082474,-0.666508,0.330321,-0.413251,-25.913210,-85.354631,22.374793
01477,265749,7.332824,0.383457,1.310719,0.133565,-0.160437,0.076875,-0.667060,0.331181,-0.410202,-26.825757,-85.418023,23.365754
01478,265849,7.309542,0.434016,1.233055,0.115236,-0.130264,0.080861,-0.670034,0.328786,-0.411329,-27.698804,-85.463769,24.306457
01479,265949,7.359630,0.267731,1.101288,0.061482,-0.103460,0.093481,-0.670549,0.329742,-0.410279,-28.607967,-85.491410,25.252429
01480,266049,7.435439,-0.032421,0.855058,0.021856,-0.069999,0.107269,-0.671506,0.331349,-0.412202,-29.518239,-85.497284,26.176714
01481,266149,7.486848,-0.273405,0.650830,-0.003712,-0.043475,0.119226,-0.668043,0.328256,-0.411354,-30.422722,-85.485437,27.080506
01482,266249,7.443613,-0.452209,0.349132,0.009346,-0.044497,0.135609,-0.672543,0.329275,-0.410305,-31.420057,-85.468112,28.084974
01483,266349,7.332845,-0.545395,0.296417,0.035991,-0.102546,0.148447,-0.672582,0.328182,-0.408356,-32.698130,-85.473520,29.386397
01484,266449,7.351205,-0.643244,0.352922,0.077401,-0.195243,0.158363,-0.676527,0.329837,-0.410281,-34.393954,-85.517404,31.130637
01485,266549,7.662279,-0.673956,0.367165,0.130915,-0.282926,0.168661,-0.675097,0.330143,-0.406756,-36.538006,-85.594191,33.355082
01486,266649,8.040473,-0.533642,0.601393,0.193615,-0.325431,0.182411,-0.679142,0.327570,-0.403886,-39.003196,-85.678429,35.937394
01487,266749,8.199467,-0.243875,0.700799,0.247047,-0.327885,0.188512,-0.679662,0.326035,-0.402962,-41.580325,-85.752769,38.662388
01488,266849,8.284015,0.109308,0.798333,0.276311,-0.340609,0.181389,-0.681165,0.326035,-0.402463,-44.258557,-85.825839,41.505298
01489,266949,8.482890,0.319234,1.109268,0.268989,-0.358666,0.165716,-0.683196,0.325472,-0.400490,-47.052720,-85.902540,44.459941
01490,267049,8.800214,0.519520,1.447249,0.241084,-0.357462,0.152001,-0.686721,0.324933,-0.398517,-49.885170,-85.974135,47.436635
01491,267149,9.132720,0.664850,1.773947,0.205623,-0.329912,0.136249,-0.686817,0.322699,-0.393621,-52.574625,-86.032661,50.249343
01492,267249,9.285159,0.792548,1.964783,0.171212,-0.282125,0.121355,-0.690740,0.321436,-0.397197,-54.959941,-86.073167,52.737216
01493,267349,9.300166,0.760920,1.982822,0.143012,-0.220392,0.115583,-0.689827,0.321204,-0.392698,-56.944768,-86.090067,54.807342
01494,267449,9.286650,0.567565,1.854202,0.114612,-0.152481,0.118000,-0.696316,0.319289,-0.392302,-58.484001,-86.080673,56.414478
01495,267549,9.412819,0.351291,1.827558,0.090552,-0.076977,0.123752,-0.693799,0.318326,-0.393852,-59.509618,-86.043733,57.492984
01496,267649,9.609753,0.071948,1.748175,0.075223,-0.006597,0.132293,-0.694364,0.317168,-0.390404,-60.058286,-85.981266,58.084625
01497,267749,9.824486,-0.083438,1.615239,0.068845,0.040353,0.136846,-0.695841,0.316742,-0.391429,-60.283476,-85.902887,58.348351
01498,267849,9.976372,-0.167902,1.515440,0.065736,0.051461,0.132844,-0.697242,0.317007,-0.396427,-60.409739,-85.823302,58.511122
01499,267949,10.143169,-0.228075,1.472074,0.066488,0.043424,0.133107,-0.697835,0.315778,-0.391481,-60.584922,-85.745829,58.723386
01500,268049,10.401458,-0.269688,1.484552,0.062597,0.045112,0.133855,-0.696775,0.314934,-0.395030,-60.746854,-85.667468,58.920139
01501,268149,10.682712,-0.279599,1.473805,0.048808,0.066307,0.140961,-0.697746,0.314025,-0.396580,-60.798399,-85.579603,58.998273
01502,268249,10.931798,-0.226558,1.373401,0.005360,0.095245,0.152263,-0.700748,0.316515,-0.395455,-60.728649,-85.478000,58.929773
01503,268349,11.121880,-0.049774,1.243118,-0.076991,0.121485,0.161693,-0.700232,0.316556,-0.396454,-60.579418,-85.364324,58.734177
01504,268449,11.251109,0.335572,1.147785,-0.183235,0.123397,0.160908,-0.700706,0.319103,-0.397327,-60.484257,-85.250492,58.531698
01505,268549,11.480369,0.746030,1.300317,-0.295830,0.107489,0.142617,-0.701201,0.316146,-0.397979,-60.491849,-85.150293,58.367524
01506,268649,11.980125,0.888890,1.923832,-0.373449,0.129838,0.112160,-0.699687,0.316668,-0.398953,-60.317726,-85.058955,57.976264
01507,268749,12.638347,0.620380,2.925869,-0.359882,0.205878,0.084608,-0.700705,0.320099,-0.397276,-59.628168,-84.959249,57.075310
01508,268849,13.349950,0.102243,3.916920,-0.253570,0.339129,0.065473,-0.698678,0.318171,-0.399376,-58.124005,-84.827968,55.417468
01509,268949,14.037212,-0.602286,4.531271,-0.100966,0.545387,0.052219,-0.696591,0.319377,-0.404323,-55.517470,-84.633098,52.739941
01510,269049,14.587657,-1.721288,4.435706,0.037734,0.806431,0.066733,-0.695433,0.321764,-0.412717,-51.868987,-84.329695,49.094387
01511,269149,14.498268,-2.547838,3.410448,0.122996,1.030087,0.109745,-0.692302,0.323572,-0.420137,-47.807848,-83.901775,45.080844
01512,269249,13.760884,-2.704595,1.806465,0.133151,1.123712,0.151387,-0.686731,0.322730,-0.425184,-44.109027,-83.392532,41.434255
01513,269349,13.271529,-2.460627,0.311502,0.086721,1.085046,0.176810,-0.684096,0.326041,-0.432528,-41.176203,-82.867325,38.528637
01514,269449,13.234399,-2.357770,-1.006424,0.046656,0.955569,0.213240,-0.682457,0.328869,-0.439898,-39.139500,-82.370899,36.500280
01515,269549,12.731391,-1.915195,-2.235525,0.066639,0.720700,0.234227,-0.680849,0.330629,-0.445819,-37.988578,-81.965257,35.375501
01516,269649,11.709789,-1.304829,-3.304894,0.102164,0.339882,0.204737,-0.678802,0.334704,-0.448114,-37.738613,-81.740497,35.180589
01517,269749,10.783926,-1.274000,-3.405841,0.119289,-0.083226,0.161711,-0.681298,0.337210,-0.447488,-38.371852,-81.721991,35.888046
01518,269849,10.125483,-1.135913,-2.780987,0.131736,-0.436274,0.088824,-0.679822,0.337138,-0.446488,-39.661384,-81.885312,37.265669
01519,269949,9.309102,-1.156924,-1.948439,0.112523,-0.634847,0.043852,-0.685383,0.338503,-0.441915,-41.417265,-82.146632,39.102381
01520,270049,8.330064,-1.299111,-1.480520,0.106565,-0.759272,0.022346,-0.690474,0.339290,-0.435869,-43.600407,-82.459965,41.365545
01521,270149,7.784749,-1.373516,-0.712560,0.105633,-0.811011,0.007883,-0.693020,0.339683,-0.432845,-46.096055,-82.787557,43.941630
01522,270249,7.621803,-1.716510,0.061793,0.170353,-0.721218,0.003119,-0.695083,0.341515,-0.428746,-48.455791,-83.067919,46.416430
01523,270349,7.722460,-1.931731,0.703705,0.303315,-0.527815,-0.004374,-0.700605,0.343475,-0.426147,-50.183807,-83.268199,48.330495
01524,270449,8.139667,-1.839150,0.981096,0.426346,-0.258917,-0.004151,-0.702118,0.338492,-0.425901,-50.905715,-83.365515,49.301989
01525,270549,8.501654,-1.564828,0.815688,0.472222,-0.040196,-0.003338,-0.703080,0.336611,-0.428003,-50.780241,-83.382730,49.446774
01526,270649,8.838620,-1.338202,0.647536,0.453595,0.076708,-0.016760,-0.703053,0.336185,-0.429527,-50.177765,-83.363354,49.100620
01527,270749,9.326577,-1.015770,0.491490,0.421413,0.115891,-0.020328,-0.706530,0.331805,-0.430757,-49.438816,-83.330589,48.598494
01528,270849,9.731104,-0.444696,0.159479,0.377981,0.127394,-0.010210,-0.707522,0.333813,-0.430655,-48.721129,-83.288411,48.092673
01529,270949,9.961854,0.216921,-0.308424,0.318123,0.115592,-0.002340,-0.707988,0.330928,-0.432807,-48.113257,-83.246713,47.662827
01530,271049,9.899253,0.858427,-0.736573,0.225262,0.085236,-0.006591,-0.708431,0.330582,-0.435832,-47.659008,-83.218079,47.334031
01531,271149,9.567867,1.280996,-0.830853,0.084100,0.038419,-0.035527,-0.711912,0.329167,-0.436408,-47.359936,-83.219604,47.079996
01532,271249,9.188776,1.320038,-0.580196,-0.071169,-0.028983,-0.086920,-0.711923,0.328146,-0.435960,-47.219611,-83.268907,46.896196
01533,271349,8.890912,0.965556,-0.086705,-0.179099,-0.091196,-0.137647,-0.713964,0.327061,-0.433512,-47.193082,-83.363769,46.764693
01534,271449,8.767389,0.427790,0.440155,-0.237237,-0.139977,-0.169897,-0.714472,0.326547,-0.433038,-47.267018,-83.491208,46.700790
01535,271549,8.734562,-0.105274,0.919041,-0.257167,-0.159524,-0.181022,-0.714987,0.327503,-0.431987,-47.387542,-83.630945,46.672280
01536,271649,8.603046,-0.525250,1.129924,-0.236959,-0.138020,-0.185029,-0.717512,0.328941,-0.429913,-47.401118,-83.764031,46.547824
01537,271749,8.554008,-0.841847,1.043628,-0.224446,-0.110092,-0.191049,-0.717010,0.325968,-0.430565,-47.273329,-83.888787,46.288425
01538,271849,8.381930,-1.113729,0.795135,-0.242701,-0.110352,-0.185039,-0.720048,0.324400,-0.428143,-47.171555,-84.011046,46.044741
01539,271949,7.883716,-1.302657,0.540228,-0.263121,-0.142200,-0.175245,-0.722545,0.325910,-0.427568,-47.241950,-84.141562,45.962467
01540,272049,7.752584,-1.313015,0.513156,-0.278164,-0.157238,-0.165117,-0.723069,0.321884,-0.426772,-47.423360,-84.273653,45.983155
01541,272149,7.867837,-1.241600,0.647885,-0.274508,-0.128080,-0.142631,-0.722599,0.321804,-0.425272,-47.570743,-84.384936,45.971768
01542,272249,7.887170,-1.176794,0.662220,-0.263797,-0.087375,-0.110033,-0.727576,0.324374,-0.425147,-47.666850,-84.466689,45.915048
01543,272349,7.993876,-1.098959,0.679305,-0.253689,-0.085656,-0.083152,-0.728584,0.322373,-0.424749,-47.858633,-84.536376,45.960286
01544,272449,8.301473,-0.936963,0.900190,-0.241699,-0.101534,-0.067498,-0.728604,0.321826,-0.423774,-48.181759,-84.605449,46.144364
01545,272549,8.622754,-0.881403,1.129645,-0.227151,-0.115290,-0.062644,-0.731622,0.320805,-0.422327,-48.586158,-84.677552,46.418429
01546,272649,8.905815,-0.893501,1.279111,-0.217582,-0.115599,-0.065811,-0.730639,0.318773,-0.421928,-48.982779,-84.750941,46.690162
01547,272749,9.096196,-1.008141,1.307859,-0.216380,-0.108833,-0.071582,-0.734179,0.320178,-0.418854,-49.331905,-84.824114,46.914872
01548,272849,9.113547,-1.217673,1.357032,-0.217645,-0.104567,-0.073380,-0.733653,0.320242,-0.420353,-49.661678,-84.896338,47.119409
01549,272949,9.076020,-1.380642,1.385333,-0.216179,-0.101284,-0.067725,-0.737200,0.317662,-0.417483,-50.005639,-84.964737,47.339031
01550,273049,8.923571,-1.570080,1.516576,-0.203200,-0.096201,-0.056179,-0.736232,0.317574,-0.415983,-50.372750,-85.026035,47.589357
01551,273149,8.684924,-1.621543,1.499888,-0.175016,-0.095864,-0.049682,-0.737206,0.319631,-0.416881,-50.757070,-85.084156,47.873167
01552,273249,8.401051,-1.713882,1.473566,-0.143162,-0.103270,-0.044805,-0.739737,0.318079,-0.414959,-51.190614,-85.142566,48.224703
01553,273349,8.205383,-1.665264,1.468679,-0.115513,-0.111906,-0.041237,-0.743225,0.317138,-0.415011,-51.679166,-85.202185,48.647336
01554,273449,8.169583,-1.586385,1.494666,-0.095798,-0.104361,-0.036346,-0.742700,0.316704,-0.416536,-52.147431,-85.256597,49.060937
01555,273549,8.234194,-1.417801,1.538311,-0.073043,-0.073599,-0.028948,-0.745219,0.316173,-0.415062,-52.473918,-85.296609,49.345350
01556,273649,8.486146,-1.258953,1.542136,-0.057481,-0.044359,-0.023339,-0.747730,0.315666,-0.414089,-52.657306,-85.323754,49.495131
01557,273749,8.965120,-1.130647,1.554535,-0.051666,-0.028498,-0.016259,-0.749187,0.315288,-0.416114,-52.780432,-85.342112,49.587797
01558,273849,9.508539,-1.085990,1.657290,-0.045756,-0.017316,-0.013131,-0.748274,0.310596,-0.412344,-52.851323,-85.355134,49.631459
01559,273949,9.935435,-1.131087,1.740755,-0.024214,-0.019535,-0.017689,-0.751712,0.311768,-0.414793,-52.903115,-85.370981,49.668349
01560,274049,10.356870,-1.144782,1.801297,0.006461,-0.018609,-0.029421,-0.754187,0.310361,-0.415870,-52.881948,-85.391844,49.649682
01561,274149,10.727884,-1.220470,1.783097,0.037921,-0.013977,-0.042262,-0.753668,0.311398,-0.416819,-52.760592,-85.416940,49.548595
01562,274249,10.912710,-1.460826,1.573849,0.065477,0.005309,-0.056111,-0.755105,0.307604,-0.420521,-52.451612,-85.441572,49.275144
01563,274349,10.949280,-1.775854,1.361860,0.098167,0.005957,-0.064460,-0.758654,0.308986,-0.416947,-52.080071,-85.469600,48.957761
01564,274449,11.018604,-2.117745,1.371240,0.153458,0.005930,-0.066753,-0.758622,0.306093,-0.419099,-51.662512,-85.498459,48.626044
01565,274549,11.303956,-2.410069,1.580982,0.205622,0.039282,-0.070166,-0.761047,0.306301,-0.422598,-51.004687,-85.516614,48.083356
01566,274649,11.834249,-2.318433,2.151970,0.234745,0.090065,-0.078353,-0.761569,0.303271,-0.421751,-50.001210,-85.519214,47.210737
01567,274749,12.389666,-1.975168,3.146532,0.219839,0.147693,-0.089657,-0.762996,0.299501,-0.425953,-48.634056,-85.503739,45.964770
01568,274849,12.843725,-1.541799,4.296563,0.173129,0.193183,-0.114926,-0.763496,0.298513,-0.426004,-46.936194,-85.478814,44.360191
01569,274949,13.364619,-0.900439,5.259636,0.113789,0.276308,-0.148423,-0.762963,0.297107,-0.428080,-44.698210,-85.430079,42.179577
01570,275049,13.788404,-0.124675,5.454205,0.067427,0.460813,-0.172870,-0.765783,0.298584,-0.437026,-41.538951,-85.305590,39.047712
01571,275149,13.985402,0.334109,4.706536,0.051816,0.728256,-0.192237,-0.763203,0.296793,-0.442125,-37.354085,-85.053732,34.876734
01572,275249,13.895135,0.510753,3.070506,0.051801,0.962671,-0.230324,-0.763989,0.294871,-0.453748,-32.597836,-84.677625,30.130046
01573,275349,13.638591,0.679064,1.174571,0.006698,1.106271,-0.238771,-0.760376,0.292662,-0.460871,-28.088337,-84.199864,25.601969
01574,275449,13.386404,0.451299,-0.413366,-0.019676,1.144210,-0.235004,-0.755246,0.292968,-0.468866,-24.237245,-83.671056,21.716728
01575,275549,12.860957,-0.099280,-1.940324,-0.053930,1.061200,-0.216068,-0.752115,0.294776,-0.476286,-21.239904,-83.158554,18.667219
01576,275649,11.385551,-0.644226,-3.574630,-0.105019,0.820793,-0.202390,-0.752430,0.293273,-0.486384,-19.103423,-82.757708,16.452719
01577,275749,9.468855,-0.893995,-4.856163,-0.188824,0.381888,-0.196483,-0.748913,0.289826,-0.488560,-17.840214,-82.586618,15.068904
01578,275849,8.500376,-0.839859,-4.761720,-0.307702,-0.133208,-0.123692,-0.749921,0.293282,-0.487383,-17.672989,-82.681820,14.721435
01579,275949,8.079281,0.017570,-3.544604,-0.409267,-0.525695,-0.069553,-0.752996,0.297074,-0.482183,-18.345334,-82.981589,15.161664
01580,276049,8.318314,1.308807,-2.180965,-0.354288,-0.703888,-0.069691,-0.754070,0.295403,-0.478261,-19.319406,-83.377282,15.937140
01581,276149,8.823943,2.353628,-0.912884,-0.123101,-0.724842,-0.112246,-0.760652,0.297708,-0.472138,-20.095001,-83.791111,16.645483
01582,276249,9.653366,2.618838,0.305880,0.137539,-0.622132,-0.170457,-0.761799,0.296342,-0.464192,-20.311361,-84.160566,16.941048
01583,276349,10.756964,1.895309,1.198612,0.257963,-0.435640,-0.193393,-0.766219,0.290627,-0.468497,-19.978934,-84.434283,16.754206
01584,276449,11.642605,0.680128,1.518579,0.228989,-0.240702,-0.183909,-0.763796,0.288924,-0.465074,-19.292181,-84.600808,16.194773
01585,276549,12.063507,-0.291052,1.197554,0.146223,-0.076134,-0.163489,-0.766773,0.290490,-0.465498,-18.409510,-84.673576,15.391039
01586,276649,11.842735,-0.916225,0.487928,0.052986,0.044568,-0.129993,-0.762795,0.286441,-0.465700,-17.530091,-84.673487,14.536988
01587,276749,11.298761,-1.337817,-0.314706,-0.082741,0.079252,-0.063566,-0.766749,0.288071,-0.467124,-17.056948,-84.642197,14.012896
01588,276849,10.586563,-1.740916,-0.704665,-0.255829,0.058349,0.044551,-0.764705,0.291149,-0.469471,-17.353862,-84.603976,14.162675
01589,276949,9.698898,-2.002378,-0.559174,-0.392446,-0.004532,0.137702,-0.765245,0.293528,-0.466845,-18.377830,-84.583531,14.964196
01590,277049,8.994382,-2.045946,-0.194979,-0.455581,-0.092022,0.201310,-0.764770,0.295939,-0.465218,-19.970327,-84.596754,16.300513
01591,277149,8.440377,-1.810218,0.252455,-0.442192,-0.150424,0.235688,-0.765807,0.299322,-0.462542,-21.887081,-84.630335,17.970224
01592,277249,7.996111,-1.394504,0.622839,-0.334941,-0.165481,0.239301,-0.768825,0.303757,-0.460315,-23.820749,-84.665773,19.718578
01593,277349,7.726760,-0.948006,0.758106,-0.192839,-0.139706,0.216556,-0.766817,0.307237,-0.460636,-25.500526,-84.688062,21.293647
01594,277449,7.357925,-0.550772,0.724447,-0.047735,-0.123803,0.177912,-0.768329,0.307711,-0.459611,-26.851858,-84.708069,22.622307
01595,277549,6.918886,-0.129721,0.832229,0.074213,-0.127698,0.132415,-0.770324,0.306248,-0.459688,-27.904399,-84.739466,23.721009
01596,277649,6.759255,0.044722,0.893917,0.138862,-0.159301,0.121770,-0.773788,0.308842,-0.460562,-28.969827,-84.787822,24.869768
01597,277749,6.715103,0.433981,0.861775,0.159201,-0.173073,0.119078,-0.773353,0.309662,-0.457012,-30.072615,-84.841820,26.067623
01598,277849,7.114127,0.537893,0.780486,0.139809,-0.169060,0.132663,-0.771367,0.306143,-0.457190,-31.271157,-84.887697,27.350344
01599,277949,6.970226,0.200206,0.851958,0.116182,-0.151586,0.158267,-0.775379,0.306632,-0.455666,-32.583390,-84.914798,28.733525
01600,278049,7.511837,0.167976,0.767691,0.099930,-0.159074,0.180440,-0.771404,0.306047,-0.455190,-34.064396,-84.935510,30.276728
01601,278149,7.928932,-0.109856,0.917936,0.102523,-0.133370,0.180569,-0.775426,0.306014,-0.453192,-35.458999,-84.940650,31.734640
01602,278249,7.983066,-0.306431,0.789269,0.140581,-0.127577,0.179654,-0.776857,0.305210,-0.456742,-36.806524,-84.940341,33.167172
01603,278349,8.148773,-0.414058,0.799757,0.166968,-0.148267,0.176574,-0.777898,0.306600,-0.454167,-38.205140,-84.947486,34.666163
01604,278449,8.435706,-0.409920,0.812583,0.198228,-0.165154,0.172276,-0.780887,0.306149,-0.454194,-39.637490,-84.960442,36.216973
01605,278549,8.665053,-0.272280,0.776083,0.226777,-0.197420,0.167798,-0.780870,0.305201,-0.455244,-41.176626,-84.985604,37.891351
01606,278649,8.826724,-0.191105,0.765702,0.264276,-0.233109,0.169137,-0.778896,0.305121,-0.454244,-42.874974,-85.021298,39.747027
01607,278749,8.694414,-0.059415,0.823063,0.285918,-0.254673,0.166371,-0.784423,0.304589,-0.451772,-44.672131,-85.062074,41.714208
01608,278849,8.419877,0.170977,0.920156,0.298572,-0.273821,0.156217,-0.783439,0.303055,-0.451348,-46.537429,-85.109241,43.756909
01609,278949,8.202103,0.424426,1.030802,0.297748,-0.296741,0.138933,-0.786509,0.304380,-0.446775,-48.477400,-85.166764,45.873891
01610,279049,8.194516,0.637328,1.290683,0.281156,-0.315094,0.119406,-0.784989,0.302934,-0.448350,-50.484859,-85.233429,48.048832
01611,279149,8.306679,0.708490,1.571502,0.261412,-0.306759,0.105312,-0.788955,0.303045,-0.449351,-52.453882,-85.297098,50.173610
01612,279249,8.342301,0.660859,1.867531,0.242360,-0.285827,0.093854,-0.789962,0.302539,-0.448877,-54.319740,-85.352991,52.183709
01613,279349,8.408230,0.497882,2.130613,0.217372,-0.242981,0.091040,-0.790012,0.300425,-0.446479,-55.979832,-85.391118,53.972838
01614,279449,8.529053,0.286292,2.304082,0.197454,-0.176921,0.095294,-0.790511,0.299935,-0.446505,-57.296153,-85.402631,55.405544
01615,279549,8.750114,0.113240,2.254579,0.178463,-0.089537,0.103883,-0.793001,0.299975,-0.446506,-58.131213,-85.381080,56.344502
01616,279649,8.996776,-0.074639,1.970476,0.156809,-0.010128,0.118274,-0.788995,0.301454,-0.447428,-58.544500,-85.327809,56.847882
01617,279749,9.191407,-0.169307,1.698916,0.132171,0.042065,0.128026,-0.792967,0.298576,-0.448581,-58.687103,-85.253998,57.065530
01618,279849,9.287289,-0.188632,1.495886,0.114322,0.054071,0.133675,-0.791466,0.297082,-0.449157,-58.784202,-85.173816,57.227266
01619,279949,9.451051,-0.231474,1.386372,0.105393,0.037653,0.135876,-0.789900,0.300714,-0.452477,-58.983482,-85.097385,57.486427
01620,280049,9.811258,-0.344985,1.406922,0.100888,0.015122,0.140560,-0.790430,0.298657,-0.451079,-59.321319,-85.025168,57.882090
01621,280149,10.367622,-0.433725,1.454019,0.090436,0.006474,0.152270,-0.787901,0.299212,-0.453052,-59.741172,-84.949457,58.354113
01622,280249,10.848476,-0.390349,1.480210,0.057361,0.008191,0.165905,-0.789840,0.297894,-0.456128,-60.200218,-84.866179,58.846506
01623,280349,11.210260,-0.207077,1.380712,-0.004944,-0.002253,0.179290,-0.787853,0.300329,-0.455501,-60.777501,-84.778792,59.421827
01624,280449,11.571818,0.153314,1.426586,-0.092608,-0.012879,0.188555,-0.790333,0.300891,-0.455976,-61.470201,-84.689142,60.062671
01625,280549,11.984845,0.565194,1.796800,-0.177798,-0.001546,0.184931,-0.788796,0.303953,-0.457822,-62.117778,-84.597597,60.609226
01626,280649,12.540039,0.669000,2.409640,-0.219106,0.065965,0.171692,-0.789773,0.304515,-0.458796,-62.375657,-84.494377,60.740579
01627,280749,13.075345,0.657248,3.039751,-0.203162,0.172036,0.144074,-0.788269,0.304515,-0.459296,-61.994822,-84.376828,60.239354
01628,280849,13.698643,-0.030955,4.057038,-0.122187,0.302701,0.116487,-0.786179,0.307216,-0.464166,-60.858635,-84.236712,59.025516
01629,280949,14.458147,-0.748486,4.654277,-0.034613,0.484767,0.106274,-0.782602,0.305907,-0.469239,-58.836296,-84.045952,56.970947
01630,281049,15.162589,-1.553073,4.376273,0.040335,0.713784,0.111735,-0.779034,0.309532,-0.473059,-55.907974,-83.772839,54.047586
01631,281149,15.357951,-2.551576,3.391056,0.101329,0.900706,0.148819,-0.776328,0.311042,-0.484503,-52.565521,-83.403233,50.740907
01632,281249,14.811440,-2.458330,1.861761,0.088803,0.990512,0.183914,-0.772175,0.311911,-0.493473,-49.379362,-82.965147,47.581749
01633,281349,14.284774,-1.843219,0.557408,0.010603,1.000572,0.182414,-0.767033,0.313238,-0.501917,-46.579466,-82.504896,44.763776
01634,281449,13.891652,-1.398975,-0.430250,-0.070446,0.964782,0.177046,-0.763432,0.314966,-0.507837,-44.241012,-82.045786,42.361647
01635,281549,12.860497,-1.214178,-1.381228,-0.116679,0.835441,0.164202,-0.761814,0.316750,-0.514258,-42.491219,-81.634465,40.524901
01636,281649,11.350382,-1.026098,-2.292795,-0.120935,0.582319,0.119406,-0.754214,0.320930,-0.520550,-41.409203,-81.341934,39.359260
01637,281749,10.011571,-0.973776,-2.804278,-0.096215,0.267818,0.050206,-0.754683,0.321509,-0.522024,-40.946428,-81.208902,38.833798
01638,281849,9.268183,-0.761863,-2.640251,-0.061213,-0.045449,-0.030757,-0.755163,0.321565,-0.523024,-41.005634,-81.241572,38.856734
01639,281949,8.656797,-0.990041,-2.111934,-0.033807,-0.218446,-0.084524,-0.756196,0.321484,-0.521025,-41.325404,-81.369163,39.159160
01640,282049,7.912210,-1.410430,-1.800998,0.007393,-0.319669,-0.109085,-0.757220,0.321926,-0.519500,-41.819607,-81.549177,39.661751
01641,282149,7.541238,-1.987641,-1.152983,0.050832,-0.390770,-0.117124,-0.757295,0.321235,-0.515527,-42.476600,-81.761732,40.353811
01642,282249,7.800142,-2.672620,-0.480266,0.096205,-0.369574,-0.094875,-0.759263,0.319346,-0.517129,-43.150251,-81.955518,41.088658
01643,282349,8.287873,-3.033944,-0.145702,0.124725,-0.298226,-0.054245,-0.762297,0.320270,-0.514580,-43.759107,-82.102416,41.774326
01644,282449,8.946558,-2.971146,0.071693,0.171418,-0.208834,-0.013647,-0.764830,0.317224,-0.512734,-44.225472,-82.195385,42.343017
01645,282549,9.407732,-2.554443,0.160944,0.210976,-0.140412,0.008292,-0.765861,0.313181,-0.511438,-44.544599,-82.250993,42.785921
01646,282649,9.846698,-1.983294,0.231391,0.231459,-0.102678,0.013412,-0.766352,0.311719,-0.512015,-44.760252,-82.288870,43.136223
01647,282749,10.285277,-1.284505,0.281429,0.254501,-0.091484,0.007143,-0.768785,0.313397,-0.514938,-44.913078,-82.324586,43.436428
01648,282849,10.603197,-0.532170,0.269111,0.247856,-0.073579,-0.014427,-0.769336,0.309797,-0.512617,-44.952633,-82.361717,43.618467
01649,282949,10.424818,0.250128,0.108005,0.228634,-0.037995,-0.058714,-0.770838,0.305337,-0.512846,-44.761679,-82.402357,43.556790
01650,283049,9.837179,0.883027,0.020568,0.179980,-0.007822,-0.123858,-0.771778,0.305497,-0.515845,-44.304901,-82.456845,43.198798
01651,283149,9.002686,1.275148,-0.039649,0.127641,-0.009536,-0.197748,-0.771802,0.302460,-0.514998,-43.644361,-82.541017,42.605049
01652,283249,8.328654,1.258574,0.113469,0.062615,-0.064439,-0.263836,-0.773821,0.297959,-0.514228,-42.958465,-82.673176,41.948266
01653,283349,7.949716,0.982769,0.389471,0.001138,-0.117492,-0.310365,-0.775311,0.295516,-0.514855,-42.289150,-82.844776,41.272880
01654,283449,7.749029,0.569756,0.708429,-0.047424,-0.149636,-0.331292,-0.775330,0.294969,-0.513880,-41.641620,-83.037117,40.591651
01655,283549,7.535390,0.082410,0.953128,-0.094937,-0.154808,-0.329286,-0.776834,0.289512,-0.514160,-41.007653,-83.229981,39.896930
01656,283649,7.396791,-0.342568,1.017004,-0.121614,-0.160431,-0.317165,-0.782360,0.289479,-0.511663,-40.414302,-83.419853,39.227986
01657,283749,7.432650,-0.735092,1.049311,-0.134410,-0.169582,-0.293862,-0.779875,0.286450,-0.511815,-39.912511,-83.604359,38.644071
01658,283849,7.679130,-1.102751,0.972279,-0.138154,-0.178267,-0.260288,-0.784408,0.284408,-0.509419,-39.546263,-83.779876,38.194588
01659,283949,7.627961,-1.430995,0.995615,-0.134283,-0.167383,-0.221580,-0.785963,0.281796,-0.506547,-39.279232,-83.936200,37.847291
01660,284049,7.814829,-1.647667,0.972941,-0.151280,-0.152409,-0.181623,-0.784986,0.281233,-0.505573,-39.125517,-84.071245,37.604263
01661,284149,7.948594,-1.683816,0.944557,-0.145379,-0.119991,-0.135930,-0.786446,0.279859,-0.507649,-39.044665,-84.175294,37.437964
01662,284249,8.125839,-1.489355,0.919443,-0.140657,-0.104905,-0.098531,-0.789965,0.277351,-0.506278,-39.068608,-84.259102,37.379767
01663,284349,8.390100,-1.252455,0.954291,-0.146989,-0.097606,-0.076724,-0.789464,0.278838,-0.506201,-39.167043,-84.331776,37.392812
01664,284449,8.570843,-0.956278,0.946677,-0.157781,-0.114629,-0.075240,-0.788079,0.274563,-0.500906,-39.342982,-84.411450,37.477532
01665,284549,8.754519,-0.683036,1.090315,-0.167317,-0.147120,-0.089496,-0.792046,0.274176,-0.501932,-39.585742,-84.510651,37.623889
01666,284649,8.803078,-0.560123,1.297139,-0.181069,-0.159900,-0.111702,-0.792098,0.276523,-0.498806,-39.789476,-84.623548,37.723100
01667,284749,8.795796,-0.641937,1.503312,-0.182306,-0.156892,-0.127891,-0.791603,0.274522,-0.498908,-39.911084,-84.741027,37.739101
01668,284849,8.731862,-0.803435,1.649078,-0.179851,-0.153479,-0.133613,-0.796091,0.272102,-0.499036,-39.992474,-84.859094,37.716131
01669,284949,8.650262,-1.044532,1.797416,-0.178704,-0.158876,-0.129667,-0.798082,0.272632,-0.499012,-40.116883,-84.978056,37.737024
01670,285049,8.521346,-1.289564,1.968895,-0.157976,-0.161475,-0.113713,-0.797677,0.272383,-0.494013,-40.325318,-85.092220,37.854192
01671,285149,8.387315,-1.520980,2.158901,-0.131725,-0.149439,-0.094524,-0.797669,0.271909,-0.494539,-40.572516,-85.193930,38.025357
01672,285249,8.383878,-1.717285,2.179703,-0.098452,-0.113147,-0.075616,-0.800192,0.269385,-0.493167,-40.744522,-85.272720,38.140201
01673,285349,8.402438,-1.785833,2.085061,-0.047861,-0.068970,-0.063675,-0.801218,0.268332,-0.491719,-40.752879,-85.327819,38.119941
01674,285449,8.491613,-1.649421,2.072018,0.007645,-0.016950,-0.056830,-0.803711,0.266877,-0.491796,-40.526280,-85.357713,37.895878
01675,285549,8.768688,-1.450322,2.029085,0.052789,0.042106,-0.057724,-0.800673,0.263487,-0.494972,-39.996360,-85.361970,37.393470
01676,285649,9.109136,-1.327172,1.951270,0.084227,0.098519,-0.063966,-0.802207,0.261919,-0.493049,-39.161409,-85.343085,36.603105
01677,285749,9.464380,-1.261766,1.800674,0.103660,0.106688,-0.069096,-0.803668,0.265005,-0.494396,-38.258451,-85.321398,35.755667
01678,285849,9.912515,-1.213342,1.779016,0.105126,0.102951,-0.073884,-0.805660,0.260078,-0.495151,-37.352256,-85.301981,34.905810
01679,285949,10.322251,-1.215664,1.782590,0.111878,0.106533,-0.082392,-0.805643,0.259130,-0.496201,-36.387375,-85.282698,34.000937
01680,286049,10.695767,-1.221890,1.660022,0.121798,0.099443,-0.095364,-0.806665,0.255112,-0.495405,-35.380050,-85.269773,33.059167
01681,286149,10.952320,-1.291798,1.530759,0.138130,0.072975,-0.107450,-0.810608,0.252804,-0.498032,-34.403588,-85.271895,32.157761
01682,286249,10.985695,-1.554654,1.408455,0.179669,0.035536,-0.111384,-0.807111,0.253271,-0.498506,-33.523652,-85.291849,31.377124
01683,286349,10.914289,-1.856371,1.403004,0.240360,-0.001780,-0.113160,-0.810095,0.250851,-0.499133,-32.733014,-85.329309,30.721033
01684,286449,11.028381,-2.068962,1.671657,0.306926,-0.012511,-0.107868,-0.810067,0.245467,-0.501412,-31.964759,-85.369584,30.125732
01685,286549,11.501240,-1.964813,2.389156,0.334850,-0.004037,-0.109933,-0.810099,0.243402,-0.500014,-31.124811,-85.405629,29.474612
01686,286649,12.142380,-1.613893,3.468960,0.323147,0.033192,-0.115960,-0.811070,0.241497,-0.501616,-30.107923,-85.424184,28.639295
01687,286749,12.837973,-1.033578,4.451767,0.275045,0.109274,-0.129111,-0.814009,0.238202,-0.504793,-28.764542,-85.407053,27.448785
01688,286849,13.531209,-0.210552,4.953640,0.194715,0.233394,-0.134739,-0.813981,0.238772,-0.506267,-27.039540,-85.325992,25.829118
01689,286949,14.024093,0.524787,4.779696,0.120304,0.405188,-0.146410,-0.811433,0.234417,-0.509994,-24.844231,-85.154863,23.694404
01690,287049,14.206271,0.821584,3.765093,0.096280,0.591037,-0.175031,-0.813841,0.233677,-0.514544,-22.181532,-84.885225,21.075975
01691,287149,14.099692,1.079826,2.271109,0.092974,0.772021,-0.190185,-0.809784,0.232810,-0.518591,-19.338195,-84.511059,18.272873
01692,287249,13.966746,1.129879,0.931063,0.081129,0.894756,-0.200073,-0.807092,0.231307,-0.529688,-16.617860,-84.059639,15.584586
01693,287349,13.288477,0.986867,-0.358880,0.071837,0.918554,-0.212520,-0.803947,0.230175,-0.538260,-14.196999,-83.585480,13.189876
01694,287449,11.905795,0.274692,-2.096070,0.069242,0.748182,-0.262252,-0.798442,0.223707,-0.540588,-12.049978,-83.203067,11.067320
01695,287549,10.218567,-0.065165,-3.888344,0.013102,0.372835,-0.271832,-0.797892,0.221851,-0.543688,-10.429641,-83.024973,9.441647
01696,287649,9.206820,-0.098193,-4.605816,-0.113929,-0.090165,-0.214771,-0.797907,0.223795,-0.542587,-9.569762,-83.098388,8.508555
01697,287749,8.616534,0.407618,-3.920060,-0.246879,-0.470415,-0.166578,-0.802015,0.222549,-0.536142,-9.286213,-83.381158,8.079472
01698,287849,8.487819,1.110808,-2.809823,-0.279290,-0.670056,-0.144758,-0.805066,0.223923,-0.532568,-9.265210,-83.774730,7.896182
01699,287949,8.496014,1.628809,-1.508228,-0.198044,-0.726781,-0.149553,-0.810193,0.220153,-0.525250,-9.206000,-84.200852,7.721394
01700,288049,9.079326,1.763068,-0.052954,-0.094222,-0.656047,-0.161628,-0.813287,0.223897,-0.519050,-8.926685,-84.588009,7.385304
01701,288149,10.287510,1.326485,1.016124,-0.055147,-0.455419,-0.139185,-0.814350,0.222748,-0.515602,-8.527563,-84.859396,6.951531
01702,288249,11.313856,0.582012,1.331035,-0.064733,-0.224847,-0.108229,-0.817882,0.218223,-0.513833,-8.076368,-84.997192,6.460089
01703,288349,11.796270,0.077992,1.078752,-0.072131,-0.063356,-0.076843,-0.815859,0.219758,-0.515255,-7.667560,-85.040541,6.007003
01704,288449,11.762456,-0.359540,0.489778,-0.109433,0.040167,-0.040030,-0.815398,0.219654,-0.513256,-7.427170,-85.022103,5.701535
01705,288549,11.325345,-0.759543,-0.030449,-0.204568,0.090706,0.012412,-0.818873,0.221228,-0.513681,-7.541077,-84.971029,5.697007
01706,288649,10.712347,-1.148660,-0.575629,-0.325203,0.074576,0.085869,-0.816445,0.222016,-0.510130,-8.206414,-84.923370,6.176700
01707,288749,10.174471,-1.349415,-0.952114,-0.441516,-0.001628,0.157475,-0.814961,0.226927,-0.508877,-9.458203,-84.911881,7.178312
01708,288849,9.250601,-1.337527,-0.743692,-0.524682,-0.086632,0.202165,-0.815406,0.231041,-0.511172,-11.138056,-84.941492,8.561852
01709,288949,8.279005,-1.303113,-0.439712,-0.505468,-0.192693,0.239474,-0.820438,0.233466,-0.508048,-13.216752,-85.021988,10.356733
01710,289049,7.765290,-0.896199,0.070608,-0.444922,-0.286257,0.233736,-0.820516,0.236239,-0.503397,-15.450227,-85.149289,12.341515
01711,289149,7.587408,-0.551004,0.414396,-0.319735,-0.324221,0.208272,-0.821629,0.238433,-0.496773,-17.632760,-85.294955,14.346763
01712,289249,7.212250,-0.300659,0.633238,-0.174189,-0.344345,0.187695,-0.824627,0.243913,-0.495495,-19.770967,-85.448924,16.390774
01713,289349,6.929908,-0.053202,0.883977,-0.066343,-0.329058,0.181727,-0.826250,0.244596,-0.488447,-21.905818,-85.589663,18.492973
01714,289449,6.689343,0.114188,0.974116,-0.010949,-0.298462,0.190073,-0.824782,0.245496,-0.486897,-24.107154,-85.706078,20.693307
01715,289549,6.610276,0.412758,1.061341,-0.001364,-0.278499,0.196882,-0.826800,0.246950,-0.485322,-26.399851,-85.803843,22.990433
01716,289649,6.616278,0.613546,1.149388,-0.022345,-0.258307,0.206420,-0.829328,0.246396,-0.483349,-28.798791,-85.881777,25.381749
01717,289749,6.920459,0.615501,1.189957,-0.071242,-0.230613,0.217205,-0.829390,0.248220,-0.479748,-31.271741,-85.935439,27.818953
01718,289849,7.313344,0.382372,1.155939,-0.109386,-0.172848,0.228272,-0.830946,0.250068,-0.476149,-33.641622,-85.950367,30.130800
01719,289949,7.551192,0.084528,0.932845,-0.123920,-0.114626,0.233230,-0.833416,0.251152,-0.477098,-35.789734,-85.929790,32.211967
01720,290049,7.797339,-0.184491,0.687942,-0.099105,-0.073187,0.226587,-0.833507,0.252406,-0.472024,-37.655010,-85.887309,34.023909
01721,290149,8.055293,-0.327523,0.526089,-0.050025,-0.048297,0.224361,-0.833955,0.254029,-0.474447,-39.315133,-85.830502,35.658467
01722,290249,8.313900,-0.421878,0.566278,0.011166,-0.041756,0.220620,-0.834542,0.256785,-0.469297,-40.839839,-85.768948,37.192520
01723,290349,8.611437,-0.452612,0.721940,0.059151,-0.050623,0.217279,-0.833026,0.258305,-0.470219,-42.319088,-85.709539,38.708682
01724,290449,8.785770,-0.459079,0.953637,0.107016,-0.062270,0.208341,-0.837512,0.256383,-0.470323,-43.741265,-85.655665,40.195223
01725,290549,8.774125,-0.317206,1.162460,0.153603,-0.078916,0.191901,-0.839054,0.255788,-0.467849,-45.101827,-85.612491,41.646828
01726,290649,8.672415,-0.203706,1.380950,0.197415,-0.091986,0.167059,-0.836100,0.257139,-0.465773,-46.352398,-85.582227,43.013356
01727,290749,8.556936,-0.146211,1.573431,0.222536,-0.086346,0.146041,-0.837620,0.258584,-0.464198,-47.434767,-85.556414,44.225655
01728,290849,8.395958,0.041762,1.666852,0.218142,-0.058580,0.134725,-0.837086,0.257677,-0.466248,-48.298497,-85.523147,45.216157
01729,290949,8.282788,0.255808,1.644298,0.184393,-0.024987,0.137014,-0.838107,0.259613,-0.464647,-48.993876,-85.475136,46.018425
01730,291049,8.212449,0.467192,1.518796,0.150958,-0.008538,0.145391,-0.838090,0.258665,-0.465698,-49.641081,-85.416613,46.753182
01731,291149,8.214636,0.561848,1.506789,0.125376,-0.009329,0.156898,-0.839609,0.260609,-0.464097,-50.341035,-85.352660,47.526189
01732,291249,8.353997,0.558836,1.600663,0.112463,-0.015304,0.164237,-0.840107,0.260617,-0.464097,-51.092205,-85.286845,48.343204
01733,291349,8.658412,0.374010,1.777876,0.108962,-0.008447,0.170041,-0.839599,0.260633,-0.464597,-51.810891,-85.215137,49.125665
01734,291449,9.070945,0.127102,1.816815,0.104138,0.019773,0.173409,-0.839114,0.264065,-0.463419,-52.372812,-85.131255,49.748098
01735,291549,9.471132,-0.055883,1.849951,0.088118,0.049144,0.177248,-0.839117,0.262072,-0.463521,-52.784068,-85.034957,50.210166
01736,291649,9.788981,-0.070558,1.784806,0.070133,0.068071,0.179192,-0.839121,0.265037,-0.462869,-53.098220,-84.930988,50.564466
01737,291749,10.104316,-0.101783,1.670183,0.049954,0.081077,0.183348,-0.838094,0.266588,-0.464292,-53.359757,-84.820498,50.854375
01738,291849,10.517556,-0.197027,1.485807,0.045440,0.068651,0.190211,-0.838152,0.265447,-0.461344,-53.699248,-84.710947,51.220003
01739,291949,11.085893,-0.334536,1.430246,0.058317,0.032314,0.200303,-0.836663,0.267392,-0.460742,-54.231506,-84.608718,51.786701
01740,292049,11.741228,-0.411127,1.600492,0.076457,0.000614,0.206743,-0.836639,0.270928,-0.461563,-54.909404,-84.513462,52.510217
01741,292149,12.332689,-0.385387,1.829729,0.070515,-0.011376,0.213860,-0.839646,0.270927,-0.460565,-55.648027,-84.417927,53.291425
01742,292249,12.705183,-0.124275,2.120936,0.017032,-0.007096,0.213763,-0.840149,0.273402,-0.459938,-56.370187,-84.320122,54.025403
01743,292349,13.150769,0.120253,2.569300,-0.076704,0.027980,0.211818,-0.837185,0.275276,-0.458336,-56.947996,-84.211401,54.560426
01744,292449,13.543497,0.379902,3.204664,-0.144870,0.101739,0.197781,-0.838109,0.278948,-0.461657,-57.157548,-84.086092,54.686073
01745,292549,13.866489,0.200825,3.883203,-0.148069,0.235255,0.180508,-0.835564,0.283513,-0.463927,-56.705786,-83.927365,54.144923
01746,292649,14.002536,-0.138772,4.326852,-0.073473,0.422531,0.161139,-0.833526,0.283103,-0.466451,-55.370311,-83.717018,52.757673
01747,292749,14.132601,-0.825516,4.419142,0.052774,0.655502,0.146986,-0.830960,0.283755,-0.470423,-53.071950,-83.430520,50.473570
01748,292849,14.119517,-1.507666,3.818497,0.185033,0.877428,0.160824,-0.829848,0.286519,-0.476293,-50.124604,-83.047340,47.610722
01749,292949,13.868442,-1.776198,2.348383,0.258817,1.015010,0.166469,-0.823676,0.291390,-0.486059,-47.014674,-82.592252,44.624084
01750,293049,13.650296,-2.124627,0.581411,0.260904,1.029508,0.169108,-0.820051,0.290699,-0.493606,-44.228652,-82.111705,41.962324
01751,293149,13.375612,-2.455866,-1.159785,0.213060,0.934993,0.202426,-0.813945,0.295402,-0.499873,-42.129534,-81.642999,39.963718
01752,293249,12.445068,-2.159755,-3.090197,0.151682,0.671629,0.204873,-0.811824,0.300167,-0.506141,-40.928017,-81.278485,38.835114
01753,293349,11.067839,-2.058931,-4.519811,0.083352,0.225172,0.186115,-0.809344,0.299107,-0.505691,-40.855360,-81.112612,38.808455
01754,293449,10.195930,-1.969374,-4.354236,0.059854,-0.234563,0.158216,-0.811381,0.305471,-0.502362,-41.827112,-81.155152,39.825246
01755,293549,9.616557,-1.561487,-3.346245,0.071118,-0.592686,0.107224,-0.814939,0.302369,-0.499017,-43.579487,-81.364622,41.638036
01756,293649,9.191646,-1.535238,-2.329024,0.078741,-0.798676,0.069594,-0.817005,0.307664,-0.494240,-45.885085,-81.663289,44.013388
01757,293749,8.248250,-1.718176,-1.446986,0.120588,-0.884990,0.033807,-0.820184,0.310195,-0.483593,-48.501848,-81.995313,46.725426
01758,293849,8.124134,-2.167108,-0.587530,0.131926,-0.853950,0.023897,-0.825780,0.312460,-0.476970,-51.206714,-82.301946,49.530871
01759,293949,8.465739,-2.648157,0.122818,0.156937,-0.665358,0.033304,-0.830384,0.312218,-0.470474,-53.474675,-82.521306,51.908318
01760,294049,9.101068,-2.789589,0.705888,0.209879,-0.379940,0.062527,-0.830447,0.313046,-0.466925,-54.874482,-82.621138,53.440034
01761,294149,9.644180,-2.402773,0.970936,0.268762,-0.111903,0.075117,-0.835417,0.314146,-0.467375,-55.322683,-82.623940,54.046077
01762,294249,9.969741,-1.885745,0.920796,0.330645,0.062313,0.057603,-0.835443,0.315568,-0.465800,-55.058546,-82.577857,53.969606
01763,294349,10.359723,-1.525695,0.699820,0.398645,0.151776,0.021720,-0.834362,0.310811,-0.471051,-54.348366,-82.518846,53.482586
01764,294449,10.646588,-1.184641,0.373267,0.472909,0.194222,-0.002535,-0.834383,0.314724,-0.469349,-53.395128,-82.455813,52.793258
01765,294549,10.508060,-0.631642,-0.106319,0.500739,0.216906,-0.024664,-0.836328,0.310416,-0.472577,-52.304795,-82.393458,51.981602
01766,294649,9.833657,-0.104336,-0.552508,0.438121,0.200506,-0.053693,-0.836247,0.308640,-0.477177,-51.243276,-82.348017,51.162698
01767,294749,8.954495,0.389258,-0.721627,0.317968,0.128396,-0.086539,-0.837740,0.309660,-0.477126,-50.408934,-82.341511,50.503471
01768,294849,8.313341,0.762046,-0.436339,0.178874,0.026289,-0.119955,-0.839734,0.308696,-0.477178,-49.896678,-82.386200,50.088796
01769,294949,7.868633,0.987825,-0.062310,0.042239,-0.061500,-0.156753,-0.841764,0.308631,-0.475179,-49.643087,-82.479143,49.856109
01770,295049,7.686802,0.995024,0.317630,-0.069204,-0.103129,-0.188099,-0.840803,0.309515,-0.473129,-49.497014,-82.601151,49.667476
01771,295149,7.608667,0.732959,0.734715,-0.152708,-0.087830,-0.202640,-0.841287,0.312038,-0.473502,-49.298782,-82.723731,49.378032
01772,295249,7.461759,0.318949,1.095919,-0.215044,-0.051285,-0.211619,-0.844286,0.311563,-0.473028,-48.975375,-82.836345,48.926462
01773,295349,7.569577,-0.076479,1.367523,-0.265106,-0.006577,-0.216733,-0.841823,0.311950,-0.471503,-48.497759,-82.933871,48.290670
01774,295449,7.413872,-0.426726,1.471298,-0.278599,0.033218,-0.222211,-0.845862,0.312865,-0.468454,-47.856933,-83.017751,47.482764
01775,295549,7.387387,-0.744238,1.372608,-0.283718,0.060106,-0.221585,-0.844851,0.310905,-0.469555,-47.110397,-83.089742,46.565552
01776,295649,7.499895,-1.009514,1.164100,-0.276118,0.091772,-0.204739,-0.847838,0.311948,-0.469506,-46.288698,-83.140725,45.577147
01777,295749,7.552511,-1.126049,0.912951,-0.262643,0.105886,-0.189900,-0.846848,0.313403,-0.468929,-45.447841,-83.178236,44.577328
01778,295849,7.649467,-1.090093,0.739816,-0.254707,0.091686,-0.171525,-0.845857,0.315855,-0.468302,-44.703574,-83.212376,43.679454
01779,295949,7.849845,-0.981959,0.635980,-0.263584,0.066007,-0.157956,-0.847863,0.313371,-0.467930,-44.089864,-83.250319,42.908010
01780,296049,8.037999,-0.919481,0.603216,-0.293206,0.035568,-0.144018,-0.849854,0.314399,-0.467880,-43.636786,-83.294449,42.281296
01781,296149,8.197023,-0.976319,0.676980,-0.326135,-0.006489,-0.134584,-0.847337,0.318393,-0.468675,-43.370716,-83.351866,41.823948
01782,296249,8.431718,-1.023856,0.879943,-0.342019,-0.045734,-0.132017,-0.848915,0.318200,-0.464177,-43.249934,-83.424447,41.503770
01783,296349,8.562407,-1.088991,1.118966,-0.340145,-0.072277,-0.143541,-0.850865,0.321318,-0.466025,-43.171985,-83.512555,41.227850
01784,296449,8.610601,-1.233688,1.422852,-0.312340,-0.089446,-0.157190,-0.852451,0.322097,-0.460976,-43.081964,-83.613123,40.955877
01785,296549,8.755476,-1.462972,1.766413,-0.282765,-0.082440,-0.158348,-0.855468,0.322072,-0.459478,-42.939909,-83.711120,40.648672
01786,296649,8.861858,-1.911908,2.048519,-0.244304,-0.063400,-0.143763,-0.854461,0.328035,-0.459172,-42.757077,-83.795303,40.322698
01787,296749,8.891220,-2.136516,2.073172,-0.196446,-0.056064,-0.121260,-0.856976,0.324539,-0.458352,-42.601852,-83.867511,40.052155
01788,296849,8.834240,-2.247345,1.978187,-0.155596,-0.065696,-0.099829,-0.856020,0.327890,-0.455674,-42.538569,-83.935379,39.897687
01789,296949,8.654158,-2.220439,1.919024,-0.109370,-0.073894,-0.087269,-0.860044,0.332317,-0.452948,-42.527070,-84.001793,39.821979
01790,297049,8.567401,-2.117887,1.944766,-0.055654,-0.064627,-0.082584,-0.858501,0.333410,-0.455396,-42.468363,-84.062437,39.729794
01791,297149,8.612739,-1.935081,2.011489,0.006921,-0.033820,-0.084099,-0.862029,0.331376,-0.453500,-42.250626,-84.110564,39.513809
01792,297249,8.861598,-1.707399,2.033655,0.052451,-0.002089,-0.084948,-0.860512,0.333394,-0.454397,-41.880980,-84.145375,39.171377
01793,297349,9.329019,-1.512054,2.110369,0.082463,0.030589,-0.080832,-0.862476,0.333996,-0.455872,-41.385718,-84.164334,38.719989
01794,297449,9.841378,-1.413895,2.307421,0.094360,0.055938,-0.073562,-0.863947,0.336559,-0.456745,-40.818237,-84.169155,38.202879
01795,297549,10.217350,-1.403747,2.349252,0.089854,0.056483,-0.071215,-0.864967,0.334035,-0.455872,-40.260520,-84.172322,37.693003
01796,297649,10.481950,-1.409530,2.331426,0.088096,0.026713,-0.084046,-0.867397,0.336710,-0.458745,-39.754832,-84.192775,37.234433
01797,297749,10.752768,-1.469416,2.180176,0.099200,-0.014837,-0.097840,-0.866898,0.337201,-0.458719,-39.328043,-84.236216,36.861600
01798,297849,10.883305,-1.616833,1.868780,0.126824,-0.050629,-0.108175,-0.866903,0.339668,-0.458092,-38.962266,-84.299017,36.566045
01799,297949,10.855013,-1.790249,1.613193,0.198012,-0.052212,-0.117076,-0.872390,0.340727,-0.457544,-38.513617,-84.365485,36.228254
01800,298049,10.754617,-1.968242,1.381395,0.293774,-0.029586,-0.130434,-0.870362,0.339795,-0.459593,-37.856974,-84.426149,35.736667
01801,298149,10.984702,-2.146835,1.397510,0.366740,-0.020430,-0.133014,-0.872864,0.338316,-0.459170,-37.100938,-84.482929,35.187305
01802,298249,11.494131,-2.043535,2.133362,0.373324,-0.030863,-0.130172,-0.874814,0.336475,-0.461771,-36.378646,-84.542805,34.675714
01803,298349,12.347986,-1.688082,3.636568,0.289219,-0.001612,-0.124633,-0.878786,0.338556,-0.462171,-35.614873,-84.586575,34.074103
01804,298449,13.508807,-1.106057,5.198464,0.156513,0.093112,-0.111673,-0.877236,0.338178,-0.465195,-34.652316,-84.580767,33.196450
01805,298549,14.628811,-0.076706,5.768704,0.010125,0.270793,-0.097750,-0.879145,0.338427,-0.469694,-33.257590,-84.484305,31.800282
01806,298649,15.387860,0.803761,4.882152,-0.080015,0.515080,-0.099073,-0.881526,0.343215,-0.474963,-31.218155,-84.265865,29.703962
01807,298749,15.611670,1.210071,2.912051,-0.106520,0.748367,-0.109826,-0.877966,0.342356,-0.479012,-28.681336,-83.926616,27.091256
01808,298849,15.292480,1.068954,0.665544,-0.113415,0.863244,-0.110737,-0.871304,0.347693,-0.488252,-26.162735,-83.517687,24.491040
01809,298949,14.519534,0.986480,-1.198613,-0.099553,0.843402,-0.135773,-0.873110,0.348704,-0.498223,-23.873165,-83.113646,22.127283
01810,299049,12.864673,0.870285,-2.848398,-0.130791,0.675339,-0.208296,-0.869581,0.351735,-0.500069,-21.839335,-82.804508,20.001373
01811,299149,10.978030,0.471797,-3.925566,-0.218266,0.340687,-0.277366,-0.869498,0.351453,-0.504592,-20.247850,-82.680582,18.269832
01812,299249,9.601848,-0.171563,-4.126114,-0.308917,-0.069803,-0.266651,-0.869004,0.354411,-0.503940,-19.403814,-82.771315,17.239391
01813,299349,8.558004,-0.274964,-3.429212,-0.389472,-0.469297,-0.206158,-0.872073,0.355736,-0.499367,-19.448997,-83.065544,17.058944
01814,299449,7.972375,0.351086,-2.201336,-0.401745,-0.736760,-0.172737,-0.875702,0.359392,-0.491168,-20.099761,-83.497692,17.481315
01815,299549,7.923057,1.106562,-0.889605,-0.288232,-0.826643,-0.174503,-0.881275,0.359238,-0.486171,-20.922515,-83.977802,18.141722
01816,299649,8.284642,1.440920,0.374432,-0.129285,-0.728465,-0.182159,-0.883424,0.359857,-0.477625,-21.523724,-84.406150,18.670389
01817,299749,9.189028,1.168817,1.241970,-0.028972,-0.480898,-0.170937,-0.883512,0.362107,-0.472499,-21.645932,-84.699889,18.775251
01818,299849,10.094075,0.459907,1.296318,-0.026407,-0.216259,-0.121946,-0.887018,0.361616,-0.471526,-21.445433,-84.842295,18.557477
01819,299949,10.572097,-0.189210,0.853292,-0.066978,-0.036820,-0.063016,-0.886537,0.362556,-0.470475,-21.192299,-84.876571,18.263543
01820,300049,10.664767,-0.371254,0.300715,-0.132212,0.036306,-0.029195,-0.887519,0.365586,-0.470823,-21.007898,-84.864692,18.001101
01821,300149,10.603489,-0.650177,-0.134306,-0.237658,0.053377,0.008735,-0.885514,0.367073,-0.471246,-21.071393,-84.835871,17.926905
01822,300249,10.325687,-1.060032,-0.643032,-0.359316,-0.003568,0.070113,-0.888068,0.367940,-0.467697,-21.696758,-84.824668,18.346909
01823,300349,9.979862,-1.451373,-0.849982,-0.476121,-0.106067,0.143101,-0.888555,0.374425,-0.467367,-23.063516,-84.851209,19.444160
01824,300449,9.540490,-1.717365,-0.868686,-0.546958,-0.222820,0.201120,-0.887119,0.378219,-0.463665,-25.134744,-84.922287,21.207905
01825,300549,9.492590,-1.597253,-0.744007,-0.548193,-0.318783,0.232360,-0.887680,0.384511,-0.459337,-27.730462,-85.028196,23.497248
01826,300649,8.575465,-1.290697,-0.202621,-0.471022,-0.351041,0.220486,-0.889767,0.388762,-0.453611,-30.423765,-85.144209,25.928556
01827,300749,7.965621,-1.019330,0.277724,-0.304590,-0.367048,0.205079,-0.892328,0.396058,-0.448732,-33.111703,-85.262762,28.449769
01828,300849,7.925619,-0.472927,0.628435,-0.177078,-0.398252,0.168773,-0.889909,0.397818,-0.444631,-35.773813,-85.397859,31.017908
01829,300949,8.001608,-0.055115,0.800618,-0.059452,-0.385603,0.122078,-0.890453,0.403162,-0.441353,-38.193596,-85.533859,33.410065
01830,301049,7.627612,0.155894,0.882807,0.016261,-0.372699,0.097297,-0.891994,0.402568,-0.438880,-40.509777,-85.665216,35.741371
01831,301149,7.257818,0.281585,0.986244,0.042240,-0.365797,0.098745,-0.895549,0.400959,-0.435459,-42.923023,-85.785581,38.184528
01832,301249,7.081076,0.496866,0.995642,0.016856,-0.335075,0.108264,-0.896603,0.404793,-0.431757,-45.367132,-85.881694,40.643682
01833,301349,6.972226,0.448129,0.949821,-0.030193,-0.321293,0.127786,-0.897641,0.407677,-0.429106,-47.973308,-85.956293,43.237999
01834,301449,6.971933,0.282861,0.720060,-0.055052,-0.304073,0.148653,-0.900705,0.407034,-0.425134,-50.684681,-86.006753,45.923274
01835,301549,7.083732,-0.024470,0.445395,-0.051238,-0.292035,0.161548,-0.901231,0.412426,-0.422856,-53.439998,-86.038115,48.654645
01836,301649,7.220215,-0.281176,0.271157,-0.021176,-0.305692,0.165049,-0.901724,0.414925,-0.422729,-56.326002,-86.062978,51.534183
01837,301749,7.475539,-0.478953,0.336496,0.037191,-0.334582,0.159095,-0.902828,0.412185,-0.417358,-59.390185,-86.089209,54.625751
01838,301849,7.807361,-0.620342,0.645169,0.113438,-0.351094,0.160072,-0.902898,0.413985,-0.413258,-62.570138,-86.107973,57.877065
01839,301949,8.086620,-0.595873,0.835940,0.171076,-0.362004,0.165305,-0.905412,0.416444,-0.411633,-65.839824,-86.114273,61.251370
01840,302049,8.450283,-0.491841,0.926466,0.198721,-0.363304,0.173863,-0.904945,0.419827,-0.409455,-69.128936,-86.103218,64.661028
01841,302149,8.718815,-0.372550,0.870671,0.220516,-0.344691,0.178776,-0.906001,0.417705,-0.406558,-72.239462,-86.073078,67.904276
01842,302249,8.693960,-0.299070,0.758181,0.242130,-0.320611,0.181899,-0.906520,0.421627,-0.404856,-75.094089,-86.025871,70.903570
01843,302349,8.510262,-0.008690,0.618523,0.261099,-0.320364,0.183442,-0.905529,0.424078,-0.404229,-77.862489,-85.967704,73.827494
01844,302449,8.429945,0.203878,0.764137,0.257833,-0.334207,0.173152,-0.908593,0.423434,-0.400257,-80.640971,-85.907019,76.759839
01845,302549,8.498335,0.357919,1.063715,0.246023,-0.321081,0.155104,-0.909117,0.424865,-0.398681,-83.216632,-85.845908,79.482246
01846,302649,8.584307,0.423807,1.256535,0.226669,-0.296719,0.138966,-0.910633,0.427806,-0.397030,-85.522805,-85.784378,81.923506
01847,302749,8.655594,0.434657,1.476859,0.195732,-0.266729,0.134636,-0.911669,0.426728,-0.395082,-87.543527,-85.717636,84.060921
01848,302849,8.748958,0.393144,1.720761,0.164768,-0.222205,0.133991,-0.910714,0.429084,-0.392455,-89.180025,-85.645546,85.795386
01849,302949,8.901046,0.234243,1.889812,0.156842,-0.142645,0.140474,-0.911715,0.426608,-0.392582,-90.175758,-85.566536,86.882789
01850,303049,9.130374,0.006654,1.811922,0.166688,-0.047590,0.143921,-0.911268,0.428947,-0.389457,-90.438608,-85.484956,87.240821
01851,303149,9.336930,-0.285376,1.537068,0.170993,0.010183,0.152006,-0.908731,0.429028,-0.391955,-90.275612,-85.398939,87.174157
01852,303249,9.562429,-0.414051,1.375076,0.181842,0.025055,0.156306,-0.908190,0.432106,-0.393801,-90.006431,-85.310470,87.007176
01853,303349,9.805802,-0.440547,1.431995,0.173988,0.053267,0.160130,-0.909216,0.431551,-0.392328,-89.556295,-85.219673,86.654073
01854,303449,9.963105,-0.397634,1.413900,0.168266,0.067539,0.161889,-0.904162,0.430668,-0.396376,-89.028368,-85.127534,86.219553
01855,303549,10.486316,-0.347655,1.343248,0.150876,0.067894,0.169883,-0.903195,0.434542,-0.394173,-88.526923,-85.030501,85.801537
01856,303649,11.209455,-0.310956,1.231745,0.113657,0.070352,0.187999,-0.904684,0.432597,-0.394774,-88.052043,-84.922765,85.388698
01857,303749,11.824418,-0.188818,1.019207,0.046946,0.066678,0.203793,-0.903161,0.438102,-0.395494,-87.660503,-84.805816,85.021063
01858,303849,12.275062,0.138915,0.970374,-0.041147,0.046872,0.215155,-0.902608,0.437740,-0.398519,-87.460495,-84.682710,84.794981
01859,303949,12.661236,0.612034,1.216825,-0.142262,0.042110,0.208904,-0.902106,0.440223,-0.398391,-87.354020,-84.563296,84.604562
01860,304049,13.083241,0.962514,1.868290,-0.234385,0.088118,0.173525,-0.899616,0.440184,-0.398391,-87.024062,-84.462824,84.136509
01861,304149,13.749455,0.984919,2.627507,-0.244434,0.202600,0.124345,-0.897588,0.444210,-0.399686,-86.030507,-84.386051,82.995783
01862,304249,14.534558,0.503659,3.190507,-0.138175,0.380564,0.069813,-0.896554,0.444291,-0.401685,-83.954472,-84.328605,80.828300
01863,304349,15.394823,-0.312425,3.154459,0.029114,0.583293,0.021098,-0.893462,0.445006,-0.407156,-80.641685,-84.273311,77.514011
01864,304449,16.060410,-1.504234,2.281953,0.156368,0.746053,0.004570,-0.887337,0.444799,-0.415177,-76.415812,-84.187202,73.354874
01865,304549,16.031945,-2.473368,0.676901,0.159890,0.808055,0.041648,-0.882724,0.444567,-0.422198,-72.068627,-84.039925,69.074989
01866,304649,15.369200,-2.753693,-1.265634,0.016441,0.730365,0.082159,-0.879645,0.448722,-0.426492,-68.496749,-83.855854,65.490860
01867,304749,14.339939,-2.715055,-2.571620,-0.137531,0.575460,0.126509,-0.875575,0.449373,-0.430964,-66.054073,-83.663088,62.952700
01868,304849,12.650308,-2.433306,-3.396316,-0.207861,0.366806,0.129375,-0.870090,0.452276,-0.430810,-64.751778,-83.509706,61.520752
01869,304949,11.126873,-1.971705,-3.576890,-0.204910,0.123884,0.080743,-0.869054,0.453851,-0.432732,-64.486658,-83.438996,61.134169
01870,305049,10.037949,-1.476435,-3.054247,-0.150542,-0.103072,0.011986,-0.864634,0.455106,-0.429156,-65.069087,-83.459467,61.632074
01871,305149,9.229974,-1.305241,-2.153852,-0.073532,-0.271531,-0.043976,-0.869162,0.456053,-0.426608,-66.271192,-83.548037,62.798036
01872,305249,8.623827,-1.543678,-1.390678,0.004843,-0.361460,-0.073029,-0.867237,0.454358,-0.423185,-67.832317,-83.668814,64.370238
