PacketCounter,SampleTimeFine,Acc_X,Acc_Y,Acc_Z,Gyr_X,Gyr_Y,Gyr_Z,Mag_X,Mag_Y,Mag_Z,Roll,Pitch,Yaw
00725,140819,9.576047,-0.484211,1.950264,-0.034449,-0.081425,-0.016348,-0.444548,0.106461,-0.380826,-15.619913,-77.444548,15.264001
00726,140919,9.589928,-0.572062,2.073972,-0.031229,-0.103838,-0.018556,-0.448984,0.106653,-0.383326,-15.661167,-77.506054,15.288499
00727,141019,9.613513,-0.629624,2.130172,-0.037068,-0.123121,-0.017728,-0.448044,0.105994,-0.380352,-15.721762,-77.578054,15.329371
00728,141119,9.640624,-0.649479,2.121178,-0.036411,-0.128070,-0.016616,-0.447075,0.106902,-0.378802,-15.788922,-77.652592,15.377333
00729,141219,9.675829,-0.581408,2.137389,-0.033050,-0.118725,-0.015432,-0.450562,0.106958,-0.378803,-15.851126,-77.721773,15.422182
00730,141319,9.713413,-0.442845,2.097862,-0.026851,-0.108394,-0.014016,-0.449550,0.104997,-0.379904,-15.906433,-77.785026,15.463598
00731,141419,9.722427,-0.369259,2.040690,-0.019123,-0.098239,-0.016606,-0.452106,0.104370,-0.376431,-15.943682,-77.843087,15.491065
00732,141519,9.758921,-0.379364,2.039190,-0.014096,-0.086391,-0.022643,-0.449626,0.103808,-0.375956,-15.954066,-77.895571,15.493996
00733,141619,9.739337,-0.492453,2.012002,-0.019184,-0.064150,-0.029564,-0.453143,0.102795,-0.374509,-15.933173,-77.936893,15.461960
00734,141719,9.663503,-0.625510,1.965651,-0.028657,-0.049037,-0.033810,-0.453635,0.105792,-0.374357,-15.895458,-77.970551,15.407177
00735,141819,9.587875,-0.688345,1.981396,-0.035607,-0.046170,-0.039187,-0.452626,0.102835,-0.375508,-15.845478,-78.003458,15.335785
00736,141919,9.522595,-0.686053,1.989673,-0.035910,-0.048651,-0.038237,-0.456155,0.105261,-0.372883,-15.799698,-78.037565,15.268516
00737,142019,9.503523,-0.669226,2.007949,-0.030382,-0.054952,-0.037101,-0.454663,0.103743,-0.372959,-15.758079,-78.074949,15.208742
00738,142119,9.478587,-0.633182,2.025953,-0.023740,-0.057457,-0.034229,-0.455663,0.101765,-0.373061,-15.721738,-78.113249,15.158258
00739,142219,9.477434,-0.581065,2.024056,-0.021385,-0.057535,-0.028272,-0.453134,0.102819,-0.375008,-15.699500,-78.150653,15.123570
00740,142319,9.534269,-0.565058,2.002910,-0.014137,-0.052358,-0.025108,-0.456627,0.099386,-0.375187,-15.677450,-78.184701,15.093320
00741,142419,9.582108,-0.616487,2.002968,-0.012477,-0.044457,-0.021604,-0.452703,0.101148,-0.371586,-15.657741,-78.213838,15.066435
00742,142519,9.583137,-0.648137,2.026016,-0.009047,-0.034954,-0.020539,-0.453707,0.102136,-0.371036,-15.631770,-78.237555,15.035162
00743,142619,9.587011,-0.623995,1.998662,-0.006591,-0.023831,-0.018277,-0.452698,0.099179,-0.372187,-15.602072,-78.254773,15.001520
00744,142719,9.577999,-0.548343,1.944191,-0.009598,-0.014997,-0.013322,-0.452214,0.101116,-0.371086,-15.580645,-78.266348,14.974565
00745,142819,9.600792,-0.463648,1.955596,-0.015789,-0.015548,-0.010632,-0.452186,0.101188,-0.372586,-15.570259,-78.277812,14.955267
00746,142919,9.630180,-0.429459,1.949983,-0.022187,-0.033313,-0.007067,-0.451671,0.100232,-0.373636,-15.586155,-78.298532,14.959070
00747,143019,9.647596,-0.492731,2.000174,-0.029896,-0.045859,-0.007377,-0.452656,0.101766,-0.374059,-15.615016,-78.326217,14.971600
00748,143119,9.659075,-0.535974,2.076753,-0.031294,-0.045995,-0.012589,-0.452187,0.100690,-0.372611,-15.630918,-78.354769,14.970081
00749,143219,9.634516,-0.586245,2.073023,-0.028287,-0.033347,-0.017516,-0.450220,0.102080,-0.371035,-15.622429,-78.377088,14.945418
00750,143319,9.562055,-0.549239,1.981891,-0.014997,-0.024668,-0.018809,-0.452710,0.102618,-0.371010,-15.596279,-78.394808,14.910500
00751,143419,9.504026,-0.518431,1.854774,-0.005391,-0.022991,-0.016324,-0.449216,0.101092,-0.371585,-15.569969,-78.411220,14.881037
00752,143519,9.524431,-0.486726,1.796327,-0.000468,-0.038937,-0.018853,-0.449206,0.101614,-0.372059,-15.545902,-78.436828,14.856746
00753,143619,9.570680,-0.521124,1.900644,0.000677,-0.050335,-0.021153,-0.452221,0.102586,-0.370510,-15.523421,-78.469078,14.834744
00754,143719,9.594494,-0.595340,1.994964,0.002184,-0.051273,-0.024207,-0.448743,0.103005,-0.369984,-15.492396,-78.502301,14.804906
00755,143819,9.612322,-0.632338,2.071674,-0.006877,-0.041690,-0.021731,-0.449222,0.103061,-0.370984,-15.465952,-78.529834,14.774446
00756,143919,9.599841,-0.596442,2.088759,-0.012982,-0.026065,-0.018807,-0.446248,0.100000,-0.370635,-15.439098,-78.548270,14.740000
00757,144019,9.595621,-0.550954,2.046947,-0.014465,-0.014725,-0.014545,-0.448780,0.102909,-0.367985,-15.416106,-78.559778,14.708629
00758,144119,9.544365,-0.552237,1.962910,-0.019386,-0.007417,-0.016099,-0.447820,0.103295,-0.365959,-15.386152,-78.567473,14.667279
00759,144219,9.523888,-0.618927,1.917579,-0.020258,-0.010276,-0.014880,-0.448295,0.100884,-0.367586,-15.362175,-78.576552,14.631516
00760,144319,9.506170,-0.677288,1.935128,-0.016499,-0.011911,-0.012879,-0.450764,0.102466,-0.368510,-15.342773,-78.586219,14.602615
00761,144419,9.497614,-0.655174,1.980888,-0.008891,-0.009943,-0.010395,-0.447797,0.100378,-0.367611,-15.324352,-78.594407,14.579160
00762,144519,9.538302,-0.543461,1.997747,-0.003196,-0.013391,-0.006592,-0.448776,0.099943,-0.368637,-15.315656,-78.603912,14.568956
00763,144619,9.572260,-0.431629,2.001476,-0.007661,-0.018343,-0.007916,-0.449331,0.099308,-0.365664,-15.309550,-78.616346,14.558786
00764,144719,9.652865,-0.371672,2.031164,-0.019449,-0.012487,-0.008884,-0.450805,0.100377,-0.366613,-15.303056,-78.625681,14.541333
00765,144819,9.683584,-0.397896,1.979358,-0.023514,0.009979,-0.006910,-0.449314,0.098360,-0.366714,-15.287368,-78.622296,14.512131
00766,144919,9.593376,-0.470508,1.880710,-0.026567,0.039925,-0.008416,-0.449310,0.100353,-0.366612,-15.246900,-78.602584,14.455864
00767,145019,9.510049,-0.544652,1.757812,-0.032282,0.048335,-0.007903,-0.450862,0.099236,-0.363665,-15.205054,-78.578147,14.394846
00768,145119,9.465451,-0.614109,1.837324,-0.032973,0.038510,-0.006856,-0.452293,0.098432,-0.367215,-15.174013,-78.558975,14.344441
00769,145219,9.436357,-0.683083,2.021289,-0.034783,0.009470,-0.005383,-0.453312,0.096406,-0.366317,-15.169689,-78.555622,14.320232
00770,145319,9.571747,-0.637394,2.095856,-0.024446,-0.016405,0.002119,-0.449836,0.100787,-0.365088,-15.199172,-78.565431,14.336551
00771,145419,9.655957,-0.517513,2.068690,-0.005234,-0.004338,0.008546,-0.450323,0.096359,-0.366316,-15.226251,-78.567587,14.361656
00772,145519,9.653038,-0.421669,1.896806,0.007130,0.012307,0.012187,-0.449832,0.097324,-0.365765,-15.243784,-78.559995,14.384246
00773,145619,9.687038,-0.402031,1.885266,0.005072,0.019373,0.014851,-0.448822,0.099823,-0.366138,-15.264442,-78.548097,14.408824
00774,145719,9.675388,-0.379183,1.952666,-0.001554,0.025555,0.017217,-0.446817,0.096850,-0.367289,-15.290620,-78.532423,14.435168
00775,145819,9.630035,-0.387739,1.959503,-0.009334,0.025630,0.015786,-0.448791,0.101888,-0.367535,-15.317202,-78.516921,14.457374
00776,145919,9.523648,-0.411947,1.866974,-0.014822,0.014069,0.014402,-0.447299,0.100868,-0.367586,-15.351671,-78.508017,14.484427
00777,146019,9.486628,-0.362027,1.844040,-0.016730,-0.000039,0.009693,-0.451273,0.101454,-0.368061,-15.384890,-78.507628,14.509092
00778,146119,9.513518,-0.301050,1.799546,-0.016687,-0.014418,0.005084,-0.449269,0.102941,-0.368484,-15.416264,-78.515887,14.531900
00779,146219,9.593549,-0.226254,1.795459,-0.020202,-0.024249,0.000948,-0.447789,0.104862,-0.367383,-15.445731,-78.530220,14.550710
00780,146319,9.648379,-0.258703,1.857538,-0.028130,-0.027016,-0.005778,-0.448754,0.107441,-0.368755,-15.463465,-78.547115,14.552917
00781,146419,9.686762,-0.364560,1.933898,-0.028956,-0.021530,-0.013032,-0.451245,0.106982,-0.368781,-15.457688,-78.562092,14.530660
00782,146519,9.711971,-0.536999,2.006477,-0.030612,-0.012680,-0.017806,-0.450759,0.110414,-0.367604,-15.433120,-78.572899,14.488259
00783,146619,9.650886,-0.663786,1.991662,-0.028891,-0.000191,-0.020798,-0.449226,0.111483,-0.369552,-15.389966,-78.577245,14.427903
00784,146719,9.554427,-0.734667,1.873963,-0.026430,0.007123,-0.022693,-0.449188,0.112077,-0.371526,-15.334793,-78.577824,14.356722
00785,146819,9.468729,-0.740398,1.752734,-0.027506,-0.003510,-0.020816,-0.452203,0.112551,-0.370002,-15.293435,-78.583991,14.298998
00786,146919,9.477133,-0.663390,1.746207,-0.025395,-0.023517,-0.015452,-0.454685,0.112116,-0.370528,-15.280549,-78.600402,14.271554
00787,147019,9.548519,-0.599085,1.807844,-0.020225,-0.045812,-0.008352,-0.452189,0.115066,-0.370375,-15.300930,-78.628064,14.281062
00788,147119,9.644346,-0.482097,1.892822,-0.013834,-0.055700,-0.005387,-0.453680,0.112124,-0.371027,-15.333324,-78.660742,14.306563
00789,147219,9.674727,-0.382406,1.962106,-0.014658,-0.057601,-0.006160,-0.453711,0.115516,-0.368850,-15.365630,-78.694582,14.331486
00790,147319,9.693750,-0.394792,1.915992,-0.018116,-0.042789,-0.010695,-0.452638,0.117187,-0.372772,-15.376179,-78.720922,14.332205
00791,147419,9.669794,-0.431047,1.891336,-0.026875,-0.029564,-0.011840,-0.453103,0.120257,-0.374119,-15.378482,-78.740133,14.319397
00792,147519,9.598011,-0.470110,1.823317,-0.035110,-0.017181,-0.014568,-0.454130,0.118207,-0.372722,-15.368436,-78.752921,14.289193
00793,147619,9.528528,-0.481102,1.738793,-0.038225,-0.014944,-0.017052,-0.452691,0.118537,-0.369697,-15.351532,-78.764857,14.250174
00794,147719,9.542170,-0.491151,1.733272,-0.038967,-0.028009,-0.014010,-0.454119,0.119228,-0.373171,-15.353457,-78.783557,14.229921
00795,147819,9.578484,-0.481066,1.763133,-0.038652,-0.045782,-0.010421,-0.448119,0.121174,-0.374067,-15.378834,-78.811537,14.233759
00796,147919,9.618869,-0.483702,1.792169,-0.033821,-0.057647,-0.008937,-0.455074,0.121831,-0.375043,-15.414820,-78.845854,14.251232
00797,148019,9.664113,-0.487242,1.863844,-0.032030,-0.062266,-0.006590,-0.451107,0.122218,-0.374017,-15.460124,-78.882358,14.279246
00798,148119,9.674154,-0.535589,1.930144,-0.028738,-0.055417,-0.006364,-0.451061,0.126799,-0.375788,-15.499078,-78.915034,14.302706
00799,148219,9.660306,-0.595601,1.925010,-0.024823,-0.044987,-0.009247,-0.453061,0.128301,-0.375212,-15.519671,-78.942382,14.309739
00800,148319,9.603802,-0.610044,1.845142,-0.019877,-0.031703,-0.010854,-0.450569,0.128759,-0.375186,-15.522546,-78.962639,14.301603
00801,148419,9.556008,-0.589880,1.817731,-0.015598,-0.024645,-0.009030,-0.447536,0.127836,-0.377735,-15.522613,-78.978716,14.293105
00802,148519,9.517130,-0.509582,1.791534,-0.016122,-0.031518,-0.004705,-0.450997,0.131925,-0.378532,-15.540689,-78.997925,14.302645
00803,148619,9.561559,-0.400214,1.786427,-0.023569,-0.042943,-0.002818,-0.449538,0.132802,-0.376482,-15.577469,-79.023153,14.326894
00804,148719,9.640120,-0.351316,1.824880,-0.029097,-0.052720,-0.000066,-0.451025,0.131355,-0.377059,-15.633144,-79.053350,14.367163
00805,148819,9.710553,-0.328153,1.851312,-0.032252,-0.058629,-0.000997,-0.445067,0.131212,-0.376057,-15.692904,-79.086945,14.409750
00806,148919,9.759341,-0.389941,1.888809,-0.033648,-0.059174,-0.002571,-0.449510,0.132874,-0.377981,-15.749654,-79.121075,14.448455
00807,149019,9.795675,-0.453026,1.916924,-0.024863,-0.051368,-0.010085,-0.448508,0.136346,-0.377803,-15.773665,-79.152058,14.458946
00808,149119,9.704889,-0.576397,1.852309,-0.015955,-0.036781,-0.014418,-0.447520,0.136306,-0.377303,-15.768307,-79.175667,14.444729
00809,149219,9.589688,-0.691699,1.788699,-0.003621,-0.023612,-0.020967,-0.447498,0.138347,-0.378201,-15.726273,-79.193025,14.400363
00810,149319,9.491147,-0.786264,1.760265,0.003755,-0.021600,-0.020251,-0.450016,0.138812,-0.376677,-15.680439,-79.209151,14.356428
00811,149419,9.462943,-0.819590,1.738687,0.009152,-0.025827,-0.015538,-0.448471,0.141400,-0.379049,-15.648627,-79.226866,14.329910
00812,149519,9.487111,-0.746714,1.759403,0.015326,-0.037037,-0.008744,-0.449484,0.142364,-0.377999,-15.642147,-79.249709,14.332776
00813,149619,9.510323,-0.592078,1.774287,0.018095,-0.046889,0.002907,-0.446409,0.144028,-0.382420,-15.676096,-79.276181,14.378403
00814,149719,9.595924,-0.431206,1.825358,0.017826,-0.053445,0.008416,-0.447889,0.146568,-0.382793,-15.731842,-79.305405,14.446054
00815,149819,9.691530,-0.287989,1.854049,0.013758,-0.048903,0.009221,-0.445415,0.147476,-0.381742,-15.788760,-79.331985,14.512523
00816,149919,9.810373,-0.242921,1.827285,0.005926,-0.039331,0.009052,-0.446902,0.146528,-0.382293,-15.841900,-79.353307,14.570581
00817,150019,9.860339,-0.255177,1.781472,-0.008339,-0.034556,0.006310,-0.446857,0.151108,-0.384063,-15.891297,-79.372423,14.616515
00818,150119,9.825583,-0.331666,1.820988,-0.020516,-0.026350,0.003638,-0.443850,0.151109,-0.385062,-15.933024,-79.387433,14.647548
00819,150219,9.738357,-0.465467,1.817090,-0.027853,-0.019596,-0.003188,-0.444334,0.153632,-0.385435,-15.953268,-79.399789,14.652447
00820,150319,9.630186,-0.578976,1.819231,-0.030938,-0.013073,-0.010543,-0.445345,0.155592,-0.384334,-15.948177,-79.409703,14.629771
00821,150419,9.507107,-0.628728,1.795316,-0.031636,-0.009824,-0.009729,-0.444827,0.156629,-0.385283,-15.943184,-79.417689,14.606786
00822,150519,9.496992,-0.567299,1.774087,-0.026919,-0.010650,-0.006406,-0.444288,0.158710,-0.387180,-15.946004,-79.425602,14.594498
00823,150619,9.474340,-0.436628,1.760742,-0.020020,-0.014490,-0.000311,-0.445701,0.162913,-0.390976,-15.966082,-79.434668,14.603788
00824,150719,9.531683,-0.307221,1.722927,-0.014521,-0.017760,0.002402,-0.441679,0.162946,-0.392974,-15.993748,-79.445111,14.624005
00825,150819,9.634229,-0.252556,1.737985,-0.012665,-0.024983,-0.000085,-0.441144,0.167992,-0.394219,-16.019077,-79.459929,14.642929
00826,150919,9.714485,-0.310932,1.740556,-0.014144,-0.029381,-0.008461,-0.440126,0.169519,-0.395142,-16.024158,-79.478498,14.640399
00827,151019,9.779188,-0.460579,1.820118,-0.019278,-0.029798,-0.015373,-0.444035,0.170772,-0.399091,-16.011992,-79.498386,14.617337
00828,151119,9.797490,-0.567736,1.894989,-0.023106,-0.033898,-0.017215,-0.439029,0.174228,-0.399911,-15.999991,-79.520809,14.592211
00829,151219,9.719910,-0.629717,1.895236,-0.025659,-0.026320,-0.023652,-0.439026,0.175723,-0.399835,-15.963741,-79.540058,14.540940
00830,151319,9.611274,-0.693697,1.913305,-0.035109,-0.022101,-0.025225,-0.441002,0.179765,-0.400132,-15.924526,-79.557204,14.481146
00831,151419,9.617311,-0.609251,1.884137,-0.049287,-0.015997,-0.013343,-0.440909,0.180006,-0.405130,-15.923689,-79.569100,14.452118
00832,151519,9.667289,-0.432382,1.849750,-0.046775,0.002657,-0.003077,-0.437916,0.182449,-0.405002,-15.936160,-79.569096,14.438087
00833,151619,9.629480,-0.364318,1.650275,-0.039320,0.026646,-0.001604,-0.437892,0.185487,-0.405849,-15.928254,-79.555653,14.407679
00834,151719,9.616141,-0.353790,1.580706,-0.046470,0.023715,0.002535,-0.438360,0.187062,-0.407273,-15.939311,-79.543188,14.392390
00835,151819,9.610009,-0.442721,1.641231,-0.056469,0.003070,0.004650,-0.439838,0.191095,-0.407570,-15.980009,-79.541772,14.401416
00836,151919,9.651242,-0.523338,1.855944,-0.067003,-0.028157,0.009522,-0.438822,0.191626,-0.408544,-16.068068,-79.556768,14.452464
00837,152019,9.785142,-0.548522,1.985443,-0.064607,-0.037304,0.012684,-0.439786,0.194205,-0.409916,-16.172329,-79.576262,14.521380
00838,152119,9.791372,-0.533170,1.892256,-0.053374,-0.011963,0.009664,-0.438768,0.195732,-0.410839,-16.239330,-79.582265,14.558953
00839,152219,9.709101,-0.458703,1.762781,-0.045618,0.017946,0.009353,-0.437263,0.196729,-0.411288,-16.274885,-79.571860,14.569071
00840,152319,9.661539,-0.320310,1.690613,-0.047526,0.029431,0.011445,-0.438736,0.198295,-0.412212,-16.307642,-79.554808,14.575236
00841,152419,9.653303,-0.245830,1.682555,-0.047481,0.028233,0.007842,-0.437717,0.200321,-0.413110,-16.330530,-79.539004,14.571396
00842,152519,9.635822,-0.251292,1.673361,-0.047185,0.008336,0.002673,-0.436692,0.201373,-0.414558,-16.355102,-79.534983,14.569445
00843,152619,9.656987,-0.368044,1.709150,-0.040134,-0.011957,-0.004815,-0.439691,0.205857,-0.413331,-16.371025,-79.543332,14.562808
00844,152719,9.696136,-0.498174,1.765423,-0.023068,-0.019366,-0.012099,-0.437158,0.208903,-0.415176,-16.361942,-79.556927,14.540687
00845,152819,9.723448,-0.574416,1.816988,-0.001817,-0.020855,-0.014567,-0.434659,0.208389,-0.415701,-16.334595,-79.571730,14.512376
00846,152919,9.726584,-0.672399,1.858677,0.017522,-0.010251,-0.017634,-0.434176,0.210326,-0.414600,-16.277697,-79.581178,14.465283
00847,153019,9.653657,-0.761234,1.849624,0.025181,0.005847,-0.017040,-0.433653,0.213854,-0.415421,-16.204186,-79.581650,14.405756
00848,153119,9.619475,-0.745830,1.841551,0.022518,0.009660,-0.009516,-0.432636,0.214883,-0.416370,-16.151509,-79.578796,14.365856
00849,153219,9.628124,-0.601830,1.851899,0.016326,0.006783,-0.005247,-0.429635,0.216852,-0.416767,-16.117703,-79.576828,14.341534
00850,153319,9.662326,-0.476891,1.853180,0.012161,0.008910,-0.003085,-0.428626,0.218853,-0.417165,-16.090909,-79.573335,14.321917
00851,153419,9.681529,-0.413146,1.792364,0.006006,0.010430,0.001035,-0.425134,0.221289,-0.417037,-16.078633,-79.568347,14.313478
00852,153519,9.640341,-0.434701,1.727675,-0.002487,0.013570,0.004105,-0.419633,0.223243,-0.417933,-16.077684,-79.561144,14.311608
00853,153619,9.660700,-0.458553,1.733826,-0.006708,0.008674,0.007372,-0.417606,0.226772,-0.419254,-16.093116,-79.556119,14.323937
00854,153719,9.685049,-0.482474,1.780872,-0.005867,0.011337,0.011191,-0.413142,0.226652,-0.418253,-16.117153,-79.549018,14.345506
00855,153819,9.689606,-0.459607,1.820480,-0.002624,0.021147,0.014308,-0.409160,0.230053,-0.417574,-16.140109,-79.536014,14.367866
00856,153919,9.626388,-0.424587,1.766690,-0.008955,0.031658,0.014813,-0.406634,0.234570,-0.418844,-16.159046,-79.517143,14.382454
00857,154019,9.577907,-0.337442,1.661029,-0.023772,0.038112,0.013229,-0.402610,0.235599,-0.420791,-16.176092,-79.494981,14.386488
00858,154119,9.578952,-0.256125,1.681214,-0.040688,0.020617,0.016093,-0.398669,0.236412,-0.418240,-16.226232,-79.481995,14.414327
00859,154219,9.609437,-0.252925,1.650196,-0.055445,0.010757,0.014768,-0.394699,0.238792,-0.417112,-16.289233,-79.474653,14.446652
00860,154319,9.606710,-0.302207,1.667977,-0.063738,0.006354,0.010150,-0.394228,0.238712,-0.415613,-16.347007,-79.470478,14.468832
00861,154419,9.652781,-0.396566,1.719526,-0.064277,-0.003834,0.007666,-0.391707,0.240239,-0.417036,-16.406536,-79.472305,14.492484
00862,154519,9.700142,-0.463272,1.802525,-0.055429,-0.006141,0.003850,-0.386792,0.239493,-0.413560,-16.451718,-79.476011,14.506702
00863,154619,9.723501,-0.499646,1.832576,-0.041734,-0.001869,0.000433,-0.386370,0.238296,-0.409613,-16.475221,-79.477917,14.506848
00864,154719,9.697677,-0.518470,1.822088,-0.031020,0.001008,-0.006213,-0.382909,0.239663,-0.408036,-16.470411,-79.479316,14.484444
00865,154819,9.644712,-0.520446,1.809992,-0.023661,0.004029,-0.012065,-0.381970,0.238507,-0.405088,-16.441429,-79.479999,14.441741
00866,154919,9.609700,-0.549291,1.769134,-0.022214,0.012489,-0.016526,-0.380478,0.236988,-0.405164,-16.391067,-79.476745,14.378135
00867,155019,9.573399,-0.556933,1.693220,-0.027642,0.026538,-0.018220,-0.376608,0.235141,-0.399241,-16.326702,-79.466030,14.297120
00868,155119,9.548932,-0.567898,1.613555,-0.042014,0.041897,-0.018144,-0.375642,0.233558,-0.397817,-16.257769,-79.446846,14.203075
00869,155219,9.556760,-0.540430,1.541729,-0.051107,0.040955,-0.013828,-0.372211,0.233359,-0.394818,-16.207917,-79.427485,14.123133
00870,155319,9.587764,-0.472913,1.590231,-0.066963,0.019407,-0.004424,-0.375757,0.231277,-0.391921,-16.213477,-79.418481,14.090315
00871,155419,9.658444,-0.450469,1.704545,-0.080262,-0.008083,-0.001059,-0.371312,0.231109,-0.389921,-16.260123,-79.424068,14.091542
00872,155519,9.753643,-0.425525,1.850999,-0.079265,-0.018528,0.003061,-0.372892,0.229920,-0.385474,-16.327331,-79.434731,14.114268
00873,155619,9.801175,-0.435606,1.932374,-0.071227,-0.018303,-0.001583,-0.371485,0.227188,-0.381102,-16.376077,-79.446005,14.122900
00874,155719,9.754703,-0.483239,1.877347,-0.059192,-0.008119,-0.007106,-0.370032,0.225075,-0.379204,-16.392815,-79.452565,14.105989
00875,155819,9.683117,-0.552240,1.809572,-0.050692,0.004712,-0.016316,-0.370040,0.225549,-0.378679,-16.366365,-79.453553,14.050102
00876,155919,9.608793,-0.613712,1.722576,-0.043792,0.016367,-0.020660,-0.369679,0.221716,-0.371859,-16.313112,-79.448826,13.970968
00877,156019,9.564941,-0.664143,1.613865,-0.031795,0.014619,-0.020728,-0.371271,0.219008,-0.366989,-16.254441,-79.445062,13.893311
00878,156119,9.559082,-0.653526,1.579629,-0.020377,0.000872,-0.020146,-0.374319,0.216918,-0.364092,-16.202874,-79.448761,13.829529
00879,156219,9.546356,-0.631152,1.613513,-0.008680,-0.018340,-0.016982,-0.374864,0.211349,-0.362373,-16.170456,-79.462523,13.792041
00880,156319,9.589477,-0.584176,1.706196,-0.001279,-0.034839,-0.014966,-0.376429,0.213173,-0.358273,-16.153880,-79.485041,13.774979
00881,156419,9.611659,-0.507114,1.742207,-0.002475,-0.031275,-0.011916,-0.376956,0.207154,-0.357579,-16.143924,-79.505108,13.763954
00882,156519,9.606265,-0.468668,1.768302,-0.015045,-0.025589,-0.009791,-0.376063,0.201417,-0.352859,-16.142553,-79.521706,13.754336
00883,156619,9.595405,-0.417969,1.704253,-0.025055,-0.011049,-0.005630,-0.377595,0.200846,-0.350886,-16.146742,-79.529642,13.744541
00884,156719,9.591949,-0.452913,1.638448,-0.030660,-0.004901,-0.003470,-0.377640,0.201722,-0.348336,-16.155270,-79.533858,13.735893
00885,156819,9.620516,-0.538216,1.642036,-0.027005,-0.007534,0.001545,-0.380699,0.199110,-0.344966,-16.178960,-79.538728,13.744792
00886,156919,9.643692,-0.621298,1.668191,-0.019089,-0.013361,0.005160,-0.383744,0.193557,-0.342747,-16.214021,-79.546227,13.769862
00887,157019,9.711317,-0.609872,1.733622,-0.004752,-0.019155,0.010259,-0.384267,0.194987,-0.341172,-16.261215,-79.556092,13.815621
00888,157119,9.763541,-0.602697,1.756713,0.007941,-0.023252,0.011784,-0.382263,0.195976,-0.341620,-16.309402,-79.567954,13.869781
00889,157219,9.743542,-0.533155,1.753813,0.015758,-0.021286,0.011595,-0.384293,0.195911,-0.339621,-16.350949,-79.578757,13.921739
00890,157319,9.662846,-0.489104,1.720213,0.020766,-0.019572,0.006655,-0.385354,0.190800,-0.336877,-16.373433,-79.589411,13.957232
00891,157419,9.594524,-0.496297,1.668196,0.022359,-0.022298,0.000627,-0.385334,0.191845,-0.337826,-16.379420,-79.602538,13.976878
00892,157519,9.568255,-0.474905,1.654005,0.022526,-0.021560,-0.004841,-0.385890,0.195670,-0.334124,-16.368290,-79.616147,13.979218
00893,157619,9.579208,-0.446878,1.655225,0.026293,-0.015831,-0.006315,-0.386920,0.192126,-0.332803,-16.345501,-79.626849,13.971899
00894,157719,9.599470,-0.422149,1.651335,0.027239,-0.014099,-0.006391,-0.386384,0.192713,-0.334776,-16.320363,-79.636616,13.962745
00895,157819,9.609872,-0.385486,1.641666,0.024176,-0.017742,-0.004692,-0.387350,0.194295,-0.336200,-16.305238,-79.648120,13.961986
00896,157919,9.653751,-0.385046,1.668637,0.019463,-0.028344,-0.003063,-0.386364,0.193259,-0.335750,-16.307019,-79.665198,13.975670
00897,158019,9.720909,-0.446528,1.782423,0.011702,-0.032675,-0.002876,-0.385889,0.196168,-0.334099,-16.317646,-79.684623,13.993825
00898,158119,9.794168,-0.468719,1.793606,0.020358,-0.013727,-0.000168,-0.385380,0.197181,-0.334548,-16.314750,-79.693188,14.003277
00899,158219,9.749377,-0.473652,1.726848,0.026564,0.002746,-0.002677,-0.387357,0.195268,-0.335649,-16.286125,-79.693098,13.990192
00900,158319,9.680572,-0.540925,1.615263,0.025898,0.016304,-0.005630,-0.390906,0.197147,-0.332050,-16.237041,-79.686030,13.955922
00901,158419,9.604855,-0.584718,1.614723,0.029880,0.024944,-0.006223,-0.386390,0.199640,-0.333421,-16.176421,-79.674300,13.912242
00902,158519,9.519172,-0.590058,1.668467,0.008533,0.017794,-0.006102,-0.386403,0.197623,-0.333023,-16.134803,-79.666478,13.875442
00903,158619,9.541269,-0.560758,1.685253,-0.022490,-0.001359,-0.000780,-0.390879,0.201679,-0.332821,-16.143819,-79.668347,13.872039
00904,158719,9.633108,-0.478575,1.712152,-0.030959,-0.002124,0.009168,-0.391416,0.200595,-0.330873,-16.188393,-79.669049,13.899848
00905,158819,9.671169,-0.432381,1.669974,-0.032262,0.010827,0.016304,-0.387889,0.202629,-0.332769,-16.243855,-79.661484,13.937967
00906,158919,9.675881,-0.444516,1.671046,-0.027316,0.020723,0.014684,-0.393389,0.201173,-0.331848,-16.282819,-79.648735,13.962199
00907,159019,9.700322,-0.420215,1.793709,-0.018766,0.031464,0.010467,-0.395471,0.202956,-0.326749,-16.294651,-79.630751,13.963831
00908,159119,9.682232,-0.411256,1.856196,-0.013627,0.036778,0.007883,-0.395980,0.202442,-0.326274,-16.291058,-79.610251,13.952778
00909,159219,9.649436,-0.424584,1.797784,-0.015451,0.037006,0.004083,-0.393998,0.201390,-0.325825,-16.276926,-79.590231,13.929947
00910,159319,9.595556,-0.396686,1.700175,-0.017293,0.033519,0.000410,-0.398464,0.201011,-0.326851,-16.255944,-79.572720,13.899079
00911,159419,9.535671,-0.408082,1.601658,-0.023216,0.030196,-0.002043,-0.398481,0.201461,-0.325826,-16.233988,-79.557438,13.863770
00912,159519,9.525069,-0.397073,1.525687,-0.031772,0.021079,-0.004102,-0.401919,0.203131,-0.328250,-16.218766,-79.547515,13.830322
00913,159619,9.537992,-0.430240,1.556880,-0.036485,0.012154,-0.006422,-0.403519,0.200897,-0.322854,-16.207097,-79.542884,13.797741
00914,159719,9.603708,-0.519246,1.667346,-0.042132,-0.001794,-0.002958,-0.404435,0.204593,-0.326675,-16.221111,-79.545376,13.787984
00915,159819,9.680891,-0.615776,1.825167,-0.051726,-0.008622,-0.001499,-0.402992,0.201460,-0.324328,-16.250944,-79.551382,13.788722
00916,159919,9.687237,-0.664453,1.918435,-0.054016,-0.007997,0.003902,-0.407496,0.200486,-0.323381,-16.297733,-79.556158,13.805367
00917,160019,9.652761,-0.639001,1.871200,-0.048259,-0.004917,0.004173,-0.409486,0.202013,-0.323305,-16.339414,-79.559180,13.820168
00918,160119,9.560791,-0.578121,1.755813,-0.042317,-0.005596,0.001408,-0.406033,0.203854,-0.321203,-16.370083,-79.563013,13.827232
00919,160219,9.488045,-0.532051,1.629238,-0.037827,-0.009473,0.000341,-0.409966,0.207027,-0.323551,-16.398443,-79.569154,13.834563
00920,160319,9.484424,-0.509771,1.579588,-0.034907,-0.016621,-0.003129,-0.410460,0.204069,-0.324203,-16.421097,-79.579793,13.837792
00921,160419,9.526126,-0.498930,1.514817,-0.028168,-0.027665,-0.003659,-0.412510,0.202960,-0.321256,-16.448107,-79.596600,13.849374
00922,160519,9.577951,-0.482862,1.542359,-0.022132,-0.044823,-0.001105,-0.411548,0.204343,-0.319180,-16.494615,-79.622430,13.884294
00923,160619,9.642305,-0.489179,1.588409,-0.024730,-0.059726,-0.001538,-0.413990,0.205997,-0.321604,-16.554841,-79.656520,13.931642
00924,160719,9.682223,-0.453958,1.712721,-0.032202,-0.074725,0.002607,-0.414006,0.206945,-0.320554,-16.645726,-79.698157,14.005796
00925,160819,9.695018,-0.472976,1.761657,-0.035091,-0.074277,0.004459,-0.413456,0.210546,-0.322874,-16.744124,-79.739217,14.085894
00926,160919,9.750620,-0.485775,1.701619,-0.043446,-0.057472,0.003847,-0.414446,0.208593,-0.323476,-16.830713,-79.771136,14.149119
00927,161019,9.706823,-0.546460,1.647471,-0.048639,-0.037940,0.001787,-0.413422,0.213607,-0.324221,-16.896429,-79.792676,14.188104
00928,161119,9.583735,-0.564818,1.594618,-0.052072,-0.030826,-0.001479,-0.414916,0.214129,-0.324196,-16.947807,-79.810858,14.210518
00929,161219,9.528393,-0.571858,1.584229,-0.050162,-0.036721,-0.002608,-0.416806,0.219384,-0.328941,-17.000318,-79.832458,14.235192
00930,161319,9.492601,-0.553570,1.550392,-0.046234,-0.046574,-0.003459,-0.415308,0.221353,-0.328839,-17.057422,-79.859600,14.266816
00931,161419,9.455998,-0.503032,1.527198,-0.041156,-0.063460,-0.004295,-0.414790,0.222390,-0.329787,-17.125264,-79.896132,14.312298
00932,161519,9.428569,-0.425723,1.574200,-0.038704,-0.082479,-0.009317,-0.415780,0.225893,-0.329610,-17.194737,-79.943920,14.360859
00933,161619,9.528631,-0.400051,1.638604,-0.037958,-0.102227,-0.006732,-0.418293,0.228850,-0.327959,-17.291362,-80.002064,14.437419
00934,161719,9.674952,-0.391731,1.712561,-0.040449,-0.113083,-0.002417,-0.417720,0.229533,-0.331932,-17.414445,-80.065378,14.539382
00935,161819,9.792358,-0.373673,1.757274,-0.047681,-0.112296,-0.000296,-0.419718,0.231534,-0.331331,-17.548926,-80.127853,14.648693
00936,161919,9.875388,-0.402848,1.786888,-0.052631,-0.099132,-0.000999,-0.422214,0.233542,-0.330730,-17.672278,-80.183209,14.743812
00937,162019,9.919874,-0.465572,1.728099,-0.052106,-0.079294,-0.003798,-0.425209,0.235558,-0.330130,-17.767512,-80.228191,14.810690
00938,162119,9.832968,-0.550695,1.636542,-0.055507,-0.061852,-0.009087,-0.427161,0.237679,-0.332028,-17.830798,-80.264566,14.843164
00939,162219,9.680601,-0.587634,1.606780,-0.061244,-0.059336,-0.014788,-0.429684,0.240113,-0.329903,-17.876998,-80.300563,14.854964
00940,162319,9.559948,-0.587383,1.570702,-0.067450,-0.062307,-0.020012,-0.431232,0.240989,-0.326854,-17.913364,-80.339094,14.853178
00941,162419,9.447626,-0.535344,1.528289,-0.068898,-0.069101,-0.019647,-0.433243,0.241471,-0.325829,-17.958968,-80.381265,14.859919
00942,162519,9.422186,-0.485587,1.525716,-0.070766,-0.076227,-0.019076,-0.431762,0.243890,-0.324702,-18.015198,-80.427217,14.876351
00943,162619,9.456420,-0.472183,1.510163,-0.064196,-0.093447,-0.016176,-0.438753,0.244949,-0.323654,-18.095652,-80.482033,14.921162
00944,162719,9.568222,-0.500377,1.525757,-0.053597,-0.119240,-0.010156,-0.438808,0.245302,-0.320630,-18.218098,-80.549804,15.014695
00945,162819,9.666012,-0.487654,1.592287,-0.041304,-0.131446,-0.004025,-0.444774,0.246418,-0.321080,-18.368525,-80.623071,15.143712
00946,162919,9.718223,-0.450343,1.666943,-0.033351,-0.130378,0.001494,-0.445300,0.246852,-0.319556,-18.533642,-80.694690,15.292207
00947,163019,9.725381,-0.435925,1.631166,-0.034651,-0.117699,0.003619,-0.447328,0.247285,-0.317532,-18.694662,-80.758961,15.435770
00948,163119,9.674059,-0.432771,1.555881,-0.042335,-0.103908,0.005984,-0.449849,0.246256,-0.316084,-18.854328,-80.815246,15.573478
00949,163219,9.627968,-0.457002,1.472214,-0.048669,-0.093834,0.010650,-0.452914,0.244616,-0.312163,-19.023474,-80.865143,15.717092
00950,163319,9.522755,-0.472231,1.409151,-0.058497,-0.089958,0.016129,-0.456411,0.244648,-0.311664,-19.213951,-80.911846,15.876587
00951,163419,9.496329,-0.470193,1.374607,-0.066955,-0.098770,0.019320,-0.457920,0.246616,-0.310563,-19.432472,-80.962624,16.059551
00952,163519,9.507565,-0.435361,1.434637,-0.071547,-0.113451,0.022582,-0.457915,0.249605,-0.310411,-19.684890,-81.020585,16.274145
00953,163619,9.591565,-0.385860,1.505856,-0.071383,-0.125562,0.026127,-0.462413,0.246165,-0.310090,-19.967409,-81.084225,16.519272
00954,163719,9.713427,-0.400030,1.572393,-0.066112,-0.134275,0.023990,-0.466472,0.246534,-0.306067,-20.254309,-81.152778,16.771848
00955,163819,9.822332,-0.444361,1.570753,-0.063337,-0.135306,0.024115,-0.469485,0.248502,-0.304467,-20.545524,-81.221655,17.030354
00956,163919,9.890410,-0.520587,1.575535,-0.066521,-0.127791,0.022890,-0.470007,0.245472,-0.303621,-20.828606,-81.286542,17.278739
00957,164019,9.896767,-0.563069,1.478724,-0.070309,-0.115648,0.025030,-0.473026,0.244451,-0.302173,-21.108907,-81.344302,17.522075
00958,164119,9.854260,-0.537997,1.363143,-0.072834,-0.109819,0.025340,-0.477557,0.243405,-0.299726,-21.387226,-81.398709,17.761906
00959,164219,9.778697,-0.472877,1.333652,-0.068831,-0.113033,0.026868,-0.476582,0.241846,-0.298802,-21.676449,-81.454334,18.015049
00960,164319,9.682317,-0.371625,1.371149,-0.069565,-0.121995,0.024018,-0.480582,0.243854,-0.297702,-21.972264,-81.515144,18.274396
00961,164419,9.648217,-0.282634,1.390312,-0.063914,-0.110981,0.019197,-0.484577,0.243395,-0.297229,-22.235312,-81.570963,18.503853
00962,164519,9.547341,-0.256605,1.404765,-0.059548,-0.083885,0.009232,-0.488106,0.240863,-0.295358,-22.422907,-81.614459,18.659542
00963,164619,9.487002,-0.371179,1.344143,-0.068557,-0.071862,0.001015,-0.490633,0.241304,-0.293334,-22.569712,-81.653328,18.768770
00964,164719,9.538962,-0.557440,1.284761,-0.072041,-0.080517,-0.002730,-0.496085,0.240966,-0.294861,-22.719284,-81.697558,18.878765
00965,164819,9.687825,-0.753753,1.429209,-0.074485,-0.099358,-0.004521,-0.494118,0.241858,-0.293310,-22.894132,-81.752077,19.012871
00966,164919,9.893109,-0.909813,1.504282,-0.073559,-0.113178,0.003879,-0.500644,0.239847,-0.290914,-23.122975,-81.811910,19.202043
00967,165019,10.028264,-0.891726,1.513307,-0.058522,-0.104914,0.015971,-0.501124,0.239903,-0.291914,-23.377755,-81.864521,19.426090
00968,165119,9.963007,-0.763979,1.368702,-0.035838,-0.077535,0.023362,-0.506094,0.240505,-0.292390,-23.605811,-81.900912,19.636245
00969,165219,9.774694,-0.642423,1.196059,-0.020484,-0.058848,0.025258,-0.504111,0.240449,-0.291890,-23.803610,-81.926956,19.824706
00970,165319,9.612174,-0.555991,1.148814,-0.015204,-0.060257,0.019122,-0.509609,0.240488,-0.290892,-23.979259,-81.955084,19.993837
00971,165419,9.499910,-0.496780,1.208348,-0.017100,-0.064837,0.020261,-0.511553,0.242135,-0.293315,-24.169043,-81.985269,20.176134
00972,165519,9.410299,-0.486842,1.201292,-0.027768,-0.076809,0.020589,-0.512547,0.243147,-0.293265,-24.387743,-82.021543,20.381445
00973,165619,9.413695,-0.488051,1.186293,-0.035745,-0.096436,0.022749,-0.515511,0.241772,-0.294841,-24.654610,-82.067416,20.630756
00974,165719,9.577664,-0.524204,1.206249,-0.038652,-0.108540,0.028959,-0.517539,0.242205,-0.292817,-24.970540,-82.117918,20.927890
00975,165819,9.767505,-0.518395,1.266773,-0.036211,-0.109129,0.034261,-0.521505,0.242815,-0.293793,-25.309988,-82.167199,21.250141
00976,165919,9.904286,-0.455820,1.321534,-0.034422,-0.098976,0.035577,-0.519534,0.246199,-0.292115,-25.639060,-82.210645,21.562921
00977,166019,9.992869,-0.422671,1.343559,-0.035287,-0.083004,0.030016,-0.522994,0.245828,-0.293641,-25.921632,-82.247008,21.828243
00978,166119,9.977723,-0.420662,1.336289,-0.039065,-0.069671,0.020134,-0.522983,0.246849,-0.294090,-26.146488,-82.278832,22.033115
00979,166219,9.899708,-0.476679,1.298055,-0.041634,-0.065135,0.011691,-0.525928,0.250480,-0.295912,-26.333866,-82.310362,22.198668
00980,166319,9.771994,-0.545390,1.274785,-0.039545,-0.065209,0.002913,-0.527940,0.249965,-0.294939,-26.488121,-82.344097,22.331994
00981,166419,9.670382,-0.570445,1.231879,-0.042424,-0.062843,-0.001740,-0.526451,0.246952,-0.295090,-26.622936,-82.377762,22.444033
00982,166519,9.557580,-0.535757,1.180116,-0.049208,-0.070129,-0.000592,-0.528890,0.250102,-0.297438,-26.781242,-82.414821,22.575839
00983,166619,9.522363,-0.502883,1.158263,-0.058393,-0.078392,0.002371,-0.530390,0.252094,-0.296837,-26.973827,-82.455284,22.736906
00984,166719,9.576891,-0.489673,1.192268,-0.068020,-0.091447,0.007134,-0.532342,0.253717,-0.298761,-27.218171,-82.501082,22.944603
00985,166819,9.648326,-0.479701,1.234994,-0.073116,-0.097617,0.012176,-0.535376,0.254640,-0.296211,-27.500198,-82.548563,23.187340
00986,166919,9.735059,-0.474437,1.256916,-0.081120,-0.099960,0.012064,-0.534813,0.254801,-0.299710,-27.794467,-82.597100,23.437773
00987,167019,9.820350,-0.452219,1.242652,-0.084282,-0.090025,0.007129,-0.537320,0.255789,-0.298661,-28.053975,-82.641772,23.651304
00988,167119,9.811704,-0.471289,1.242700,-0.085999,-0.082205,0.005255,-0.538316,0.255805,-0.298661,-28.293354,-82.682878,23.843528
00989,167219,9.791887,-0.570149,1.237305,-0.087733,-0.072170,-0.001960,-0.539796,0.253385,-0.299788,-28.486200,-82.720791,23.987822
00990,167319,9.738167,-0.667178,1.182484,-0.088305,-0.062020,-0.001333,-0.540835,0.250315,-0.297941,-28.661711,-82.753358,24.114298
00991,167419,9.686386,-0.758948,1.147469,-0.096865,-0.069547,-0.001241,-0.543769,0.254967,-0.300213,-28.860382,-82.789616,24.259164
00992,167519,9.622559,-0.832275,1.171348,-0.095313,-0.078541,0.002688,-0.545775,0.252982,-0.299815,-29.095532,-82.829207,24.441680
00993,167619,9.587899,-0.870779,1.178539,-0.087087,-0.096294,0.009591,-0.548794,0.251462,-0.298393,-29.395826,-82.875615,24.694580
00994,167719,9.622331,-0.875595,1.213076,-0.078793,-0.109616,0.015866,-0.547784,0.253962,-0.298765,-29.750717,-82.926684,25.007257
00995,167819,9.649225,-0.795838,1.237547,-0.068974,-0.116772,0.022809,-0.551302,0.252450,-0.297343,-30.149493,-82.979043,25.369785
00996,167919,9.662141,-0.673110,1.203223,-0.061129,-0.121198,0.025805,-0.556257,0.251605,-0.298895,-30.572088,-83.032390,25.760799
00997,168019,9.692116,-0.605146,1.162222,-0.055393,-0.120971,0.026016,-0.555726,0.249202,-0.301021,-30.997900,-83.085199,26.158321
00998,168119,9.671536,-0.524310,1.131821,-0.048088,-0.120777,0.019458,-0.555753,0.249628,-0.299496,-31.398606,-83.139508,26.534726
00999,168219,9.658754,-0.463455,1.127737,-0.036700,-0.116125,0.008142,-0.557769,0.246622,-0.298650,-31.740872,-83.194645,26.858804
01000,168319,9.664891,-0.432873,1.117745,-0.022656,-0.108334,-0.001875,-0.558767,0.245642,-0.298701,-32.019243,-83.248811,27.126605
01001,168419,9.702066,-0.473641,1.116748,-0.012312,-0.104542,-0.010920,-0.559236,0.246718,-0.300149,-32.248753,-83.303752,27.351148
01002,168519,9.740218,-0.558275,1.143249,-0.007750,-0.105878,-0.014018,-0.559754,0.245682,-0.299201,-32.469976,-83.360176,27.569954
01003,168619,9.794826,-0.616626,1.175733,-0.001233,-0.104564,-0.018695,-0.560790,0.244106,-0.297278,-32.668081,-83.417303,27.769221
01004,168719,9.828326,-0.672745,1.165102,0.004638,-0.103709,-0.017412,-0.563234,0.244266,-0.299778,-32.869323,-83.473524,27.975010
01005,168819,9.880356,-0.684549,1.148065,0.004536,-0.104049,-0.014167,-0.565778,0.240698,-0.297458,-33.088804,-83.528795,28.199075
01006,168919,9.891097,-0.635212,1.120144,0.003441,-0.097016,-0.007937,-0.567239,0.243783,-0.298805,-33.319524,-83.578628,28.433796
01007,169019,9.818425,-0.555315,1.108509,0.005675,-0.096132,0.000575,-0.568218,0.242851,-0.299856,-33.586375,-83.625227,28.706141
01008,169119,9.712194,-0.525027,1.083903,0.011930,-0.098634,0.007331,-0.568761,0.243735,-0.297306,-33.889666,-83.670710,29.018734
01009,169219,9.623259,-0.519580,1.092977,0.025344,-0.108625,0.009092,-0.567223,0.242337,-0.299881,-34.226391,-83.720168,29.372670
01010,169319,9.590163,-0.553602,1.089424,0.039015,-0.106801,0.009788,-0.570736,0.243316,-0.298331,-34.558193,-83.768300,29.729503
01011,169419,9.635271,-0.590771,1.099671,0.044617,-0.088454,0.007191,-0.572703,0.241925,-0.299908,-34.825330,-83.808419,30.024488
01012,169519,9.698354,-0.599149,0.997543,0.045756,-0.066392,0.007615,-0.571229,0.240857,-0.298959,-35.029929,-83.837896,30.257207
01013,169619,9.689107,-0.580551,0.894799,0.042523,-0.067468,0.010996,-0.573692,0.240470,-0.300484,-35.256503,-83.866669,30.510152
01014,169719,9.685448,-0.550096,0.927434,0.040849,-0.084458,0.013631,-0.573193,0.241459,-0.300433,-35.550665,-83.902378,30.830093
01015,169819,9.731108,-0.534995,1.019115,0.048528,-0.096855,0.017995,-0.575181,0.238525,-0.301086,-35.902218,-83.942195,31.212154
01016,169919,9.795319,-0.520526,1.051517,0.062514,-0.099426,0.023139,-0.577200,0.239481,-0.299537,-36.281233,-83.981200,31.629861
01017,170019,9.794356,-0.529323,1.057259,0.084477,-0.098078,0.029300,-0.578631,0.238677,-0.303087,-36.675270,-84.017180,32.075301
01018,170119,9.772363,-0.568754,1.085951,0.106601,-0.107889,0.033964,-0.576101,0.239730,-0.305034,-37.114541,-84.055700,32.578937
01019,170219,9.726629,-0.586031,1.146776,0.113395,-0.119462,0.031879,-0.580606,0.238258,-0.304112,-37.585838,-84.099780,33.118649
01020,170319,9.752191,-0.562544,1.190613,0.110664,-0.122299,0.028488,-0.579590,0.238789,-0.305086,-38.060934,-84.145856,33.660566
01021,170419,9.827235,-0.489610,1.172914,0.093791,-0.122673,0.028330,-0.580111,0.236258,-0.304214,-38.554119,-84.191672,34.210907
01022,170519,9.811097,-0.378701,1.152252,0.068480,-0.118106,0.030362,-0.580611,0.235269,-0.304265,-39.062397,-84.234220,34.761804
01023,170619,9.811624,-0.292994,1.107421,0.047845,-0.109642,0.031933,-0.582583,0.236345,-0.305214,-39.566103,-84.271952,35.296189
01024,170719,9.749903,-0.215296,1.084409,0.034880,-0.100347,0.029152,-0.582550,0.233951,-0.307340,-40.037064,-84.306161,35.790173
01025,170819,9.777887,-0.197061,1.028608,0.033544,-0.087878,0.028934,-0.582999,0.235574,-0.309763,-40.466444,-84.334617,36.241580
01026,170919,9.766823,-0.279137,0.933460,0.042165,-0.076325,0.021429,-0.586056,0.233958,-0.306341,-40.818193,-84.360555,36.619923
01027,171019,9.706104,-0.436774,0.903307,0.049389,-0.078898,0.016088,-0.587541,0.234006,-0.306842,-41.155407,-84.389391,36.987805
01028,171119,9.718299,-0.642966,0.945902,0.051283,-0.089009,0.010878,-0.586517,0.233564,-0.308366,-41.511513,-84.424317,37.375740
01029,171219,9.714678,-0.805459,1.059815,0.049845,-0.087280,0.012279,-0.585049,0.234464,-0.306816,-41.872404,-84.457705,37.767632
01030,171319,9.722809,-0.820404,1.160768,0.038643,-0.095147,0.016387,-0.584994,0.234111,-0.309840,-42.293668,-84.492566,38.213710
01031,171419,9.789892,-0.710172,1.158293,0.026622,-0.100884,0.026789,-0.586030,0.233033,-0.307892,-42.796104,-84.525442,38.734390
01032,171519,9.872140,-0.534253,1.093491,0.024001,-0.092304,0.039468,-0.585510,0.234070,-0.308841,-43.325965,-84.549303,39.281091
01033,171619,9.826492,-0.401141,0.932232,0.029507,-0.087139,0.049314,-0.589996,0.232646,-0.308918,-43.878283,-84.566639,39.853504
01034,171719,9.748691,-0.297269,0.827947,0.037086,-0.083616,0.057998,-0.587026,0.232551,-0.307918,-44.452061,-84.578539,40.451826
01035,171819,9.663598,-0.222507,0.791345,0.046402,-0.085225,0.054580,-0.587523,0.233556,-0.307867,-45.014992,-84.591929,41.044606
01036,171919,9.625828,-0.253906,0.789071,0.056714,-0.092002,0.042986,-0.589560,0.234463,-0.305318,-45.554657,-84.612251,41.619939
01037,172019,9.734997,-0.414975,0.831051,0.068339,-0.102313,0.032085,-0.589025,0.234053,-0.307342,-46.090832,-84.640665,42.198436
01038,172119,9.878952,-0.611668,0.896948,0.083403,-0.103395,0.025198,-0.590068,0.234447,-0.304818,-46.599876,-84.671860,42.758326
01039,172219,9.920366,-0.766700,0.931613,0.106059,-0.100394,0.025612,-0.589583,0.231924,-0.304445,-47.090202,-84.701231,43.312427
01040,172319,9.890783,-0.753087,0.935220,0.124559,-0.091085,0.024840,-0.591581,0.233924,-0.303844,-47.529653,-84.726874,43.826057
01041,172419,9.849424,-0.686162,0.851747,0.136067,-0.077812,0.028733,-0.593632,0.232316,-0.300922,-47.921784,-84.745398,44.298769
01042,172519,9.806568,-0.598316,0.836182,0.151162,-0.055523,0.035746,-0.594133,0.230830,-0.300999,-48.233305,-84.752128,44.699211
01043,172619,9.684033,-0.466905,0.809713,0.162636,-0.037333,0.038815,-0.594107,0.229906,-0.302549,-48.466522,-84.750448,45.027620
01044,172719,9.601207,-0.376645,0.748361,0.162387,-0.039369,0.039932,-0.594663,0.228773,-0.299601,-48.713604,-84.748946,45.369814
01045,172819,9.554775,-0.343304,0.719752,0.156814,-0.050359,0.035779,-0.595594,0.228957,-0.303100,-48.998235,-84.753250,45.746513
01046,172919,9.527791,-0.343627,0.755262,0.142231,-0.065937,0.033820,-0.594640,0.225856,-0.301253,-49.357403,-84.764058,46.189669
01047,173019,9.561537,-0.383179,0.784347,0.124347,-0.079959,0.031533,-0.600138,0.225894,-0.300255,-49.786083,-84.780804,46.692331
01048,173119,9.625166,-0.417009,0.816952,0.109112,-0.088721,0.032011,-0.597671,0.223315,-0.299381,-50.270555,-84.800207,47.242240
01049,173219,9.720561,-0.443944,0.853148,0.099157,-0.090183,0.030123,-0.599138,0.222913,-0.300907,-50.763908,-84.820553,47.795324
01050,173319,9.810524,-0.454847,0.901416,0.090261,-0.089188,0.025890,-0.602186,0.220823,-0.298011,-51.244408,-84.842001,48.330372
01051,173419,9.871868,-0.492542,0.827447,0.095763,-0.080173,0.019754,-0.601718,0.219249,-0.296587,-51.656377,-84.862605,48.799760
01052,173519,9.879435,-0.580242,0.717570,0.110152,-0.087769,0.016039,-0.603691,0.219826,-0.297562,-52.087253,-84.887262,49.296393
01053,173619,9.783832,-0.680857,0.580666,0.122599,-0.094844,0.013756,-0.606683,0.218379,-0.297639,-52.542693,-84.915090,49.824828
01054,173719,9.560766,-0.807057,0.415419,0.134340,-0.102026,0.010950,-0.602226,0.218734,-0.296113,-53.023220,-84.946302,50.385172
01055,173819,9.331996,-0.877498,0.378452,0.138172,-0.122114,0.010852,-0.603745,0.215720,-0.295266,-53.613321,-84.983965,51.057686
01056,173919,9.130078,-0.913488,0.431332,0.140109,-0.135514,0.016458,-0.608216,0.212352,-0.296445,-54.305114,-85.022872,51.833351
01057,174019,9.069162,-0.918585,0.478873,0.155793,-0.141504,0.021313,-0.606285,0.214144,-0.292844,-55.050499,-85.060628,52.671780
01058,174119,9.085678,-0.943092,0.487756,0.172957,-0.145490,0.026765,-0.608256,0.210263,-0.294548,-55.840702,-85.096113,53.565015
01059,174219,9.277748,-0.959443,0.521478,0.186687,-0.139503,0.030590,-0.608248,0.209789,-0.295073,-56.615734,-85.126800,54.450871
01060,174319,9.660387,-0.997087,0.517586,0.194444,-0.120926,0.032142,-0.609311,0.208639,-0.291625,-57.296704,-85.149955,55.246748
01061,174419,10.039960,-1.055035,0.540660,0.195948,-0.103496,0.034415,-0.608293,0.210665,-0.292523,-57.891895,-85.165882,55.957379
01062,174519,10.249431,-1.116515,0.552650,0.189573,-0.099465,0.036571,-0.608778,0.207731,-0.293675,-58.479424,-85.178896,56.656636
01063,174619,10.385531,-1.121658,0.554105,0.185190,-0.107288,0.033239,-0.610267,0.210246,-0.293549,-59.107146,-85.195213,57.393689
01064,174719,10.464349,-1.064317,0.531656,0.183410,-0.120253,0.032018,-0.610333,0.204621,-0.290829,-59.813060,-85.215166,58.208166
01065,174819,10.384536,-0.995988,0.504044,0.186796,-0.118051,0.029106,-0.610802,0.205199,-0.292303,-60.500356,-85.235093,59.005879
01066,174919,10.134862,-0.934907,0.521765,0.198125,-0.121353,0.030427,-0.610843,0.203110,-0.290406,-61.211675,-85.254453,59.834189
01067,175019,9.816294,-0.904035,0.541928,0.221278,-0.132277,0.029905,-0.612325,0.204653,-0.290830,-61.981047,-85.276150,60.734035
01068,175119,9.576102,-0.907545,0.600670,0.250298,-0.148108,0.024612,-0.612834,0.204138,-0.290356,-62.822572,-85.303671,61.722930
01069,175219,9.470244,-1.025097,0.664340,0.279272,-0.159160,0.018541,-0.610339,0.206590,-0.290228,-63.708663,-85.335890,62.773154
01070,175319,9.362824,-1.158237,0.735923,0.302868,-0.167441,0.010052,-0.613346,0.201631,-0.289983,-64.621560,-85.373162,63.863784
01071,175419,9.312115,-1.259558,0.759589,0.328707,-0.183923,0.005805,-0.614376,0.203543,-0.287882,-65.630186,-85.415076,65.065243
01072,175519,9.469010,-1.311017,0.914053,0.349028,-0.182484,0.007555,-0.613403,0.200490,-0.287035,-66.642259,-85.453972,66.281772
01073,175619,9.079373,-1.300789,1.023711,0.388321,-0.208133,-0.008645,-0.614929,0.198449,-0.285637,-67.778480,-85.505234,67.645345
01074,175719,9.278866,-1.323264,1.303774,0.403179,-0.187257,-0.017967,-0.612929,0.197444,-0.286188,-68.765392,-85.554957,68.867600
01075,175819,9.721551,-1.336918,1.361451,0.413183,-0.127834,-0.004750,-0.613395,0.200016,-0.287560,-69.390017,-85.584032,69.732171
01076,175919,9.901955,-1.246283,1.319018,0.393031,-0.101597,0.003975,-0.614912,0.197500,-0.286688,-69.873382,-85.602480,70.443458
01077,176019,9.978010,-1.062365,1.287927,0.367480,-0.111544,0.005016,-0.615889,0.198062,-0.287663,-70.448304,-85.621750,71.231875
01078,176119,10.129023,-0.852974,1.338950,0.332832,-0.129352,0.003654,-0.615422,0.195989,-0.286265,-71.171532,-85.644398,72.149106
01079,176219,10.278747,-0.664665,1.479913,0.285550,-0.122985,-0.002832,-0.616446,0.195933,-0.284765,-71.868166,-85.668530,73.012478
01080,176319,10.318945,-0.550914,1.452045,0.243894,-0.099036,-0.008229,-0.617981,0.194366,-0.282843,-72.410049,-85.690682,73.696705
01081,176419,10.182701,-0.514853,1.269085,0.217922,-0.092526,-0.013749,-0.614440,0.192960,-0.285917,-72.912144,-85.714269,74.326097
01082,176519,9.916714,-0.565623,1.047984,0.209225,-0.115887,-0.023759,-0.617975,0.192397,-0.283444,-73.575261,-85.746726,75.111943
01083,176619,9.596951,-0.684700,0.963243,0.209627,-0.155938,-0.034057,-0.616014,0.190300,-0.282046,-74.526926,-85.790325,76.187323
01084,176719,9.368777,-0.877226,0.987858,0.228512,-0.196668,-0.046119,-0.615490,0.194326,-0.282842,-75.775241,-85.845029,77.570929
01085,176819,9.247858,-1.050053,1.020717,0.261339,-0.238217,-0.051843,-0.618493,0.191858,-0.282470,-77.352260,-85.905914,79.302850
01086,176919,9.140664,-1.134894,1.036355,0.284483,-0.286691,-0.053380,-0.616030,0.191746,-0.280970,-79.348187,-85.969315,81.467896
01087,177019,9.084396,-1.118241,1.058905,0.307872,-0.320736,-0.055856,-0.618519,0.192782,-0.280920,-81.668328,-86.031473,83.971214
01088,177119,9.143556,-1.134756,1.143571,0.329180,-0.332486,-0.062503,-0.616529,0.191256,-0.280996,-84.139616,-86.090848,86.638095
01089,177219,9.266960,-1.132750,1.245026,0.349617,-0.324546,-0.065664,-0.620571,0.190676,-0.278023,-86.602721,-86.143682,89.308335
01090,177319,9.370453,-1.057052,1.250103,0.363542,-0.299131,-0.059983,-0.617151,0.188958,-0.274600,-88.904628,-86.185099,91.824869
01091,177419,9.389159,-0.943215,1.231427,0.340910,-0.288430,-0.051092,-0.620656,0.189961,-0.273551,-91.172166,-86.214664,94.293863
01092,177519,9.435308,-0.857925,1.205150,0.295489,-0.287427,-0.043637,-0.617170,0.189408,-0.273575,-93.484789,-86.233415,96.781897
01093,177619,9.486060,-0.743899,1.279828,0.255521,-0.283082,-0.031849,-0.616660,0.190421,-0.274024,-95.790354,-86.239023,99.239880
01094,177719,9.495690,-0.653639,1.406816,0.196119,-0.286057,-0.014024,-0.617746,0.186732,-0.269704,-98.134832,-86.227751,101.702768
01095,177819,9.432379,-0.609226,1.405420,0.138214,-0.296967,-0.004284,-0.619729,0.187286,-0.270179,-100.569553,-86.203243,104.222908
01096,177919,9.467347,-0.574285,1.394673,0.110542,-0.294940,0.004176,-0.617784,0.186636,-0.267704,-102.949051,-86.167290,106.671908
01097,178019,9.578671,-0.628131,1.406615,0.094487,-0.278445,0.007981,-0.621272,0.185695,-0.267756,-105.144079,-86.125075,108.926923
01098,178119,9.622704,-0.712105,1.385610,0.098029,-0.263272,0.001739,-0.622332,0.186538,-0.264207,-107.178722,-86.083180,111.023337
01099,178219,9.647922,-0.872154,1.444118,0.118285,-0.253315,-0.013807,-0.621302,0.184626,-0.266308,-109.118305,-86.046637,113.036209
01100,178319,9.728889,-0.995717,1.489625,0.146360,-0.249244,-0.031937,-0.620877,0.185422,-0.262258,-111.023997,-86.016059,115.031322
01101,178419,9.753826,-1.101005,1.486302,0.164953,-0.248578,-0.049666,-0.624904,0.182400,-0.260413,-112.936869,-85.990480,117.044389
01102,178519,9.747421,-1.077469,1.447503,0.162743,-0.241048,-0.060321,-0.623909,0.181885,-0.260438,-114.803039,-85.967640,119.009437
01103,178619,9.732339,-0.988559,1.400706,0.149870,-0.228244,-0.066075,-0.626419,0.181379,-0.259464,-116.579669,-85.946616,120.877388
01104,178719,9.664636,-0.843509,1.311703,0.136840,-0.209567,-0.069252,-0.625452,0.180294,-0.258015,-118.221565,-85.928257,122.602833
01105,178819,9.628935,-0.694184,1.308868,0.125353,-0.181851,-0.074663,-0.627455,0.179803,-0.257542,-119.680872,-85.917052,124.138666
01106,178919,9.601777,-0.660468,1.250791,0.118498,-0.155337,-0.075861,-0.628012,0.177674,-0.254645,-120.956707,-85.911563,125.486643
01107,179019,9.546286,-0.721978,1.274067,0.114125,-0.130306,-0.076151,-0.627571,0.177023,-0.251671,-122.061051,-85.911772,126.660191
01108,179119,9.466973,-0.895963,1.195361,0.116497,-0.118448,-0.076222,-0.629013,0.175199,-0.254772,-123.083027,-85.914161,127.752526
01109,179219,9.390805,-1.139405,1.153042,0.120223,-0.124392,-0.074005,-0.632520,0.174707,-0.253799,-124.131686,-85.912224,128.873756
01110,179319,9.359592,-1.318095,1.102760,0.127714,-0.135916,-0.065698,-0.630565,0.174081,-0.251824,-125.210036,-85.901143,130.029071
01111,179419,9.390773,-1.422104,1.066345,0.148000,-0.157655,-0.058353,-0.633558,0.171638,-0.251952,-126.373412,-85.877759,131.281314
01112,179519,9.539219,-1.467047,1.126458,0.178795,-0.166613,-0.054586,-0.633089,0.171059,-0.250478,-127.541299,-85.847753,132.555818
01113,179619,9.695207,-1.475225,1.247045,0.215571,-0.158848,-0.056573,-0.635592,0.169082,-0.250081,-128.630646,-85.819605,133.772753
01114,179719,9.797724,-1.475652,1.336959,0.242362,-0.140438,-0.064759,-0.634626,0.167997,-0.248632,-129.617428,-85.800184,134.902284
01115,179819,9.963876,-1.468675,1.429643,0.249445,-0.111505,-0.080235,-0.636100,0.163609,-0.250360,-130.495707,-85.796919,135.927112
01116,179919,10.173091,-1.321365,1.655549,0.243007,-0.083829,-0.093392,-0.639119,0.167546,-0.248159,-131.279881,-85.808709,136.853885
01117,180019,10.478398,-1.066766,1.886724,0.226164,-0.017591,-0.108596,-0.638592,0.163151,-0.250386,-131.769026,-85.851520,137.475145
01118,180119,10.819077,-0.761163,2.002050,0.199032,0.075174,-0.124207,-0.638578,0.160209,-0.251539,-131.815314,-85.936327,137.636778
01119,180219,11.062886,-0.506211,1.991716,0.158583,0.161879,-0.139507,-0.638635,0.159567,-0.248565,-131.436145,-86.060851,137.348666
01120,180319,11.265425,-0.256568,1.890075,0.104106,0.226320,-0.153915,-0.639098,0.158674,-0.250615,-130.726778,-86.215801,136.698370
01121,180419,11.561443,-0.069693,1.644318,0.063401,0.281107,-0.163367,-0.640006,0.155941,-0.255766,-129.655682,-86.394581,135.662345
01122,180519,11.723570,-0.203627,1.195506,0.052798,0.322030,-0.170984,-0.641982,0.155025,-0.256817,-128.217951,-86.590086,134.253118
01123,180619,11.831041,-0.625479,0.562021,0.055275,0.344201,-0.165102,-0.637918,0.152687,-0.261441,-126.388529,-86.788110,132.453247
01124,180719,12.068704,-1.161379,-0.126058,0.085526,0.337072,-0.147975,-0.641947,0.153626,-0.258893,-124.263969,-86.972026,130.375483
01125,180819,12.355625,-1.680391,-0.831079,0.144784,0.281893,-0.124051,-0.642308,0.152999,-0.266440,-122.226739,-87.122804,128.419466
01126,180919,12.703856,-2.199579,-1.359529,0.220724,0.180375,-0.112089,-0.643847,0.148442,-0.264670,-120.899640,-87.234096,127.218212
01127,181019,12.930563,-2.269444,-1.715365,0.282809,0.058034,-0.111613,-0.644833,0.148981,-0.265145,-120.726960,-87.308282,127.208376
01128,181119,12.904715,-1.778102,-1.777390,0.300433,-0.061677,-0.128386,-0.643327,0.145019,-0.266348,-121.924202,-87.354879,128.580041
01129,181219,12.686486,-1.013591,-1.413983,0.290587,-0.144361,-0.151941,-0.644351,0.144963,-0.264848,-124.203678,-87.384908,131.029377
01130,181319,12.393302,-0.337745,-0.836181,0.254314,-0.174223,-0.173881,-0.647876,0.144922,-0.262850,-127.025599,-87.410150,134.000847
01131,181419,11.963593,0.252069,-0.249436,0.187479,-0.173761,-0.189052,-0.648863,0.144463,-0.263376,-130.056709,-87.435482,137.143318
01132,181519,11.369225,0.655061,0.195740,0.090765,-0.142385,-0.196144,-0.648888,0.140928,-0.262554,-132.963461,-87.468504,140.105762
01133,181619,10.649406,0.823837,0.360489,-0.033991,-0.080061,-0.187406,-0.651878,0.140477,-0.262580,-135.357612,-87.516779,142.483465
01134,181719,9.742924,0.869605,0.219408,-0.163384,-0.017363,-0.170875,-0.650365,0.140501,-0.263580,-137.181350,-87.580677,144.215921
01135,181819,8.653266,0.839744,-0.168815,-0.275929,0.030901,-0.157348,-0.656837,0.142597,-0.263480,-138.580670,-87.657814,145.458953
01136,181919,7.725952,0.730940,-0.693093,-0.363108,0.050634,-0.150825,-0.652864,0.140517,-0.263080,-139.865481,-87.739832,146.537312
01137,182019,7.141954,0.523654,-1.106258,-0.417744,0.067248,-0.141217,-0.656285,0.141737,-0.266529,-141.002839,-87.824695,147.436707
01138,182119,6.845487,0.219869,-1.535005,-0.448057,0.079614,-0.124727,-0.656799,0.143191,-0.265454,-141.919285,-87.908476,148.097594
01139,182219,6.791530,-0.024471,-1.780657,-0.455674,0.066284,-0.104145,-0.654290,0.142702,-0.266478,-142.772993,-87.978487,148.691291
01140,182319,7.078086,-0.169258,-1.875067,-0.428249,0.035436,-0.081921,-0.656792,0.141721,-0.266030,-143.672279,-88.026244,149.346283
01141,182419,7.559111,-0.192656,-1.802234,-0.365075,-0.002287,-0.066217,-0.656263,0.143280,-0.267452,-144.729241,-88.050675,150.195238
01142,182519,8.171795,-0.154527,-1.705427,-0.268114,-0.034397,-0.052574,-0.657306,0.143175,-0.264954,-145.871576,-88.054844,151.185187
01143,182619,8.827917,-0.111842,-1.491441,-0.168652,-0.051194,-0.038375,-0.658836,0.144099,-0.262904,-146.917117,-88.045749,152.135302
01144,182719,9.463592,-0.098027,-1.185242,-0.086135,-0.045273,-0.026102,-0.657804,0.143183,-0.264954,-147.681274,-88.035123,152.851176
01145,182819,10.030167,-0.088756,-0.872549,-0.025776,-0.026444,-0.014907,-0.659284,0.146220,-0.265302,-148.080860,-88.029925,153.236868
01146,182919,10.441053,0.010572,-0.640031,0.005065,-0.009410,0.002014,-0.658299,0.144686,-0.264878,-148.073615,-88.027808,153.233168
01147,183019,10.668331,0.196301,-0.516361,-0.000534,0.005467,0.021491,-0.659767,0.144284,-0.266403,-147.665162,-88.026962,152.824813
01148,183119,10.594069,0.380060,-0.446275,-0.037566,0.007471,0.028200,-0.659755,0.145802,-0.266827,-147.168139,-88.024902,152.306605
01149,183219,10.385739,0.610548,-0.341601,-0.090081,0.010416,0.025118,-0.656281,0.143730,-0.266428,-146.720075,-88.025090,151.807279
01150,183319,10.130631,0.745742,-0.105175,-0.153799,0.011205,0.018818,-0.659241,0.144348,-0.267903,-146.390127,-88.027563,151.389612
01151,183419,9.870619,0.798625,0.072500,-0.205149,0.022590,0.010962,-0.658265,0.148744,-0.266174,-146.092874,-88.037931,150.975224
01152,183519,9.578640,0.828242,0.231968,-0.237004,0.035228,0.007130,-0.660775,0.148237,-0.265201,-145.744956,-88.055505,150.491886
01153,183619,9.346576,0.708859,0.371708,-0.277261,0.040332,0.007941,-0.663753,0.148807,-0.265676,-145.352714,-88.075181,149.941127
01154,183719,9.205287,0.598091,0.430377,-0.287166,0.040141,0.010455,-0.664222,0.149385,-0.267150,-144.923580,-88.093868,149.347787
01155,183819,9.089315,0.394660,0.629476,-0.285505,0.029477,0.019746,-0.662725,0.150856,-0.267074,-144.459995,-88.104398,148.720937
01156,183919,9.024476,0.215018,0.622501,-0.284907,0.017639,0.027778,-0.662706,0.151402,-0.268048,-143.997956,-88.106618,148.095983
01157,184019,9.032155,0.030616,0.574629,-0.268941,0.007971,0.037345,-0.662696,0.156883,-0.267769,-143.491481,-88.100994,147.435724
01158,184119,9.119876,-0.106304,0.508731,-0.238724,0.014872,0.050713,-0.663193,0.157389,-0.267743,-142.715140,-88.093718,146.522775
01159,184219,9.113800,-0.245873,0.362968,-0.210004,0.024190,0.062617,-0.663736,0.158273,-0.265193,-141.668895,-88.086011,145.356236
01160,184319,9.054138,-0.289981,0.264020,-0.178985,0.016106,0.070974,-0.665184,0.158417,-0.267693,-140.590961,-88.070977,144.175769
01161,184419,9.018764,-0.324836,0.322645,-0.150378,-0.009849,0.074641,-0.664184,0.160394,-0.267591,-139.749727,-88.042524,143.248528
01162,184519,8.971877,-0.258719,0.366329,-0.128148,-0.048049,0.077108,-0.667156,0.159493,-0.268643,-139.301541,-87.996166,142.727299
01163,184619,8.892605,-0.156320,0.399012,-0.111115,-0.092832,0.076101,-0.667706,0.161848,-0.265517,-139.344532,-87.930684,142.707309
01164,184719,8.776976,-0.040890,0.473956,-0.098373,-0.130970,0.071130,-0.665710,0.163809,-0.265415,-139.815973,-87.850451,143.123370
01165,184819,8.716680,0.085029,0.478733,-0.092954,-0.166134,0.066178,-0.670183,0.164403,-0.265890,-140.636845,-87.756421,143.892255
01166,184919,8.696084,0.144684,0.529627,-0.079846,-0.182215,0.065434,-0.669224,0.164291,-0.263891,-141.534717,-87.655108,144.745776
01167,185019,8.757132,0.171475,0.557345,-0.060785,-0.181176,0.065429,-0.669753,0.167690,-0.261714,-142.340595,-87.553823,145.518221
01168,185119,8.813099,0.161284,0.583142,-0.048230,-0.169975,0.063751,-0.669229,0.166758,-0.263264,-143.006827,-87.457877,146.158149
01169,185219,8.847419,0.177813,0.653440,-0.034009,-0.152013,0.064699,-0.669258,0.165689,-0.261815,-143.474870,-87.369645,146.607895
01170,185319,8.810899,0.226983,0.724803,-0.018290,-0.131071,0.064590,-0.672791,0.166122,-0.259292,-143.755712,-87.291052,146.879290
01171,185419,8.790998,0.232294,0.785559,0.001004,-0.115937,0.061192,-0.673252,0.166226,-0.261291,-143.937367,-87.220636,147.062474
01172,185519,8.861077,0.254206,0.835800,0.019708,-0.100872,0.056257,-0.670278,0.168123,-0.260189,-144.043393,-87.158926,147.180684
01173,185619,9.077185,0.284390,0.920339,0.043510,-0.079879,0.058564,-0.674270,0.169658,-0.259614,-143.970359,-87.106261,147.133278
01174,185719,9.344878,0.330804,0.966784,0.071490,-0.049454,0.061926,-0.673779,0.170622,-0.259064,-143.652600,-87.066619,146.856886
01175,185819,9.549492,0.446132,0.867651,0.097838,-0.018796,0.061760,-0.672718,0.175733,-0.261808,-143.126469,-87.041131,146.386963
01176,185919,9.628060,0.417359,0.768395,0.111049,0.006972,0.062575,-0.672237,0.171217,-0.261537,-142.421781,-87.026951,145.745821
01177,186019,9.645619,0.359472,0.718254,0.119814,0.035507,0.064980,-0.671718,0.172752,-0.262460,-141.503118,-87.024417,144.895447
01178,186119,9.718883,0.405405,0.845193,0.118673,0.062844,0.074355,-0.673681,0.173354,-0.263935,-140.315263,-87.029940,143.774872
01179,186219,9.819605,0.386240,0.894759,0.112210,0.106121,0.082145,-0.672705,0.172792,-0.262960,-138.746973,-87.050131,142.269668
01180,186319,9.949858,0.292929,0.790767,0.098591,0.137191,0.099051,-0.672661,0.176874,-0.264756,-136.790524,-87.074680,140.368022
01181,186419,10.057337,0.183355,0.664083,0.074395,0.143222,0.122948,-0.674116,0.177990,-0.266705,-134.579395,-87.088649,138.197526
01182,186519,10.182765,0.141542,0.631550,0.043803,0.139303,0.144365,-0.674097,0.178039,-0.267705,-132.237729,-87.087823,135.878799
01183,186619,10.322452,0.200724,0.706271,0.007282,0.152076,0.158593,-0.670097,0.181487,-0.268026,-129.709140,-87.080709,133.351961
01184,186719,10.478976,0.376595,0.844037,-0.029317,0.180583,0.169072,-0.671984,0.183278,-0.273448,-126.892773,-87.073109,130.515971
01185,186819,10.653415,0.534179,0.974415,-0.064949,0.216431,0.173993,-0.670978,0.183785,-0.273922,-123.754764,-87.067687,127.337478
01186,186919,10.836520,0.659795,1.068775,-0.087828,0.244928,0.173658,-0.671402,0.188943,-0.277167,-120.378473,-87.061989,123.907267
01187,187019,11.158480,0.648367,1.279846,-0.093820,0.268978,0.170727,-0.670881,0.191475,-0.278039,-116.805864,-87.053844,120.277040
01188,187119,11.592862,0.477254,1.548718,-0.074019,0.311403,0.162105,-0.669301,0.192664,-0.282486,-112.858793,-87.048306,116.283216
01189,187219,12.154421,0.145938,1.794106,-0.027942,0.386508,0.164350,-0.667732,0.197792,-0.285730,-108.121203,-87.041177,111.524260
01190,187319,12.764507,-0.311671,1.919826,0.025354,0.495765,0.177873,-0.665671,0.199922,-0.289126,-102.201101,-87.020224,105.611753
01191,187419,13.316334,-0.697467,1.625997,0.086165,0.607162,0.198148,-0.664097,0.203080,-0.292972,-95.167407,-86.962957,98.618833
01192,187519,13.524914,-0.886868,1.199361,0.125654,0.658511,0.214749,-0.664013,0.203297,-0.297470,-87.934739,-86.851751,91.448792
01193,187619,13.653642,-0.787946,0.815121,0.114545,0.674515,0.214809,-0.659400,0.208521,-0.303712,-81.138183,-86.693196,84.708272
01194,187719,13.766449,-0.632773,0.283657,0.073029,0.676041,0.206445,-0.658315,0.211711,-0.308058,-75.025876,-86.497528,78.628193
01195,187819,13.665764,-0.496036,-0.495117,0.029762,0.623312,0.193318,-0.657230,0.214403,-0.312428,-70.033107,-86.284221,73.643713
01196,187919,13.182684,-0.310892,-1.293120,-0.034684,0.490498,0.182810,-0.657133,0.222093,-0.316546,-66.624842,-86.082404,70.209077
01197,188019,12.423067,-0.157628,-1.732218,-0.097151,0.321159,0.161314,-0.656107,0.223644,-0.317969,-64.740169,-85.921607,68.265122
01198,188119,11.578760,-0.207598,-1.748878,-0.130349,0.156724,0.130149,-0.655085,0.227663,-0.318765,-64.059495,-85.814759,67.508905
01199,188219,10.507846,-0.310950,-1.669487,-0.132221,0.009161,0.100161,-0.656038,0.230764,-0.320612,-64.333582,-85.760087,67.708875
01200,188319,9.345511,-0.465089,-1.658140,-0.099535,-0.127030,0.069916,-0.654555,0.235176,-0.319383,-65.434059,-85.754131,68.756281
01201,188419,8.262698,-0.643816,-1.491209,-0.053957,-0.261118,0.037439,-0.656551,0.238173,-0.318731,-67.364233,-85.793993,70.661791
01202,188519,7.446956,-0.872542,-1.067982,-0.000051,-0.361324,0.005661,-0.654546,0.240159,-0.319129,-69.953709,-85.866166,73.259166
01203,188619,6.673993,-1.203314,-0.508721,0.089468,-0.397837,-0.023936,-0.655118,0.239974,-0.315131,-72.789721,-85.952047,76.154853
01204,188719,6.203562,-1.465946,-0.184315,0.198605,-0.360557,-0.049339,-0.655622,0.236992,-0.315284,-75.329511,-86.036206,78.815958
01205,188819,6.044425,-1.797687,-0.141820,0.305477,-0.269876,-0.060663,-0.654629,0.240440,-0.314606,-77.148744,-86.107077,80.815920
01206,188919,6.422906,-2.227341,-0.131309,0.412098,-0.132773,-0.053194,-0.656121,0.241958,-0.314530,-77.840601,-86.153615,81.747007
01207,189019,7.327518,-2.515401,-0.077979,0.498311,0.037518,-0.029368,-0.654646,0.241388,-0.313555,-77.116211,-86.165556,81.308120
01208,189119,8.261809,-2.545665,-0.095868,0.532830,0.191803,-0.003530,-0.654071,0.242570,-0.317503,-75.146186,-86.141113,79.640594
01209,189219,9.046694,-2.321235,-0.161190,0.503214,0.276518,0.028656,-0.654046,0.241147,-0.319078,-72.617149,-86.080999,77.395665
01210,189319,9.790788,-1.877544,-0.142419,0.435650,0.301940,0.077307,-0.650503,0.241236,-0.322076,-70.141867,-85.983162,75.165600
01211,189419,10.562078,-1.236961,-0.204604,0.364150,0.302109,0.139660,-0.650441,0.239910,-0.325651,-68.006973,-85.845789,73.235393
01212,189519,11.343933,-0.539274,-0.418281,0.283749,0.289250,0.188625,-0.646358,0.242579,-0.330520,-66.290026,-85.680944,71.677718
01213,189619,11.852429,-0.004075,-0.774233,0.207218,0.270072,0.207221,-0.647773,0.245785,-0.334367,-64.922775,-85.508017,70.426453
01214,189719,11.538878,0.398434,-0.892440,0.111318,0.212661,0.184716,-0.645270,0.247264,-0.334790,-64.000945,-85.359170,69.566634
01215,189819,10.642633,0.484332,-0.632522,-0.022098,0.106126,0.124258,-0.646769,0.250253,-0.334138,-63.679947,-85.267730,69.232821
01216,189919,9.907759,0.334324,-0.265984,-0.118021,-0.001092,0.064858,-0.643299,0.251146,-0.333087,-63.902061,-85.234033,69.388816
01217,190019,9.365149,0.108568,0.127565,-0.139658,-0.058929,0.021402,-0.646767,0.256208,-0.333333,-64.361150,-85.237186,69.770172
01218,190119,8.872896,-0.071728,0.310271,-0.132558,-0.080627,-0.013007,-0.645774,0.254697,-0.333410,-64.851053,-85.263261,70.186524
01219,190219,8.491353,-0.257717,0.449383,-0.125185,-0.097421,-0.044751,-0.643251,0.257221,-0.334781,-65.355597,-85.309604,70.621781
01220,190319,8.171106,-0.414027,0.591129,-0.113532,-0.113575,-0.072869,-0.645783,0.260129,-0.332130,-65.885489,-85.374120,71.089133
01221,190419,7.959213,-0.532897,0.669021,-0.099833,-0.121935,-0.097053,-0.645289,0.262589,-0.331503,-66.406805,-85.452884,71.555704
01222,190519,7.797719,-0.652888,0.612554,-0.085637,-0.130172,-0.121513,-0.643801,0.259078,-0.331681,-66.922407,-85.546026,72.024640
01223,190619,7.731673,-0.770746,0.566274,-0.059426,-0.137438,-0.147526,-0.643291,0.260588,-0.332104,-67.419128,-85.654166,72.489631
01224,190719,7.879374,-0.920953,0.572245,-0.027303,-0.137237,-0.158850,-0.643817,0.260524,-0.330605,-67.887367,-85.767921,72.944437
01225,190819,8.214951,-1.073432,0.566820,0.007945,-0.115312,-0.153707,-0.644296,0.261078,-0.331579,-68.213897,-85.873963,73.277333
01226,190919,8.636478,-1.249621,0.527315,0.046998,-0.090643,-0.132441,-0.644807,0.259069,-0.331181,-68.412097,-85.963292,73.503955
01227,191019,8.989760,-1.347248,0.417009,0.074329,-0.082320,-0.105444,-0.645312,0.260548,-0.330605,-68.621728,-86.036368,73.757699
01228,191119,9.283561,-1.426274,0.373472,0.080254,-0.109797,-0.077122,-0.645243,0.262709,-0.334002,-69.138291,-86.099806,74.322473
01229,191219,9.503424,-1.466582,0.472722,0.065872,-0.148228,-0.053316,-0.645266,0.260170,-0.333130,-70.059266,-86.157581,75.284278
01230,191319,9.592270,-1.474029,0.749077,0.038643,-0.169599,-0.039968,-0.644774,0.261632,-0.332553,-71.236802,-86.210927,76.487508
01231,191419,9.534075,-1.472038,1.008586,0.001210,-0.178911,-0.026876,-0.644744,0.263200,-0.333977,-72.581334,-86.256942,77.836532
01232,191519,9.377976,-1.377033,1.122056,-0.033259,-0.176941,-0.016348,-0.646284,0.263601,-0.331453,-73.986874,-86.294635,79.226837
01233,191619,9.108796,-1.271918,1.153227,-0.064155,-0.187963,-0.007070,-0.644335,0.264944,-0.328877,-75.553425,-86.326430,80.760694
01234,191719,8.845538,-1.074934,1.113429,-0.088114,-0.193029,-0.006433,-0.643329,0.265450,-0.329351,-77.204612,-86.355712,82.365554
01235,191819,8.601572,-0.904569,1.030694,-0.097168,-0.189664,-0.022868,-0.645334,0.268423,-0.328200,-78.826465,-86.390822,83.935767
01236,191919,8.411790,-0.810479,0.886654,-0.092337,-0.203416,-0.043989,-0.646353,0.266398,-0.327302,-80.567524,-86.436285,85.628124
01237,192019,8.482813,-0.709271,0.841550,-0.075587,-0.237277,-0.070398,-0.645319,0.266976,-0.329275,-82.622022,-86.496000,87.644036
01238,192119,8.771857,-0.622754,0.985550,-0.050689,-0.261719,-0.096019,-0.648387,0.269298,-0.324651,-84.938990,-86.567032,89.937050
01239,192219,9.112303,-0.700173,1.017514,-0.032280,-0.266434,-0.124591,-0.651390,0.266332,-0.324305,-87.370723,-86.648755,92.355410
01240,192319,9.481852,-0.872679,1.079362,-0.013983,-0.246052,-0.135225,-0.651382,0.265858,-0.324830,-89.702553,-86.730224,94.683998
01241,192419,9.738397,-0.983290,1.078353,-0.009046,-0.197714,-0.130451,-0.652396,0.266324,-0.323805,-91.647608,-86.804168,96.627846
01242,192519,9.882680,-0.984253,1.004966,-0.022385,-0.144057,-0.124945,-0.651908,0.265794,-0.323331,-93.123591,-86.872897,98.094113
01243,192619,10.092197,-0.938436,0.934688,-0.051499,-0.100361,-0.128660,-0.651391,0.265834,-0.324330,-94.216335,-86.943489,99.159780
01244,192719,10.460170,-0.903934,0.932274,-0.080947,-0.081122,-0.130895,-0.651915,0.267264,-0.322755,-95.167427,-87.015195,100.066626
01245,192819,10.841459,-1.005359,1.004340,-0.090480,-0.069066,-0.131764,-0.649846,0.268422,-0.326702,-96.034278,-87.087269,100.883589
01246,192919,11.051545,-1.092062,1.059392,-0.074175,-0.064641,-0.141263,-0.651855,0.263945,-0.326431,-96.895151,-87.164354,101.703863
01247,193019,11.080905,-1.254233,1.068181,-0.035162,-0.058727,-0.156772,-0.654354,0.264459,-0.325907,-97.733691,-87.250014,102.524094
01248,193119,11.082380,-1.486499,1.082069,0.033830,-0.029946,-0.174600,-0.652343,0.264475,-0.326906,-98.264518,-87.347532,103.075775
01249,193219,11.109572,-1.733885,1.112639,0.113727,0.031630,-0.179680,-0.653303,0.264090,-0.328930,-98.014433,-87.452779,102.891513
01250,193319,11.210229,-1.918101,1.161629,0.162515,0.096300,-0.173920,-0.654740,0.265254,-0.331879,-96.843236,-87.559339,101.813253
01251,193419,11.544588,-1.888162,1.477072,0.170407,0.149169,-0.161268,-0.656752,0.264740,-0.330905,-94.807521,-87.660324,99.874327
01252,193519,12.041952,-1.558420,1.986787,0.140865,0.212382,-0.150447,-0.656214,0.260866,-0.333607,-91.679804,-87.753373,96.825714
01253,193619,12.636095,-1.085112,2.544879,0.081333,0.298202,-0.142310,-0.656583,0.260713,-0.340631,-87.031094,-87.832711,92.221026
01254,193719,13.254106,-0.507826,2.805885,0.024314,0.431581,-0.136414,-0.656564,0.260761,-0.341630,-80.059870,-87.881759,85.259709
01255,193819,13.865265,-0.124510,2.264489,-0.003291,0.583049,-0.134848,-0.655446,0.261556,-0.348102,-70.658681,-87.870336,75.851028
01256,193919,14.253879,0.047163,1.137158,0.004938,0.680281,-0.130286,-0.656370,0.265727,-0.351398,-60.363202,-87.773716,65.551800
01257,194019,14.269319,-0.041436,0.175302,0.031848,0.709305,-0.120338,-0.653801,0.262914,-0.356047,-50.952950,-87.597405,56.152980
01258,194119,14.222827,-0.245699,-0.652620,0.054384,0.693906,-0.115503,-0.654697,0.262199,-0.361596,-43.173266,-87.370575,48.397805
01259,194219,13.459431,-0.446271,-1.832202,0.046885,0.634057,-0.121763,-0.655563,0.262053,-0.368619,-37.083212,-87.133228,42.328425
01260,194319,11.721312,-0.396211,-2.650601,-0.040541,0.516009,-0.141731,-0.652996,0.263701,-0.372541,-32.508904,-86.932369,37.725471
01261,194419,9.877857,-0.454397,-3.120432,-0.152676,0.320816,-0.147157,-0.653945,0.269294,-0.374261,-29.496397,-86.814051,34.621584
01262,194519,8.576496,-0.378734,-2.938419,-0.198522,0.065201,-0.113193,-0.656427,0.268860,-0.374787,-28.229980,-86.808678,33.239974
01263,194619,7.765404,0.316866,-2.471468,-0.199683,-0.199500,-0.093643,-0.657441,0.269325,-0.373762,-28.437682,-86.931031,33.334083
01264,194719,7.452170,1.122501,-1.623831,-0.153046,-0.386574,-0.099804,-0.660504,0.269678,-0.369739,-29.598368,-87.148993,34.409186
01265,194819,7.361406,1.496032,-0.512853,-0.095927,-0.427066,-0.111729,-0.663523,0.267660,-0.368342,-31.040819,-87.389286,35.798924
01266,194919,7.544948,1.483380,0.386547,-0.086888,-0.334007,-0.112106,-0.664033,0.271606,-0.367140,-32.074198,-87.582864,36.784144
01267,195019,7.989765,1.199818,0.723606,-0.138145,-0.148000,-0.088679,-0.664532,0.271116,-0.367165,-32.145968,-87.678675,36.777437
01268,195119,8.478246,0.680772,0.250557,-0.201866,0.038869,-0.045932,-0.667485,0.270761,-0.369191,-31.364199,-87.670632,35.879947
01269,195219,8.791283,0.308638,-0.630921,-0.236975,0.131646,-0.013777,-0.666009,0.270689,-0.368191,-30.342705,-87.607054,34.722368
01270,195319,9.026493,-0.064459,-1.294375,-0.263887,0.108869,0.005908,-0.664963,0.272289,-0.370613,-29.774121,-87.548620,34.002613
01271,195419,9.397382,-0.495297,-1.436025,-0.287265,0.061580,0.038878,-0.664979,0.273735,-0.369537,-29.932960,-87.504319,33.997516
01272,195519,9.775196,-0.897213,-1.495476,-0.306319,0.047424,0.096923,-0.668960,0.276290,-0.369411,-30.841044,-87.450328,34.731454
01273,195619,9.885564,-1.065819,-1.390951,-0.316248,0.020484,0.153094,-0.665470,0.277729,-0.369334,-32.503235,-87.391976,36.214593
01274,195719,9.871707,-0.972014,-1.046383,-0.322227,-0.027470,0.185375,-0.669924,0.278869,-0.370784,-34.763616,-87.344096,38.293181
01275,195819,9.814225,-0.613114,-0.653913,-0.304282,-0.084569,0.186618,-0.666496,0.282132,-0.367107,-37.367216,-87.318318,40.725713
01276,195919,9.846579,-0.193862,-0.291675,-0.249163,-0.107562,0.159174,-0.670016,0.284583,-0.364982,-39.810580,-87.307760,43.029487
01277,196019,9.892225,0.197825,-0.032077,-0.181019,-0.090530,0.119290,-0.669542,0.286495,-0.363381,-41.694642,-87.300734,44.812445
01278,196119,9.743009,0.359880,0.130200,-0.128040,-0.052366,0.075250,-0.669530,0.288014,-0.363804,-42.831826,-87.292362,45.878094
01279,196219,9.422710,0.455656,0.309424,-0.087189,-0.023628,0.037185,-0.670985,0.289130,-0.365753,-43.365840,-87.286205,46.363340
01280,196319,9.093657,0.572640,0.588639,-0.064879,0.004860,0.010218,-0.670032,0.290987,-0.363152,-43.411781,-87.278741,46.372766
01281,196419,8.838069,0.650265,0.788212,-0.063849,0.036721,-0.003442,-0.671008,0.292048,-0.364101,-43.074606,-87.263391,45.999235
01282,196519,8.657450,0.598639,0.785609,-0.089093,0.070432,-0.003229,-0.670501,0.291566,-0.364626,-42.485659,-87.233683,45.359156
01283,196619,8.501259,0.458466,0.762049,-0.122382,0.106778,0.009432,-0.671962,0.294651,-0.365974,-41.755338,-87.183349,44.558421
01284,196719,8.325568,0.333391,0.659531,-0.156794,0.130437,0.029649,-0.670001,0.293052,-0.364550,-41.068087,-87.114743,43.781029
01285,196819,8.283181,0.135527,0.487253,-0.178802,0.125910,0.046179,-0.670931,0.298693,-0.367270,-40.599591,-87.041558,43.210004
01286,196919,8.251220,-0.002672,0.392651,-0.194350,0.097532,0.059059,-0.670944,0.296676,-0.366871,-40.470417,-86.975817,42.969807
01287,197019,8.283609,-0.109131,0.357650,-0.191220,0.055384,0.061306,-0.669389,0.299787,-0.369717,-40.656975,-86.927623,43.047572
01288,197119,8.394373,-0.182469,0.349045,-0.168661,0.009891,0.059635,-0.670464,0.297118,-0.365846,-41.128032,-86.899765,43.423197
01289,197219,8.517672,-0.234873,0.345940,-0.128637,-0.036350,0.058184,-0.669907,0.298750,-0.368769,-41.881264,-86.892112,44.104381
01290,197319,8.634750,-0.248533,0.370794,-0.073489,-0.081440,0.052721,-0.670954,0.301610,-0.365618,-42.880442,-86.905116,45.063514
01291,197419,8.656728,-0.213221,0.509476,-0.011396,-0.117335,0.047594,-0.669455,0.299120,-0.366244,-44.078700,-86.934089,46.257622
01292,197519,8.655011,-0.091258,0.730916,0.051188,-0.128157,0.041465,-0.672971,0.303065,-0.364043,-45.299729,-86.968595,47.510408
01293,197619,8.572455,0.028446,0.871877,0.100038,-0.120268,0.039643,-0.670022,0.301924,-0.362093,-46.443932,-86.999335,48.714253
01294,197719,8.471140,0.173044,0.907431,0.133335,-0.114114,0.042482,-0.671499,0.301000,-0.363144,-47.563293,-87.025243,49.912296
01295,197819,8.417228,0.291889,0.905583,0.145499,-0.117357,0.048883,-0.674470,0.300597,-0.364170,-48.768999,-87.048413,51.203756
01296,197919,8.389719,0.460003,0.971784,0.141051,-0.126202,0.046439,-0.672485,0.296580,-0.364373,-50.054108,-87.074517,52.572145
01297,198019,8.374006,0.440751,1.064164,0.146049,-0.136935,0.041314,-0.674465,0.298130,-0.364797,-51.417545,-87.105186,54.021800
01298,198119,8.439450,0.366622,1.297040,0.167774,-0.137891,0.040000,-0.674568,0.297865,-0.359299,-52.796418,-87.135029,55.499337
01299,198219,8.596909,0.200011,1.553693,0.208397,-0.101033,0.035632,-0.673035,0.298436,-0.361273,-53.806009,-87.152702,56.630413
01300,198319,8.793516,-0.034618,1.562182,0.245074,-0.044407,0.038813,-0.673557,0.295904,-0.360400,-54.294792,-87.149101,57.261072
01301,198419,9.056890,-0.312851,1.358345,0.255330,-0.001777,0.053648,-0.676021,0.295020,-0.361951,-54.475632,-87.124167,57.589297
01302,198519,9.216110,-0.375363,1.202821,0.252456,0.005766,0.075152,-0.675505,0.294562,-0.362976,-54.723957,-87.086613,57.983456
01303,198619,9.336345,-0.313775,1.194076,0.241757,-0.006830,0.091912,-0.674978,0.295124,-0.364450,-55.191109,-87.045209,58.590606
01304,198719,9.480841,-0.128853,1.177475,0.228726,-0.028883,0.107248,-0.677021,0.293043,-0.362053,-55.944393,-87.003375,59.476825
01305,198819,9.752545,0.096751,1.196597,0.197634,-0.032233,0.120336,-0.674033,0.292497,-0.362077,-56.799609,-86.955732,60.447320
01306,198919,10.048074,0.351083,1.225934,0.153345,-0.011954,0.133335,-0.677007,0.290102,-0.363205,-57.543294,-86.894850,61.280764
01307,199019,10.294555,0.600711,1.206025,0.091759,0.012745,0.144891,-0.678952,0.291250,-0.365654,-58.136493,-86.820352,61.928216
01308,199119,10.468256,0.913725,1.104039,0.011078,0.020898,0.152103,-0.676481,0.290166,-0.364704,-58.713624,-86.739588,62.513332
01309,199219,10.692100,1.222318,1.021276,-0.073298,0.009603,0.145650,-0.675455,0.291717,-0.366127,-59.372585,-86.665047,63.132041
01310,199319,11.028277,1.356116,1.124834,-0.130670,0.016594,0.132667,-0.678930,0.292793,-0.366577,-59.914275,-86.594610,63.600402
01311,199419,11.384310,1.129114,1.433347,-0.132209,0.065762,0.116909,-0.676491,0.290142,-0.364204,-59.959426,-86.517793,63.570486
01312,199519,11.970713,0.852504,1.924712,-0.077926,0.178639,0.105269,-0.677955,0.291732,-0.365628,-59.025574,-86.413905,62.590871
01313,199619,12.497256,0.006323,2.678519,0.064654,0.314095,0.108030,-0.676416,0.290334,-0.368203,-57.067225,-86.266063,60.666404
01314,199719,13.185471,-0.726835,3.316660,0.207647,0.484945,0.131452,-0.673821,0.292055,-0.373624,-54.123972,-86.046597,57.836542
01315,199819,14.013898,-1.613966,3.286160,0.320560,0.669954,0.166495,-0.672237,0.290279,-0.378723,-50.481084,-85.735706,54.369216
01316,199919,14.496257,-2.620631,2.482909,0.382112,0.825938,0.243427,-0.669641,0.291999,-0.384144,-46.858589,-85.317427,50.956083
01317,200019,14.284578,-3.150435,1.353185,0.403189,0.861626,0.325781,-0.669028,0.293775,-0.390065,-44.030727,-84.836852,48.350446
01318,200119,13.750167,-2.780780,0.726595,0.370486,0.824878,0.380142,-0.667369,0.292690,-0.399137,-42.064645,-84.341511,46.589607
01319,200219,13.673499,-2.085856,0.122219,0.354792,0.782514,0.397425,-0.665271,0.294916,-0.404533,-40.625758,-83.853200,45.348228
01320,200319,13.837889,-1.377344,-0.632895,0.345896,0.743169,0.408666,-0.661664,0.299634,-0.410301,-39.556599,-83.375423,44.472623
01321,200419,13.163957,-0.706066,-1.799302,0.306526,0.621146,0.400480,-0.661129,0.299722,-0.412300,-38.965428,-82.953565,44.054899
01322,200519,11.642030,-0.184417,-2.850025,0.253888,0.348364,0.349487,-0.660563,0.301377,-0.415722,-39.041006,-82.671555,44.278475
01323,200619,10.211582,0.219259,-2.923280,0.193402,0.016839,0.253696,-0.663035,0.306423,-0.415969,-39.734951,-82.571215,45.090718
01324,200719,9.209519,0.461698,-2.471250,0.154922,-0.230404,0.130415,-0.662039,0.306407,-0.415968,-40.726711,-82.623324,46.181077
01325,200819,8.535139,0.461600,-1.715755,0.126218,-0.351020,0.030549,-0.664112,0.308215,-0.411369,-41.776722,-82.762765,47.313335
01326,200919,7.839987,0.177091,-0.970735,0.130530,-0.394218,-0.046525,-0.666089,0.306302,-0.412471,-42.741886,-82.947773,48.362153
01327,201019,7.827231,-0.387961,-0.152650,0.133968,-0.331600,-0.072069,-0.670587,0.308318,-0.411371,-43.466206,-83.114691,49.169910
01328,201119,7.605386,-1.185230,0.121460,0.184602,-0.222952,-0.082740,-0.673119,0.306268,-0.409474,-43.796193,-83.239865,49.609480
01329,201219,7.843334,-1.707582,0.083058,0.242846,-0.099479,-0.085131,-0.669089,0.305329,-0.412023,-43.678732,-83.314767,49.632000
01330,201319,8.478057,-2.093095,-0.063801,0.276688,0.054112,-0.060269,-0.673652,0.302218,-0.408178,-43.111528,-83.315940,49.221204
01331,201419,8.772670,-2.114343,-0.299410,0.276796,0.151946,-0.042683,-0.670552,0.302459,-0.414175,-42.286268,-83.268502,48.550603
01332,201519,9.153641,-1.953270,-0.373430,0.250834,0.137889,-0.027011,-0.672572,0.302419,-0.412676,-41.588738,-83.220028,47.993564
01333,201619,9.954588,-1.534267,-0.158937,0.233748,0.115437,-0.013030,-0.671045,0.300001,-0.414802,-41.031603,-83.175237,47.567992
01334,201719,10.618073,-0.947802,-0.016293,0.219946,0.136134,-0.002046,-0.671506,0.294649,-0.417581,-40.464944,-83.116903,47.124809
01335,201819,10.919020,-0.338209,0.007181,0.192746,0.200456,0.008513,-0.671501,0.297638,-0.417428,-39.766844,-83.025965,46.533446
01336,201919,10.804393,0.119902,-0.064330,0.143075,0.272588,0.003304,-0.671955,0.296272,-0.420003,-38.885505,-82.904046,45.728644
01337,202019,10.236933,0.437319,-0.108609,0.056296,0.288916,-0.019864,-0.669919,0.294866,-0.422578,-37.953980,-82.781583,44.822937
01338,202119,9.692651,0.388504,0.090433,-0.050985,0.242841,-0.053214,-0.670375,0.297461,-0.424450,-37.119483,-82.690038,43.952865
01339,202219,9.255361,0.052363,0.236365,-0.123146,0.163092,-0.081396,-0.674349,0.298545,-0.424901,-36.456090,-82.643375,43.213487
01340,202319,8.909817,-0.279922,0.439780,-0.140008,0.078270,-0.096635,-0.673373,0.297484,-0.423952,-35.976407,-82.640170,42.649559
01341,202419,8.702057,-0.422680,0.722079,-0.131382,0.018866,-0.107478,-0.675378,0.295499,-0.423554,-35.606424,-82.667682,42.201236
01342,202519,8.409372,-0.484870,0.971201,-0.115740,-0.007523,-0.125399,-0.674863,0.295041,-0.424579,-35.226955,-82.713088,41.752420
01343,202619,8.271231,-0.540638,1.039670,-0.122643,-0.012732,-0.149323,-0.676420,0.295892,-0.421030,-34.771062,-82.768378,41.222625
01344,202719,8.244210,-0.698756,1.082549,-0.131448,0.007538,-0.167401,-0.680394,0.292018,-0.422234,-34.192930,-82.819338,40.564592
01345,202819,8.082041,-0.902846,1.066266,-0.135966,0.036310,-0.172016,-0.679423,0.293425,-0.420658,-33.518495,-82.857158,39.806952
01346,202919,8.002462,-1.003630,1.002991,-0.142201,0.061691,-0.159900,-0.681864,0.295079,-0.423082,-32.824015,-82.877858,39.025555
01347,203019,8.023670,-1.044768,1.008841,-0.146674,0.083103,-0.130451,-0.679865,0.293577,-0.423657,-32.190419,-82.877999,38.302946
01348,203119,8.097340,-0.996898,0.983202,-0.142993,0.085197,-0.098354,-0.681871,0.291094,-0.423285,-31.675267,-82.866481,37.701816
01349,203219,8.263051,-0.885335,0.948330,-0.145342,0.063829,-0.074717,-0.683830,0.294187,-0.424633,-31.306510,-82.857744,37.246851
01350,203319,8.549667,-0.833416,0.936105,-0.146501,0.036649,-0.056889,-0.680843,0.293641,-0.424657,-31.073354,-82.856736,36.927873
01351,203419,8.752269,-0.822486,0.879037,-0.156831,0.005898,-0.048272,-0.683316,0.292732,-0.425708,-30.952365,-82.868160,36.715972
01352,203519,8.790987,-0.859783,0.850366,-0.171853,-0.020366,-0.039199,-0.683358,0.290145,-0.423836,-30.937186,-82.889784,36.602034
01353,203619,8.652683,-0.980321,0.865329,-0.190519,-0.052652,-0.036387,-0.686361,0.292635,-0.422710,-31.020180,-82.926441,36.576253
01354,203719,8.534502,-1.127043,0.968791,-0.216377,-0.081744,-0.029878,-0.687846,0.292683,-0.423211,-31.214264,-82.975434,36.647478
01355,203819,8.401669,-1.266371,1.177551,-0.234416,-0.101848,-0.019095,-0.686375,0.295078,-0.421584,-31.513000,-83.030985,36.813714
01356,203919,8.295678,-1.358826,1.362141,-0.230424,-0.116157,-0.004156,-0.690868,0.294627,-0.421111,-31.909013,-83.088854,37.080227
01357,204019,8.271334,-1.423574,1.548472,-0.215907,-0.111977,0.008643,-0.690906,0.294033,-0.419137,-32.343378,-83.140519,37.393714
01358,204119,8.268588,-1.468852,1.706126,-0.183311,-0.095716,0.012475,-0.694880,0.295116,-0.419587,-32.738148,-83.182830,37.686101
01359,204219,8.349300,-1.446445,1.817886,-0.152169,-0.077367,0.018249,-0.692910,0.293044,-0.418688,-33.094503,-83.214240,37.957746
01360,204319,8.535984,-1.352656,1.890970,-0.126003,-0.050708,0.017736,-0.696912,0.294055,-0.417639,-33.365888,-83.232811,38.158905
01361,204419,8.816553,-1.162679,1.890864,-0.110578,-0.023511,0.013476,-0.697414,0.291572,-0.417767,-33.539849,-83.239595,38.270854
01362,204519,9.112852,-1.047643,1.845578,-0.096616,0.005432,0.005459,-0.698878,0.293163,-0.419190,-33.596344,-83.235043,38.272569
01363,204619,9.312575,-0.989219,1.757248,-0.069652,0.022017,-0.003989,-0.700922,0.290582,-0.416819,-33.555118,-83.225540,38.191435
01364,204719,9.567974,-0.980261,1.633132,-0.043609,0.016059,-0.012977,-0.700939,0.291531,-0.415768,-33.478881,-83.221696,38.090070
01365,204819,9.864013,-1.050792,1.595342,-0.019333,0.007974,-0.023114,-0.702951,0.291016,-0.414795,-33.369516,-83.224879,37.969350
01366,204919,10.198585,-1.170008,1.600071,0.007606,0.017402,-0.034608,-0.703377,0.289224,-0.418895,-33.173368,-83.227102,37.776780
01367,205019,10.396510,-1.307352,1.560248,0.048129,0.022277,-0.050200,-0.703417,0.288131,-0.416946,-32.878032,-83.231735,37.507706
01368,205119,10.453693,-1.458564,1.449443,0.085147,-0.003213,-0.062611,-0.707388,0.285253,-0.418100,-32.577114,-83.252316,37.254373
01369,205219,10.413094,-1.666597,1.501616,0.113716,-0.050253,-0.067104,-0.706882,0.284273,-0.418650,-32.362324,-83.296859,37.104262
01370,205319,10.416826,-1.858614,1.708432,0.142092,-0.084068,-0.065175,-0.712343,0.284408,-0.419652,-32.225627,-83.357101,37.049158
01371,205419,10.608257,-1.958821,1.961680,0.176729,-0.070642,-0.064893,-0.713375,0.285324,-0.417602,-32.033246,-83.410683,36.957981
01372,205519,10.888653,-1.929846,2.219131,0.210143,-0.008042,-0.070793,-0.713330,0.279490,-0.420905,-31.629939,-83.435472,36.673756
01373,205619,11.255432,-1.723803,2.639182,0.222871,0.074138,-0.080726,-0.715312,0.280043,-0.421381,-30.962568,-83.422623,36.131066
01374,205719,11.744699,-1.360946,3.211916,0.212841,0.145649,-0.091735,-0.716809,0.278572,-0.421457,-30.077978,-83.376781,35.363894
01375,205819,12.212002,-0.932134,3.907739,0.179592,0.204313,-0.114430,-0.718274,0.274209,-0.423685,-28.986825,-83.306516,34.369490
01376,205919,12.653016,-0.373892,4.306402,0.137352,0.275908,-0.143021,-0.721686,0.274457,-0.427685,-27.658243,-83.205420,33.111466
01377,206019,13.050731,0.262327,4.414831,0.085027,0.391856,-0.179179,-0.718092,0.272199,-0.433809,-26.002509,-83.050511,31.493400
01378,206119,13.181788,0.686968,3.930029,0.044380,0.529070,-0.223938,-0.721540,0.267890,-0.436537,-23.997430,-82.829029,29.499214
01379,206219,13.124903,0.903801,3.186222,0.002180,0.674340,-0.274127,-0.719409,0.267722,-0.444059,-21.694840,-82.532915,27.179571
01380,206319,12.996259,0.953984,2.229626,-0.036800,0.826938,-0.301306,-0.715813,0.266461,-0.450132,-19.274094,-82.148417,24.716369
01381,206419,13.006774,0.524646,1.131991,-0.055799,0.945158,-0.294303,-0.715714,0.265231,-0.455706,-16.985270,-81.685181,22.372903
01382,206519,12.820824,-0.183775,-0.427394,-0.070799,0.935662,-0.259996,-0.714081,0.265070,-0.463228,-15.083904,-81.210136,20.409740
01383,206619,11.672066,-1.095870,-2.513699,-0.084372,0.715594,-0.191470,-0.714967,0.263880,-0.469302,-13.807616,-80.839689,19.069268
01384,206719,9.463531,-1.367330,-3.940241,-0.140367,0.257870,-0.181251,-0.711440,0.265914,-0.471199,-13.050728,-80.719525,18.221549
01385,206819,8.214120,-1.105398,-3.973153,-0.252219,-0.221546,-0.148693,-0.712441,0.262941,-0.471351,-12.855409,-80.861934,17.877819
01386,206919,7.615882,-0.226789,-3.036640,-0.276614,-0.545385,-0.117285,-0.715014,0.263760,-0.466803,-13.039412,-81.181280,17.904181
01387,207019,7.520654,0.830002,-1.789327,-0.221426,-0.652303,-0.122896,-0.720066,0.265639,-0.462705,-13.271650,-81.561100,18.011287
01388,207119,7.550646,1.511309,-0.452363,-0.101415,-0.642451,-0.143552,-0.722172,0.264385,-0.456758,-13.358617,-81.938170,18.040984
01389,207219,8.020905,1.566235,0.861621,-0.002000,-0.558238,-0.157131,-0.726719,0.265285,-0.453210,-13.254452,-82.270099,17.935208
01390,207319,9.295960,1.121823,1.741912,-0.004634,-0.365796,-0.133064,-0.728249,0.260752,-0.451940,-13.053769,-82.491475,17.730608
01391,207419,10.489317,0.293709,1.702168,-0.053390,-0.132132,-0.089179,-0.728256,0.262223,-0.451364,-12.828584,-82.576631,17.473195
01392,207519,11.075382,-0.154546,1.063724,-0.074581,0.054145,-0.060596,-0.727227,0.259812,-0.453490,-12.554354,-82.553935,17.154095
01393,207619,11.281491,-0.482555,0.399417,-0.078310,0.175275,-0.039040,-0.726268,0.259700,-0.451490,-12.264021,-82.460632,16.816554
01394,207719,11.197151,-0.920764,-0.180119,-0.109725,0.240267,0.003616,-0.727241,0.262255,-0.452363,-12.119654,-82.325651,16.608022
01395,207819,10.779195,-1.293926,-0.831389,-0.194485,0.197283,0.071817,-0.728609,0.265581,-0.458709,-12.346552,-82.206543,16.725084
01396,207919,10.169264,-1.433774,-1.249315,-0.313657,0.042922,0.128019,-0.728664,0.265935,-0.455684,-13.004599,-82.166609,17.208428
01397,208019,9.789941,-1.282399,-0.954918,-0.407584,-0.142405,0.160483,-0.727705,0.265823,-0.453685,-14.026052,-82.224674,18.004240
01398,208119,9.525989,-0.917663,-0.261967,-0.430340,-0.263825,0.171724,-0.727217,0.270251,-0.452457,-15.254114,-82.346328,18.995215
01399,208219,9.238477,-0.534881,0.483372,-0.364026,-0.301936,0.157095,-0.732747,0.273182,-0.449307,-16.465015,-82.488435,20.006899
01400,208319,9.085147,-0.281151,1.112892,-0.251244,-0.282590,0.130293,-0.729803,0.274011,-0.446756,-17.514091,-82.621762,20.920231
01401,208419,8.897855,-0.164253,1.409977,-0.138963,-0.238022,0.100484,-0.731829,0.276438,-0.444631,-18.343340,-82.734079,21.676538
01402,208519,8.564457,-0.069765,1.512994,-0.051309,-0.193608,0.073534,-0.734832,0.278928,-0.443505,-18.964387,-82.825977,22.273433
01403,208619,8.238749,0.012287,1.434423,-0.002622,-0.172328,0.056641,-0.736837,0.276943,-0.443108,-19.466789,-82.908793,22.778759
01404,208719,7.920651,0.139844,1.235597,0.016660,-0.169963,0.049885,-0.737378,0.278823,-0.440507,-19.936417,-82.991092,23.262104
01405,208819,7.699323,0.322727,1.119850,0.018986,-0.178734,0.049752,-0.739832,0.278461,-0.442533,-20.429638,-83.077629,23.770476
01406,208919,7.719695,0.317335,0.999486,0.016900,-0.184625,0.053469,-0.739363,0.277882,-0.441058,-20.963167,-83.166014,24.318151
01407,209019,7.831043,0.157972,0.905596,0.008337,-0.188339,0.061201,-0.740417,0.276757,-0.438111,-21.557037,-83.254127,24.921553
01408,209119,7.903078,-0.081248,0.832105,-0.009138,-0.189511,0.069498,-0.740417,0.276757,-0.438111,-22.216544,-83.340304,25.580854
01409,209219,7.990588,-0.339719,0.781251,-0.025094,-0.199720,0.076203,-0.744390,0.278339,-0.438535,-22.952907,-83.429462,26.308205
01410,209319,8.080415,-0.469445,0.745648,-0.021857,-0.219311,0.083075,-0.744420,0.276772,-0.437112,-23.778954,-83.526209,27.127555
01411,209419,8.244778,-0.531747,0.657513,-0.011821,-0.251348,0.094249,-0.744948,0.275711,-0.435664,-24.744755,-83.635593,28.093159
01412,209519,8.456670,-0.632439,0.647699,0.003159,-0.277414,0.107472,-0.747522,0.276032,-0.431141,-25.857014,-83.753266,29.214532
01413,209619,8.601911,-0.556868,0.653140,0.027633,-0.310470,0.121167,-0.751006,0.277582,-0.431066,-27.142998,-83.881786,30.524488
01414,209719,8.670119,-0.334560,0.717687,0.053524,-0.342801,0.128218,-0.751030,0.274545,-0.430218,-28.587161,-84.021400,32.008095
01415,209819,8.688973,-0.077357,0.862093,0.078636,-0.375931,0.120318,-0.753069,0.274456,-0.427720,-30.140524,-84.175643,33.615550
01416,209919,8.736639,0.184185,1.020259,0.096142,-0.397651,0.106052,-0.752129,0.274296,-0.424721,-31.764161,-84.340123,35.303261
01417,210019,8.782939,0.336235,1.196560,0.107651,-0.408628,0.089509,-0.757154,0.275251,-0.422173,-33.432200,-84.510089,37.041724
01418,210119,8.840290,0.409812,1.438848,0.116423,-0.399664,0.072786,-0.758182,0.273201,-0.420775,-35.086042,-84.676230,38.770487
01419,210219,8.896125,0.435229,1.680688,0.109484,-0.359107,0.058707,-0.759195,0.274166,-0.419725,-36.625517,-84.823642,40.379971
01420,210319,8.909282,0.442203,1.774975,0.101976,-0.297872,0.044993,-0.760713,0.271152,-0.418878,-37.944340,-84.944162,41.763264
01421,210419,8.916919,0.410590,1.693352,0.084561,-0.236063,0.037841,-0.763298,0.270452,-0.413907,-39.042786,-85.036870,42.915094
01422,210519,8.909729,0.319587,1.581134,0.068383,-0.181235,0.034273,-0.763244,0.269600,-0.416956,-39.937473,-85.104859,43.852967
01423,210619,8.995123,0.202618,1.420142,0.070819,-0.135932,0.040160,-0.763718,0.272646,-0.417804,-40.685828,-85.149701,44.645301
01424,210719,9.161406,0.060476,1.291763,0.087544,-0.116425,0.047098,-0.763261,0.270548,-0.415906,-41.386039,-85.182642,45.398892
01425,210819,9.375439,-0.062789,1.260281,0.103604,-0.115371,0.052390,-0.762230,0.269134,-0.417981,-42.108688,-85.212313,46.184200
01426,210919,9.595459,-0.104605,1.364010,0.100651,-0.134410,0.062533,-0.762247,0.270082,-0.416930,-42.982481,-85.245164,47.119446
01427,211019,9.869060,-0.120500,1.523166,0.083753,-0.139704,0.076579,-0.763270,0.270524,-0.415406,-43.973623,-85.273396,48.162688
01428,211119,10.182943,-0.151971,1.591595,0.053594,-0.108459,0.094857,-0.764256,0.266104,-0.416635,-44.930000,-85.280031,49.153684
01429,211219,10.490733,-0.133752,1.489555,0.011030,-0.047873,0.119843,-0.764731,0.268651,-0.417507,-45.732668,-85.250817,49.965992
01430,211319,10.786825,0.035246,1.228215,-0.055014,0.018382,0.143894,-0.766225,0.268675,-0.417508,-46.348136,-85.184506,50.552531
01431,211419,10.869057,0.292494,1.034115,-0.143857,0.067638,0.158164,-0.764184,0.269761,-0.419955,-46.822278,-85.092407,50.946215
01432,211519,10.929913,0.656379,0.928246,-0.243386,0.062342,0.157270,-0.763656,0.271320,-0.421378,-47.358134,-85.002480,51.344661
01433,211619,11.242537,0.960799,1.117259,-0.318070,0.042933,0.140321,-0.766188,0.273730,-0.418753,-47.938867,-84.926914,51.745252
01434,211719,11.708739,0.990229,1.624356,-0.346450,0.064557,0.112611,-0.766704,0.274188,-0.417728,-48.300849,-84.854627,51.909944
01435,211819,12.261023,0.680132,2.315236,-0.303323,0.148222,0.089092,-0.762118,0.274880,-0.423199,-48.141305,-84.760421,51.575800
01436,211919,12.715945,0.179288,3.043991,-0.207051,0.286236,0.068225,-0.761561,0.276511,-0.426122,-47.226969,-84.621512,50.538952
01437,212019,13.222861,-0.525362,3.671045,-0.074271,0.457489,0.050170,-0.763444,0.275835,-0.432171,-45.487308,-84.420118,48.749138
01438,212119,13.683853,-1.353622,3.706996,0.055557,0.652261,0.048100,-0.759881,0.276969,-0.436117,-43.038201,-84.133419,46.320352
01439,212219,13.661879,-2.110073,2.917914,0.138714,0.779576,0.071139,-0.757219,0.273900,-0.445791,-40.427896,-83.773003,43.775973
01440,212319,13.152639,-2.333919,1.929295,0.142891,0.798660,0.103868,-0.753077,0.279204,-0.453532,-38.170296,-83.381171,41.587112
01441,212419,12.692326,-2.086564,1.347792,0.067692,0.789877,0.125147,-0.752514,0.278866,-0.457056,-36.309697,-82.977424,39.752922
01442,212519,12.790563,-1.971801,0.716211,0.010270,0.785919,0.151997,-0.748910,0.282089,-0.462900,-34.790370,-82.560345,38.227953
01443,212619,12.886413,-1.865555,-0.468290,0.027854,0.743906,0.189966,-0.741780,0.281392,-0.471446,-33.651782,-82.146646,37.095851
01444,212719,12.306852,-1.531007,-1.963132,0.059601,0.596342,0.210148,-0.743109,0.285811,-0.479740,-32.993555,-81.795018,36.466181
01445,212819,10.962579,-1.216045,-3.146763,0.075576,0.337307,0.203636,-0.740064,0.285908,-0.482737,-32.895207,-81.569502,36.411122
01446,212919,9.653481,-1.060544,-3.362368,0.062080,0.016222,0.159745,-0.741535,0.288969,-0.483585,-33.335701,-81.511936,36.892981
01447,213019,8.537007,-1.050345,-2.756246,0.076777,-0.307199,0.081757,-0.744117,0.289764,-0.478537,-34.210147,-81.632519,37.821990
01448,213119,8.172536,-1.098042,-1.680897,0.100014,-0.470793,0.040383,-0.744144,0.290190,-0.477012,-35.338646,-81.841274,39.020768
01449,213219,7.919956,-1.181036,-0.792920,0.128329,-0.496306,0.024230,-0.747198,0.290069,-0.473515,-36.520624,-82.063808,40.289288
01450,213319,7.638229,-1.407078,-0.070519,0.176274,-0.434194,0.015071,-0.750704,0.289578,-0.472542,-37.554048,-82.257619,41.434936
01451,213419,7.765590,-1.695829,0.187868,0.281902,-0.337428,0.003846,-0.751719,0.284587,-0.472296,-38.284294,-82.409204,42.335267
01452,213519,8.452127,-1.782736,0.289445,0.382741,-0.197706,-0.004720,-0.750758,0.285472,-0.470246,-38.577011,-82.500035,42.852270
01453,213619,9.238187,-1.781003,0.225443,0.447352,-0.066368,0.008013,-0.752230,0.282080,-0.471923,-38.525048,-82.527320,43.058894
01454,213719,9.643967,-1.614434,0.359818,0.449756,0.001281,0.014332,-0.753681,0.280730,-0.474499,-38.309801,-82.522044,43.102216
01455,213819,10.215224,-1.325263,0.665435,0.431086,0.034544,0.011404,-0.752707,0.278673,-0.473601,-38.005860,-82.502840,43.045293
01456,213919,10.853741,-0.849343,0.583709,0.412135,0.073515,0.014885,-0.755137,0.275891,-0.477252,-37.622105,-82.464737,42.896906
01457,214019,11.119416,-0.249731,0.237761,0.378371,0.093106,0.010850,-0.751163,0.275306,-0.476777,-37.195314,-82.419012,42.685576
01458,214119,10.966035,0.431281,-0.127642,0.318957,0.092574,-0.002169,-0.752623,0.273433,-0.478878,-36.762998,-82.377855,42.434306
01459,214219,10.369768,0.992398,-0.345908,0.222438,0.068660,-0.030764,-0.752653,0.272364,-0.477430,-36.351824,-82.357275,42.148553
01460,214319,9.734105,1.283385,-0.341037,0.080082,0.032397,-0.068365,-0.752121,0.270459,-0.479530,-35.985039,-82.365981,41.825289
01461,214419,9.245589,1.157914,-0.058999,-0.043723,-0.013382,-0.104132,-0.752611,0.269994,-0.480056,-35.678112,-82.407742,41.490868
01462,214519,8.812768,0.748758,0.432693,-0.125594,-0.044056,-0.131124,-0.754136,0.268450,-0.478633,-35.396067,-82.472592,41.134270
01463,214619,8.577630,0.190331,0.987414,-0.168055,-0.058477,-0.134350,-0.754594,0.270049,-0.480556,-35.157487,-82.545045,40.797032
01464,214719,8.379937,-0.320796,1.358767,-0.194081,-0.058469,-0.130298,-0.754591,0.271544,-0.480480,-34.942812,-82.615973,40.468921
01465,214819,8.265287,-0.806437,1.483199,-0.216470,-0.040188,-0.122300,-0.754136,0.268450,-0.478633,-34.718692,-82.675499,40.118402
01466,214919,8.149551,-1.233347,1.320334,-0.232316,-0.012570,-0.114730,-0.752577,0.268097,-0.482157,-34.457018,-82.719317,39.720911
01467,215019,7.895035,-1.473795,1.045719,-0.229991,0.011379,-0.113881,-0.755102,0.270033,-0.480056,-34.132815,-82.751241,39.261760
01468,215119,7.666679,-1.514261,0.722433,-0.206484,0.019724,-0.118089,-0.754598,0.267558,-0.480683,-33.755065,-82.780170,38.762240
01469,215219,7.575091,-1.362616,0.551834,-0.180659,0.010751,-0.107761,-0.754100,0.268048,-0.480658,-33.420733,-82.809704,38.321430
01470,215319,7.668471,-1.132550,0.560900,-0.173538,-0.002399,-0.095360,-0.752566,0.269117,-0.482605,-33.159390,-82.841338,37.958325
01471,215419,7.881220,-0.929798,0.596628,-0.180763,-0.022276,-0.077057,-0.755610,0.269518,-0.479582,-33.019443,-82.876624,37.713419
01472,215519,8.168124,-0.808127,0.708835,-0.198421,-0.047357,-0.052397,-0.757087,0.268594,-0.480633,-33.045999,-82.916218,37.626130
01473,215619,8.402078,-0.728776,0.841451,-0.208452,-0.068589,-0.041173,-0.758093,0.268586,-0.480133,-33.175361,-82.962497,37.636648
01474,215719,8.639899,-0.760950,0.918658,-0.220513,-0.091462,-0.038684,-0.756637,0.267967,-0.478159,-33.381010,-83.018936,37.717065
01475,215819,8.858615,-0.869176,1.031294,-0.233801,-0.104575,-0.034514,-0.760088,0.267123,-0.480210,-33.647251,-83.080268,37.850843
01476,215919,9.013500,-0.990288,1.213929,-0.253844,-0.098635,-0.030895,-0.760130,0.269493,-0.477584,-33.927161,-83.137523,37.986806
01477,216019,9.060106,-1.179959,1.434596,-0.267781,-0.075636,-0.026684,-0.758141,0.267469,-0.477685,-34.173444,-83.182408,38.080843
01478,216119,8.901883,-1.361518,1.590110,-0.273919,-0.057081,-0.021726,-0.760141,0.268473,-0.477135,-34.394830,-83.216832,38.146260
01479,216219,8.608863,-1.545959,1.667468,-0.257036,-0.060672,-0.014300,-0.761115,0.270530,-0.478034,-34.647504,-83.250472,38.252922
01480,216319,8.321277,-1.703418,1.700390,-0.225654,-0.094944,-0.006951,-0.763685,0.267885,-0.474163,-35.008859,-83.297719,38.487116
01481,216419,8.168454,-1.741916,1.819321,-0.194398,-0.133078,0.003726,-0.762656,0.270433,-0.475535,-35.507844,-83.359026,38.877884
01482,216519,8.253160,-1.647459,1.982779,-0.151680,-0.120825,0.007936,-0.763649,0.272442,-0.475434,-35.971740,-83.412798,39.257925
01483,216619,8.459672,-1.442596,2.022371,-0.116486,-0.072237,0.008526,-0.763148,0.268970,-0.476111,-36.280941,-83.443547,39.502514
01484,216719,8.730613,-1.292206,1.864448,-0.084008,-0.021636,0.004737,-0.764149,0.270955,-0.475510,-36.408443,-83.452090,39.582934
01485,216819,9.024384,-1.157555,1.680620,-0.046775,0.000090,0.004696,-0.765652,0.271453,-0.474985,-36.450179,-83.450592,39.598498
01486,216919,9.373063,-1.130908,1.560642,-0.009742,-0.008192,0.000781,-0.767161,0.268463,-0.474638,-36.479527,-83.454220,39.622952
01487,217019,9.777595,-1.110114,1.520653,0.021994,-0.040257,-0.005215,-0.766672,0.268929,-0.474113,-36.562087,-83.474635,39.719269
01488,217119,10.208363,-1.107926,1.569922,0.047585,-0.074389,-0.017181,-0.769663,0.267482,-0.474190,-36.684781,-83.514798,39.870734
01489,217219,10.532908,-1.048192,1.553679,0.080183,-0.098191,-0.036889,-0.772157,0.265528,-0.474293,-36.782706,-83.572594,40.016054
01490,217319,10.669729,-1.096309,1.392227,0.123823,-0.136236,-0.062773,-0.769177,0.265955,-0.473767,-36.868742,-83.656688,40.174553
01491,217419,10.766900,-1.305171,1.232155,0.184286,-0.186372,-0.089719,-0.773709,0.264411,-0.471345,-36.968563,-83.772980,40.381741
01492,217519,10.966757,-1.687842,1.277366,0.260335,-0.206696,-0.106309,-0.773183,0.259518,-0.473598,-37.025168,-83.904240,40.589241
01493,217619,11.334769,-2.061470,1.471977,0.333983,-0.170982,-0.115826,-0.774200,0.257990,-0.472675,-36.885616,-84.022412,40.641876
01494,217719,11.915496,-2.207038,1.893342,0.368823,-0.099751,-0.119501,-0.777705,0.253039,-0.472430,-36.470883,-84.109096,40.437908
01495,217819,12.571241,-2.133098,2.782938,0.359404,-0.011197,-0.123108,-0.777207,0.253031,-0.472430,-35.743639,-84.155736,39.914385
01496,217919,13.356666,-1.786829,3.853752,0.315049,0.086793,-0.131981,-0.779744,0.247993,-0.470686,-34.675357,-84.158519,39.022526
01497,218019,14.269327,-1.204146,4.773542,0.254229,0.225790,-0.146945,-0.781659,0.244753,-0.475363,-33.144248,-84.097848,37.630328
01498,218119,15.002956,-0.367339,5.097235,0.212016,0.429554,-0.164168,-0.780574,0.242487,-0.480487,-31.009917,-83.938876,35.607019
01499,218219,15.199291,0.453307,4.234080,0.189578,0.637018,-0.185380,-0.778948,0.243299,-0.487459,-28.379733,-83.673960,33.071226
01500,218319,14.774757,0.873327,2.574789,0.147059,0.749618,-0.218623,-0.776381,0.239490,-0.492159,-25.595219,-83.347548,30.354143
01501,218419,14.237645,0.857929,0.926040,0.061675,0.744152,-0.249999,-0.775736,0.238871,-0.500207,-22.995295,-83.017373,27.771872
01502,218519,13.659072,0.594528,-0.387747,-0.054887,0.671164,-0.256687,-0.773175,0.236533,-0.504331,-20.785902,-82.714954,25.514118
01503,218619,12.912251,0.144326,-1.520115,-0.148052,0.573225,-0.248407,-0.772081,0.234291,-0.509956,-18.979632,-82.454167,23.607630
01504,218719,11.447668,-0.399198,-2.494671,-0.224083,0.450725,-0.236329,-0.769002,0.232492,-0.515055,-17.543606,-82.251130,22.029724
01505,218819,9.516634,-0.868893,-2.949893,-0.255796,0.239639,-0.210186,-0.771542,0.230916,-0.512633,-16.551761,-82.155048,20.881233
01506,218919,8.024931,-0.952574,-2.567303,-0.242069,-0.008941,-0.155766,-0.772496,0.233519,-0.514505,-16.074825,-82.185006,20.260338
01507,219019,7.206591,-0.625658,-1.850336,-0.181348,-0.234547,-0.108233,-0.775512,0.234491,-0.512956,-16.010470,-82.331335,20.091056
01508,219119,6.976420,-0.166066,-1.084362,-0.045113,-0.373022,-0.075511,-0.774569,0.230369,-0.510660,-16.166324,-82.548771,20.222726
01509,219219,7.037614,0.322195,-0.167635,0.089550,-0.408619,-0.059995,-0.776601,0.228809,-0.508738,-16.364928,-82.783271,20.475223
01510,219319,7.561112,0.609450,0.514374,0.119669,-0.357345,-0.040871,-0.779167,0.228158,-0.504765,-16.578073,-82.986388,20.759643
01511,219419,8.446848,0.571409,0.691773,0.052405,-0.236638,-0.005629,-0.783165,0.226204,-0.504368,-16.838848,-83.117325,21.053121
01512,219519,9.153892,0.522910,0.273783,-0.018316,-0.116669,0.020569,-0.782685,0.226148,-0.503369,-17.101600,-83.177997,21.307719
01513,219619,9.469406,0.646338,-0.256826,-0.070568,-0.049788,0.017199,-0.781729,0.225039,-0.501420,-17.287424,-83.202552,21.454668
01514,219719,9.724580,0.316652,-0.516268,-0.115113,-0.012252,0.015631,-0.782264,0.224951,-0.499421,-17.438578,-83.206841,21.540992
01515,219819,9.886729,-0.191793,-0.620260,-0.179223,0.009316,0.043031,-0.782778,0.226406,-0.498345,-17.720834,-83.194611,21.722353
01516,219919,9.877365,-0.622710,-0.786342,-0.256694,-0.005026,0.089855,-0.780288,0.225868,-0.498370,-18.281419,-83.181789,22.139320
01517,220019,9.779915,-0.943279,-0.852310,-0.322245,-0.060077,0.137909,-0.782305,0.227820,-0.496769,-19.181216,-83.189408,22.860086
01518,220119,9.653811,-1.067516,-0.581264,-0.337310,-0.134987,0.167229,-0.781856,0.231653,-0.493567,-20.348184,-83.230227,23.841179
01519,220219,9.523591,-0.981622,-0.207227,-0.296382,-0.190903,0.174051,-0.784894,0.230086,-0.491145,-21.635001,-83.297086,24.966454
01520,220319,9.383157,-0.736928,0.147709,-0.217515,-0.216092,0.155727,-0.786380,0.229635,-0.491671,-22.865173,-83.378375,26.080021
01521,220419,9.275893,-0.485367,0.415865,-0.121661,-0.216085,0.128887,-0.784406,0.234514,-0.489917,-23.946148,-83.463155,27.098497
01522,220519,9.091094,-0.201070,0.646854,-0.040948,-0.215193,0.099600,-0.785981,0.235816,-0.485343,-24.871244,-83.552351,28.006455
01523,220619,8.817847,0.142480,0.864136,0.013650,-0.219753,0.072713,-0.787986,0.234328,-0.484920,-25.675739,-83.648929,28.824369
01524,220719,8.552510,0.370500,1.023358,0.045127,-0.222048,0.045628,-0.786536,0.235181,-0.482370,-26.365206,-83.752297,29.544542
01525,220819,8.320558,0.481790,1.159614,0.057911,-0.212307,0.030463,-0.789056,0.234650,-0.480896,-26.975164,-83.853671,30.191967
01526,220919,8.116888,0.473458,1.219281,0.053547,-0.182028,0.027448,-0.793549,0.234199,-0.480423,-27.518164,-83.939698,30.769425
01527,221019,7.939206,0.402039,1.213789,0.029616,-0.135458,0.033691,-0.794614,0.232053,-0.477027,-28.001210,-83.999887,31.272731
01528,221119,7.864722,0.219655,1.077391,-0.003423,-0.088130,0.046521,-0.792103,0.233058,-0.477975,-28.450976,-84.032267,31.723499
01529,221219,7.843634,-0.005103,0.875826,-0.040172,-0.053763,0.061792,-0.794618,0.235018,-0.476375,-28.908754,-84.042797,32.161135
01530,221319,7.850152,-0.248133,0.600561,-0.056786,-0.050546,0.070341,-0.794600,0.234568,-0.477399,-29.409861,-84.048949,32.632756
01531,221419,8.006811,-0.381080,0.514717,-0.055567,-0.095757,0.083760,-0.792674,0.233870,-0.473926,-30.099820,-84.073266,33.294938
01532,221519,8.230441,-0.472689,0.573199,-0.041490,-0.142071,0.093567,-0.795145,0.234456,-0.474900,-30.965804,-84.116651,34.142152
01533,221619,8.473603,-0.511236,0.676358,-0.008464,-0.188720,0.099237,-0.797729,0.233756,-0.469929,-31.990672,-84.179687,35.168022
01534,221719,8.670426,-0.487298,0.797124,0.027678,-0.223569,0.104730,-0.799205,0.233828,-0.470929,-33.151211,-84.255846,36.350943
01535,221819,8.734535,-0.474865,0.931654,0.067760,-0.234253,0.102578,-0.801255,0.232718,-0.467981,-34.344089,-84.335307,37.589283
01536,221919,8.709402,-0.304204,1.012751,0.108915,-0.230266,0.097890,-0.801311,0.233072,-0.464957,-35.511188,-84.411873,38.825245
01537,222019,8.632283,-0.084316,1.048945,0.137008,-0.234340,0.083988,-0.803803,0.232115,-0.465009,-36.642996,-84.492564,40.041757
01538,222119,8.587818,0.051723,1.161233,0.155621,-0.234415,0.070644,-0.804363,0.233948,-0.461409,-37.734904,-84.575607,41.228733
01539,222219,8.610955,0.189420,1.322768,0.164776,-0.238973,0.061937,-0.804900,0.232862,-0.459460,-38.832159,-84.661610,42.426183
01540,222319,8.663864,0.317127,1.462171,0.168259,-0.248060,0.054128,-0.805899,0.230886,-0.459562,-39.963236,-84.752269,43.659432
01541,222419,8.699350,0.375923,1.594782,0.161862,-0.252017,0.050867,-0.803943,0.231256,-0.457537,-41.139552,-84.843550,44.934249
01542,222519,8.812421,0.319911,1.732974,0.153315,-0.231905,0.049999,-0.809442,0.230796,-0.456564,-42.272269,-84.924198,46.160203
01543,222619,8.901277,0.202364,1.857781,0.146545,-0.167842,0.053702,-0.808468,0.228739,-0.455666,-43.176187,-84.974468,47.152451
01544,222719,9.013704,0.053753,1.847572,0.153037,-0.078534,0.060604,-0.809495,0.232147,-0.453489,-43.721145,-84.983743,47.788048
01545,222819,9.125105,-0.082943,1.663150,0.173632,-0.003624,0.064890,-0.809988,0.229687,-0.454117,-43.936044,-84.959969,48.104164
01546,222919,9.294293,-0.245637,1.448308,0.194723,0.033198,0.068931,-0.812464,0.228280,-0.455193,-43.989392,-84.919324,48.270246
01547,223019,9.461738,-0.308177,1.396624,0.211135,0.040862,0.077808,-0.809456,0.228281,-0.456192,-44.038063,-84.871962,48.441087
01548,223119,9.592373,-0.310822,1.381755,0.209691,0.034395,0.093096,-0.811416,0.230876,-0.457565,-44.183154,-84.821126,48.707924
01549,223219,9.737433,-0.213763,1.361371,0.193106,0.026061,0.107712,-0.815437,0.226383,-0.456295,-44.435298,-84.767767,49.072737
01550,223319,9.951247,-0.117773,1.369159,0.173879,0.032483,0.130757,-0.812927,0.226890,-0.457269,-44.765117,-84.702343,49.504528
01551,223419,10.268114,-0.001760,1.284308,0.144373,0.055554,0.155048,-0.811894,0.226472,-0.459293,-45.106905,-84.617500,49.931415
01552,223519,10.652967,0.254414,1.176363,0.087953,0.070739,0.178151,-0.809429,0.227855,-0.457716,-45.500561,-84.516885,50.377996
01553,223619,11.057987,0.545318,1.156788,0.011011,0.082992,0.191287,-0.811878,0.230482,-0.459589,-45.924357,-84.405698,50.810648
01554,223719,11.558838,0.788364,1.307897,-0.052025,0.107260,0.195499,-0.808890,0.229936,-0.459614,-46.282923,-84.282872,51.141542
01555,223819,12.049455,0.906167,1.673659,-0.055784,0.147070,0.195419,-0.809883,0.231945,-0.459513,-46.466653,-84.144209,51.294620
01556,223919,12.581930,0.731469,2.356965,0.005678,0.204603,0.186536,-0.809828,0.231591,-0.462537,-46.346564,-83.986497,51.177689
01557,224019,13.228819,0.149212,3.420992,0.107838,0.310655,0.172210,-0.806753,0.232757,-0.466983,-45.718515,-83.792403,50.608734
01558,224119,13.995792,-0.718329,4.037941,0.220427,0.506977,0.175265,-0.808204,0.231407,-0.469559,-44.371939,-83.516513,49.381488
01559,224219,14.545681,-1.803716,3.844831,0.312962,0.735469,0.202759,-0.805600,0.232155,-0.475531,-42.430362,-83.130802,47.607771
01560,224319,14.364847,-2.653413,2.762534,0.366889,0.868370,0.251051,-0.800959,0.232493,-0.484026,-40.434264,-82.662764,45.808664
01561,224419,13.511965,-2.618143,1.574019,0.348035,0.875215,0.289897,-0.797334,0.232300,-0.491547,-38.786140,-82.170665,44.347764
01562,224519,13.057902,-2.471290,0.582598,0.303701,0.836287,0.297265,-0.792259,0.232462,-0.496544,-37.463241,-81.688687,43.187974
01563,224619,13.150513,-2.392461,-0.549281,0.275347,0.782304,0.313541,-0.791147,0.235226,-0.502414,-36.460384,-81.222653,42.333980
01564,224719,12.708712,-2.061089,-1.880742,0.240529,0.647243,0.323289,-0.786561,0.235420,-0.507910,-35.878144,-80.814162,41.884607
01565,224819,11.470139,-1.610017,-2.969292,0.215498,0.381800,0.310753,-0.788467,0.237662,-0.512308,-35.847919,-80.532868,41.979657
01566,224919,10.035417,-1.013427,-3.245595,0.191366,0.024167,0.255933,-0.789502,0.236584,-0.510360,-36.391850,-80.435654,42.642889
01567,225019,9.290944,-0.589980,-2.737349,0.166246,-0.304926,0.168497,-0.790037,0.241952,-0.507581,-37.378038,-80.517972,43.739962
01568,225119,8.463446,-0.557905,-2.175585,0.179725,-0.536834,0.078152,-0.791588,0.241333,-0.504608,-38.632413,-80.733387,45.116191
01569,225219,8.229491,-0.728244,-1.415140,0.172363,-0.600959,0.033120,-0.794662,0.240168,-0.500162,-39.977457,-80.988495,46.579049
01570,225319,7.940900,-1.226864,-0.650761,0.161573,-0.540907,0.022267,-0.799679,0.241147,-0.498113,-41.232180,-81.216208,47.943245
01571,225419,7.835415,-1.805100,-0.255694,0.160598,-0.449015,0.023974,-0.802286,0.238406,-0.492244,-42.325697,-81.399628,49.143035
01572,225519,8.487383,-2.144392,0.143209,0.199808,-0.303891,0.051622,-0.805341,0.237289,-0.488797,-43.139716,-81.508158,50.082442
01573,225619,9.259429,-2.024983,0.280959,0.223490,-0.152558,0.081889,-0.804872,0.236710,-0.487323,-43.641385,-81.540138,50.719594
01574,225719,9.862047,-1.672222,0.426085,0.214991,-0.049425,0.097697,-0.805856,0.238743,-0.487721,-43.919417,-81.522541,51.125707
01575,225819,10.457329,-1.265084,0.568293,0.208654,0.009551,0.087679,-0.808378,0.236219,-0.486349,-44.014759,-81.484416,51.343457
01576,225919,10.961412,-0.625920,0.628625,0.207664,0.051561,0.059601,-0.805384,0.234203,-0.486950,-43.921152,-81.440153,51.369591
01577,226019,11.061940,0.103466,0.409736,0.215220,0.090835,0.006315,-0.805883,0.233713,-0.486975,-43.574792,-81.400798,51.144491
01578,226119,10.767945,0.699709,0.090011,0.202007,0.122719,-0.069646,-0.807354,0.230819,-0.488627,-42.946912,-81.377739,50.626982
01579,226219,9.924622,0.973611,-0.082902,0.145081,0.130224,-0.147906,-0.805376,0.233231,-0.487501,-42.116935,-81.380900,49.872062
01580,226319,9.065504,1.022431,0.012900,0.067212,0.096840,-0.212342,-0.807862,0.230803,-0.488128,-41.230982,-81.421257,49.015450
01581,226419,8.499508,0.874252,0.142154,-0.004998,0.042059,-0.263063,-0.807844,0.230353,-0.489153,-40.366164,-81.502447,48.138510
01582,226519,8.087281,0.507089,0.342485,-0.067574,-0.005737,-0.293879,-0.805390,0.225259,-0.487907,-39.546358,-81.614077,47.271049
01583,226619,7.849710,-0.066204,0.698173,-0.126975,-0.034954,-0.296186,-0.806448,0.227099,-0.484307,-38.803129,-81.737779,46.446849
01584,226719,7.637643,-0.556963,0.995720,-0.196852,-0.042903,-0.273134,-0.806378,0.224801,-0.488432,-38.168838,-81.855373,45.692518
01585,226819,7.500505,-0.944389,1.140771,-0.256227,-0.038834,-0.243103,-0.807906,0.226721,-0.486332,-37.635223,-81.959430,45.005725
01586,226919,7.671194,-1.236366,1.200865,-0.295605,-0.022629,-0.210336,-0.808475,0.228529,-0.482232,-37.175697,-82.043836,44.371127
01587,227019,7.810013,-1.464388,1.146017,-0.298583,0.008611,-0.180261,-0.807961,0.227075,-0.483308,-36.729062,-82.102846,43.747937
01588,227119,7.879242,-1.647488,0.995987,-0.284733,0.036319,-0.149417,-0.808987,0.226022,-0.481859,-36.302048,-82.137893,43.152639
01589,227219,8.038439,-1.608492,0.892192,-0.277030,0.059520,-0.117488,-0.810012,0.225965,-0.480361,-35.917518,-82.150814,42.604718
01590,227319,8.092159,-1.435403,0.822137,-0.280647,0.074249,-0.089676,-0.809994,0.225515,-0.481386,-35.592329,-82.147090,42.114615
01591,227419,8.208195,-1.151478,0.815824,-0.293164,0.060706,-0.069366,-0.809537,0.228376,-0.478734,-35.376121,-82.142598,41.727281
01592,227519,8.499288,-0.885966,0.796869,-0.314409,0.033970,-0.051989,-0.809996,0.229477,-0.480682,-35.295335,-82.144701,41.464364
01593,227619,8.681962,-0.758597,0.769811,-0.320902,-0.009306,-0.044643,-0.812052,0.230336,-0.477134,-35.346875,-82.164587,41.331276
01594,227719,8.781696,-0.727659,0.747533,-0.320069,-0.078097,-0.048957,-0.809503,0.231936,-0.480056,-35.549650,-82.218054,41.351332
01595,227819,8.790550,-0.767460,0.921252,-0.315803,-0.146609,-0.058453,-0.811597,0.232201,-0.474533,-35.888169,-82.306545,41.510843
01596,227919,8.772389,-0.948080,1.210043,-0.300803,-0.181977,-0.068980,-0.813592,0.236195,-0.473830,-36.276966,-82.414809,41.729718
01597,228019,8.775461,-1.188743,1.442028,-0.279372,-0.182610,-0.074252,-0.813648,0.235552,-0.470857,-36.645330,-82.524935,41.940315
01598,228119,8.759171,-1.435666,1.589143,-0.254917,-0.169596,-0.068101,-0.813746,0.237778,-0.465232,-36.995378,-82.626766,42.146522
01599,228219,8.729070,-1.703395,1.790751,-0.226183,-0.158661,-0.055819,-0.817261,0.237761,-0.463734,-37.350793,-82.719139,42.374699
01600,228319,8.648167,-1.987865,1.970625,-0.185882,-0.150821,-0.036370,-0.817746,0.239786,-0.464132,-37.738659,-82.800911,42.658824
01601,228419,8.526950,-2.153321,2.036545,-0.134297,-0.145127,-0.016164,-0.818280,0.240694,-0.462082,-38.161392,-82.872670,43.007836
01602,228519,8.445887,-2.069959,2.040967,-0.083323,-0.147086,-0.004162,-0.817869,0.243933,-0.456906,-38.611745,-82.940645,43.414063
01603,228619,8.477249,-1.787773,2.032391,-0.037106,-0.123026,0.001140,-0.820827,0.245049,-0.458356,-38.992340,-82.995551,43.776636
01604,228719,8.607963,-1.471794,1.955388,-0.002584,-0.078137,0.001501,-0.817918,0.242318,-0.454483,-39.226771,-83.030084,44.011848
01605,228819,8.886758,-1.218588,1.812518,0.018277,-0.024229,-0.002685,-0.818416,0.242326,-0.454484,-39.275459,-83.042110,44.071970
01606,228919,9.201988,-1.096204,1.649281,0.036292,0.002215,-0.005999,-0.821362,0.245459,-0.456331,-39.223205,-83.043577,44.040801
01607,229019,9.530698,-1.099673,1.585240,0.057551,-0.015885,-0.013746,-0.819939,0.247235,-0.452231,-39.184229,-83.055857,44.035283
01608,229119,9.823613,-1.226447,1.690297,0.080209,-0.051911,-0.031246,-0.822874,0.245933,-0.455307,-39.175524,-83.090443,44.073339
01609,229219,10.115851,-1.283569,1.748215,0.098194,-0.078032,-0.047810,-0.822970,0.244197,-0.450385,-39.174055,-83.142598,44.129063
01610,229319,10.317588,-1.298447,1.771058,0.109661,-0.086486,-0.058070,-0.826483,0.245177,-0.448836,-39.153830,-83.202191,44.172509
01611,229419,10.364205,-1.346557,1.668673,0.113243,-0.094357,-0.059053,-0.826044,0.243031,-0.445939,-39.152154,-83.265610,44.236699
01612,229519,10.385679,-1.478124,1.635232,0.120697,-0.114168,-0.056259,-0.826053,0.243505,-0.445413,-39.218807,-83.336781,44.373982
01613,229619,10.592271,-1.666615,1.835200,0.165458,-0.101667,-0.051698,-0.827499,0.244646,-0.447862,-39.240154,-83.400701,44.491457
01614,229719,10.994406,-1.868185,2.061976,0.221512,-0.047556,-0.054138,-0.832516,0.245127,-0.445839,-39.050435,-83.441432,44.428788
01615,229819,11.512367,-1.948959,2.374301,0.263959,0.024555,-0.059527,-0.831536,0.241599,-0.445517,-38.587731,-83.451814,44.115828
01616,229919,11.998791,-1.844907,2.892321,0.274815,0.074163,-0.064211,-0.832521,0.242636,-0.445966,-37.946271,-83.441135,43.629203
01617,230019,12.455979,-1.528662,3.668528,0.251306,0.098794,-0.076165,-0.832520,0.243134,-0.445940,-37.198331,-83.422701,43.021828
01618,230119,12.949467,-0.991652,4.383839,0.222012,0.129229,-0.103284,-0.833984,0.239268,-0.448143,-36.272915,-83.398496,42.218884
01619,230219,13.377069,-0.328577,4.642823,0.184785,0.216686,-0.127207,-0.835933,0.242884,-0.449965,-35.030188,-83.339752,41.074959
01620,230319,13.836387,0.170326,4.268364,0.149451,0.381933,-0.152007,-0.835339,0.239653,-0.455641,-33.286199,-83.207156,39.405698
01621,230419,14.099052,0.534645,3.233223,0.100004,0.578644,-0.191729,-0.834822,0.239693,-0.456640,-30.998102,-82.984398,37.159202
01622,230519,14.236039,0.650057,1.717961,0.041295,0.720767,-0.212215,-0.831203,0.240972,-0.463586,-28.498575,-82.685681,34.664453
01623,230619,14.177863,0.368224,0.286144,0.002023,0.823578,-0.214504,-0.831057,0.239862,-0.471659,-26.018895,-82.322018,32.165168
01624,230719,13.410346,-0.415879,-1.789713,-0.031720,0.756866,-0.196223,-0.829966,0.240586,-0.476631,-23.964325,-81.976104,30.073396
01625,230819,11.742558,-1.182365,-3.865928,-0.083121,0.434429,-0.177692,-0.829399,0.243237,-0.480003,-22.661777,-81.787630,28.710114
01626,230919,9.908486,-1.514542,-4.346165,-0.156506,-0.001883,-0.155886,-0.831413,0.241726,-0.479080,-22.177634,-81.822678,28.130919
01627,231019,8.590575,-1.059751,-3.678524,-0.212209,-0.392539,-0.130457,-0.834903,0.244747,-0.478429,-22.410516,-82.059252,28.243852
01628,231119,7.727660,-0.092991,-2.612757,-0.200899,-0.641948,-0.125515,-0.836543,0.246378,-0.470331,-23.080009,-82.426501,28.803875
01629,231219,7.557157,0.886356,-1.646639,-0.088209,-0.727157,-0.146051,-0.837183,0.245028,-0.462885,-23.816296,-82.842359,29.495837
01630,231319,7.780139,1.667227,-0.513628,0.077958,-0.707494,-0.185452,-0.845272,0.245838,-0.456339,-24.328745,-83.256210,30.057586
01631,231419,8.452717,1.854513,0.769218,0.159147,-0.563700,-0.210370,-0.849350,0.245661,-0.451342,-24.437902,-83.600564,30.259763
01632,231519,9.569452,1.258113,1.642237,0.135346,-0.297169,-0.170765,-0.848345,0.245669,-0.451842,-24.182802,-83.796434,30.081644
01633,231619,10.501774,0.470632,1.434039,0.032467,-0.026166,-0.110209,-0.848908,0.245010,-0.448368,-23.682362,-83.836168,29.597498
01634,231719,10.842051,-0.018910,0.570237,-0.078381,0.121845,-0.061853,-0.847395,0.245533,-0.449342,-23.166060,-83.786624,29.033510
01635,231819,11.021138,-0.431032,-0.193367,-0.160236,0.167177,-0.033540,-0.849371,0.249574,-0.449639,-22.750219,-83.706377,28.523331
01636,231919,11.060929,-0.936682,-0.771381,-0.243053,0.153126,0.018802,-0.850385,0.250040,-0.448615,-22.669102,-83.621785,28.302106
01637,232019,10.831489,-1.482027,-1.226227,-0.335401,0.083486,0.094025,-0.848329,0.254637,-0.451384,-23.133059,-83.557310,28.576105
01638,232119,10.334272,-1.940025,-1.406622,-0.407093,-0.035387,0.167032,-0.849365,0.258020,-0.448708,-24.209843,-83.538060,29.425517
