PacketCounter,SampleTimeFine,Acc_X,Acc_Y,Acc_Z,Gyr_X,Gyr_Y,Gyr_Z,Mag_X,Mag_Y,Mag_Z,Roll,Pitch,Yaw
00730,134859,9.603356,-0.657285,1.844062,-0.007239,-0.007549,0.003589,-0.483707,0.006183,-0.298300,-22.518594,-77.914159,22.067848
00731,134959,9.612556,-0.745881,1.824125,0.001560,-0.002313,-0.002679,-0.484741,0.006102,-0.296301,-22.510351,-77.916973,22.060810
00732,135059,9.588698,-0.812984,1.796425,0.009555,0.004680,-0.005411,-0.482730,0.006119,-0.297300,-22.483650,-77.916685,22.039578
00733,135159,9.560712,-0.833866,1.789212,0.012622,0.001768,-0.005686,-0.484733,0.005130,-0.296851,-22.457548,-77.918005,22.020753
00734,135259,9.573086,-0.796686,1.821695,0.008008,-0.002455,-0.000867,-0.485192,0.006729,-0.298775,-22.450370,-77.920506,22.018574
00735,135359,9.595205,-0.753305,1.809885,0.006888,-0.010320,0.000631,-0.484236,0.004624,-0.296877,-22.455596,-77.926852,22.028424
00736,135459,9.625033,-0.705078,1.802273,0.003528,-0.021286,0.004552,-0.485722,0.004174,-0.297402,-22.483716,-77.938154,22.059715
00737,135559,9.652286,-0.639137,1.822354,0.001157,-0.032025,0.005823,-0.482737,0.002133,-0.297503,-22.527412,-77.954865,22.105546
00738,135659,9.658449,-0.643979,1.882259,0.005812,-0.030670,0.004923,-0.481803,0.003443,-0.293928,-22.564912,-77.971057,22.147764
00739,135759,9.651198,-0.721957,1.904645,0.009752,-0.023527,0.001963,-0.481767,0.003042,-0.295953,-22.585498,-77.984113,22.174995
00740,135859,9.655603,-0.770134,1.885554,0.016286,-0.009885,-0.001252,-0.482263,0.004046,-0.295902,-22.580294,-77.990660,22.179683
00741,135959,9.637110,-0.814894,1.870442,0.015045,0.001707,-0.002200,-0.482255,0.003572,-0.296427,-22.561482,-77.991282,22.169733
00742,136059,9.602984,-0.764914,1.853789,0.009037,0.012825,0.001044,-0.479747,0.002584,-0.297477,-22.542713,-77.985307,22.156305
00743,136159,9.563657,-0.716055,1.830876,0.000677,0.009301,0.003756,-0.480249,0.005557,-0.296825,-22.539148,-77.980606,22.153521
00744,136259,9.575562,-0.635899,1.837424,-0.002706,-0.005476,0.007091,-0.480267,0.001049,-0.296554,-22.560997,-77.983000,22.174748
00745,136359,9.601015,-0.614441,1.831475,-0.004230,-0.031821,0.007398,-0.479782,0.003983,-0.295401,-22.611757,-77.999267,22.224633
00746,136459,9.656695,-0.617956,1.902234,-0.002735,-0.036616,0.003754,-0.477770,0.004497,-0.296375,-22.657643,-78.018864,22.270412
00747,136559,9.638122,-0.694651,1.890584,-0.003743,-0.024546,0.000755,-0.480314,0.005388,-0.293326,-22.684180,-78.032744,22.295819
00748,136659,9.621812,-0.738713,1.855358,-0.008164,-0.010093,-0.003878,-0.482758,0.006047,-0.295800,-22.686655,-78.040002,22.294041
00749,136759,9.607908,-0.762330,1.849855,-0.015928,-0.001816,-0.004083,-0.478763,0.006506,-0.296274,-22.684442,-78.042929,22.282922
00750,136859,9.641005,-0.692542,1.795661,-0.008779,0.015202,-0.000247,-0.481284,0.004978,-0.294851,-22.669957,-78.036026,22.263447
00751,136959,9.585356,-0.660172,1.852013,-0.005761,0.022926,-0.000800,-0.477323,0.001878,-0.294003,-22.644306,-78.025160,22.234329
00752,137059,9.593537,-0.668168,1.803129,-0.007455,0.020633,-0.006490,-0.478257,0.005526,-0.296824,-22.607905,-78.016761,22.193221
00753,137159,9.596066,-0.706768,1.839925,-0.012652,0.020457,-0.008877,-0.476809,0.005381,-0.294325,-22.568754,-78.008984,22.146259
00754,137259,9.581518,-0.771777,1.966768,-0.027914,0.018045,-0.010367,-0.476264,0.005992,-0.296798,-22.537177,-78.002790,22.098101
00755,137359,9.636530,-0.750680,1.921302,-0.031137,0.018003,-0.008648,-0.477747,0.007036,-0.297248,-22.511823,-77.996237,22.054415
00756,137459,9.612069,-0.721638,1.868691,-0.032746,0.032751,-0.008003,-0.479245,0.005067,-0.297350,-22.473836,-77.981734,21.996874
00757,137559,9.613841,-0.659701,1.737485,-0.032178,0.046417,-0.004399,-0.476247,0.005044,-0.297848,-22.430587,-77.959205,21.934279
00758,137659,9.601876,-0.575106,1.691539,-0.025346,0.044861,-0.004480,-0.478256,0.006024,-0.296798,-22.385006,-77.937534,21.873295
00759,137759,9.643336,-0.492910,1.811635,-0.019472,0.025590,-0.010008,-0.478701,0.004681,-0.299874,-22.342060,-77.927278,21.818455
00760,137859,9.651384,-0.455982,1.879402,-0.023849,0.006976,-0.011928,-0.475228,0.007069,-0.298746,-22.315798,-77.927309,21.778106
00761,137959,9.652265,-0.512997,1.831484,-0.033160,-0.017739,-0.020906,-0.473255,0.006491,-0.297771,-22.297633,-77.942404,21.740593
00762,138059,9.640962,-0.656006,1.893380,-0.037957,-0.038414,-0.030894,-0.475255,0.007993,-0.297196,-22.278361,-77.970633,21.699138
00763,138159,9.610215,-0.792951,1.937624,-0.037468,-0.042143,-0.038927,-0.473770,0.007447,-0.296721,-22.242422,-78.002569,21.640937
00764,138259,9.602719,-0.846769,1.940800,-0.029803,-0.033227,-0.043241,-0.471738,0.009007,-0.298644,-22.181993,-78.030685,21.562189
00765,138359,9.610313,-0.814742,1.949050,-0.015667,-0.016993,-0.042623,-0.470754,0.007472,-0.298220,-22.098148,-78.050028,21.467796
00766,138459,9.560899,-0.793370,1.941011,-0.004690,-0.001644,-0.040543,-0.473289,0.008388,-0.295671,-21.997420,-78.060740,21.362574
00767,138559,9.541810,-0.729945,1.928063,-0.008189,0.005403,-0.033826,-0.469248,0.008967,-0.298643,-21.908260,-78.066210,21.267131
00768,138659,9.545842,-0.729240,1.937747,-0.016195,0.003868,-0.028988,-0.471217,0.011538,-0.299516,-21.837365,-78.071437,21.185665
00769,138759,9.585137,-0.731978,1.927256,-0.025071,0.001522,-0.025376,-0.469757,0.007955,-0.298194,-21.782907,-78.077123,21.115814
00770,138859,9.589789,-0.770667,1.961368,-0.035756,0.002618,-0.023049,-0.470223,0.010028,-0.299592,-21.739335,-78.081706,21.050823
00771,138959,9.564654,-0.786437,1.972092,-0.038822,0.011069,-0.022560,-0.469707,0.010068,-0.300591,-21.690241,-78.081664,20.978396
00772,139059,9.575099,-0.743508,1.960571,-0.030718,0.020091,-0.022488,-0.468261,0.008927,-0.298142,-21.627665,-78.076785,20.896935
00773,139159,9.557224,-0.703425,1.899078,-0.021837,0.018127,-0.023786,-0.472237,0.008516,-0.298669,-21.558751,-78.073204,20.814197
00774,139259,9.587057,-0.731559,1.910992,-0.008250,0.009989,-0.027982,-0.471709,0.009577,-0.300117,-21.479605,-78.074811,20.728953
00775,139359,9.610149,-0.733608,1.949949,0.007362,-0.008604,-0.031374,-0.472161,0.009706,-0.302617,-21.401332,-78.087012,20.653747
00776,139459,9.642756,-0.785985,2.059434,0.024035,-0.009285,-0.033380,-0.470714,0.009063,-0.300143,-21.308951,-78.099963,20.573889
00777,139559,9.637882,-0.898286,2.055503,0.033442,0.008657,-0.035986,-0.473191,0.011618,-0.300516,-21.186804,-78.103821,20.469114
00778,139659,9.583799,-0.960592,1.985290,0.040044,0.025640,-0.033801,-0.472244,0.009987,-0.298093,-21.049811,-78.098089,20.353034
00779,139759,9.497543,-0.939539,1.926405,0.041360,0.023275,-0.025197,-0.474248,0.008500,-0.297670,-20.936410,-78.091791,20.261829
00780,139859,9.508986,-0.789547,1.864751,0.045777,0.009144,-0.012580,-0.474263,0.010445,-0.296569,-20.866347,-78.090443,20.217491
00781,139959,9.566463,-0.663453,1.791638,0.038712,-0.008423,-0.008205,-0.472765,0.006958,-0.297246,-20.828391,-78.097606,20.201839
00782,140059,9.581511,-0.634245,1.807995,0.029040,-0.016073,-0.004641,-0.472221,0.007070,-0.299745,-20.812424,-78.108142,20.202991
00783,140159,9.581906,-0.652538,1.820160,0.021636,-0.024465,-0.004892,-0.475757,0.005510,-0.297323,-20.808176,-78.123243,20.211785
00784,140259,9.563918,-0.714059,1.936807,0.011253,-0.030220,-0.005163,-0.475765,0.005984,-0.296798,-20.814794,-78.141468,20.225599
00785,140359,9.588790,-0.762341,1.959320,0.011404,-0.029586,-0.003807,-0.473808,0.006853,-0.294747,-20.824236,-78.159067,20.242381
00786,140459,9.581120,-0.817454,1.951066,0.020153,-0.017580,-0.004970,-0.476763,0.005004,-0.296849,-20.814058,-78.170463,20.244244
00787,140559,9.573436,-0.806904,1.964922,0.035869,0.000977,-0.003959,-0.472260,0.005977,-0.297796,-20.779476,-78.171693,20.230364
00788,140659,9.538729,-0.801202,1.909594,0.044919,0.020314,-0.003966,-0.475306,0.004883,-0.294849,-20.721011,-78.162578,20.197382
00789,140759,9.521776,-0.744789,1.846377,0.057300,0.025278,-0.000176,-0.475804,0.004891,-0.294849,-20.660457,-78.150016,20.169508
00790,140859,9.540486,-0.670283,1.872413,0.061736,0.015489,-0.000535,-0.475807,0.003397,-0.294926,-20.605918,-78.142769,20.150382
00791,140959,9.579914,-0.620499,1.913515,0.060448,0.007848,0.005039,-0.473880,0.003196,-0.291426,-20.573736,-78.138502,20.153341
00792,141059,9.622563,-0.613829,1.988036,0.056099,0.001009,0.005936,-0.476825,0.001870,-0.294003,-20.552823,-78.137708,20.165279
00793,141159,9.665056,-0.646239,2.043552,0.051839,0.002711,0.007380,-0.473343,0.004281,-0.293375,-20.536458,-78.135691,20.179350
00794,141259,9.639177,-0.691347,2.024711,0.046191,0.008578,0.011891,-0.474337,0.000335,-0.294078,-20.529075,-78.129626,20.199332
00795,141359,9.627976,-0.722855,1.990370,0.046871,0.010070,0.016360,-0.476835,0.001347,-0.293528,-20.531416,-78.121861,20.229621
00796,141459,9.602471,-0.727505,1.906952,0.050255,0.021206,0.014331,-0.474336,0.000834,-0.294053,-20.515951,-78.108505,20.243701
00797,141559,9.558396,-0.734190,1.823706,0.051798,0.036060,0.009840,-0.471881,0.001694,-0.292002,-20.474148,-78.088094,20.231754
00798,141659,9.495367,-0.681497,1.771792,0.048963,0.041854,0.011662,-0.472849,0.001782,-0.293502,-20.433188,-78.064207,20.219015
00799,141759,9.486521,-0.604665,1.768837,0.044918,0.027883,0.018678,-0.471338,0.000810,-0.294552,-20.425551,-78.046418,20.237981
00800,141859,9.512667,-0.549777,1.808750,0.044985,0.008426,0.018490,-0.472795,0.000931,-0.296551,-20.435766,-78.039123,20.275227
00801,141959,9.580496,-0.518365,1.916429,0.040210,-0.014430,0.017521,-0.469316,0.001349,-0.296025,-20.467810,-78.044283,20.331984
00802,142059,9.590794,-0.564367,2.005110,0.037714,-0.025129,0.019091,-0.469825,0.000835,-0.295551,-20.515390,-78.054885,20.403173
00803,142159,9.597369,-0.590351,2.016153,0.041610,-0.026119,0.017865,-0.470300,0.003382,-0.296423,-20.558809,-78.066225,20.472342
00804,142259,9.613386,-0.613031,1.995863,0.046993,-0.020698,0.015774,-0.469232,0.002064,-0.300498,-20.588424,-78.075018,20.530612
00805,142359,9.638495,-0.619754,1.938877,0.049639,-0.012893,0.013140,-0.469260,0.006950,-0.298244,-20.602889,-78.080206,20.574851
00806,142459,9.638070,-0.603832,1.883514,0.045680,-0.000372,0.011549,-0.469764,0.003969,-0.298397,-20.603173,-78.079023,20.602385
00807,142559,9.621647,-0.627800,1.865791,0.033795,0.003846,0.010314,-0.469721,0.007055,-0.300244,-20.603318,-78.075792,20.622755
00808,142659,9.615827,-0.626534,1.882791,0.015206,-0.009299,0.010775,-0.471736,0.010003,-0.298593,-20.627909,-78.079561,20.657217
00809,142759,9.666489,-0.681204,1.923962,0.016749,-0.019405,0.008150,-0.472734,0.009023,-0.298644,-20.654436,-78.089270,20.694606
00810,142859,9.601814,-0.665141,2.033399,0.030012,-0.020362,0.008489,-0.472222,0.011530,-0.299016,-20.675251,-78.099393,20.733902
00811,142959,9.536596,-0.703048,2.070540,0.034791,-0.021948,0.003051,-0.472692,0.011610,-0.300516,-20.680971,-78.111450,20.760587
00812,143059,9.578420,-0.743883,1.959365,0.039926,-0.008351,-0.002420,-0.473725,0.012028,-0.298492,-20.656807,-78.117336,20.759735
00813,143159,9.496530,-0.747538,1.995553,0.032505,-0.002029,-0.007970,-0.473170,0.012663,-0.301465,-20.616649,-78.120920,20.738195
00814,143259,9.502661,-0.693582,1.966902,0.020734,-0.006863,-0.004524,-0.472729,0.012012,-0.298491,-20.596644,-78.126412,20.730361
00815,143359,9.493998,-0.624383,1.832283,0.011430,-0.012298,0.000715,-0.475695,0.014599,-0.299365,-20.600571,-78.133758,20.741527
00816,143459,9.505516,-0.581617,1.735570,0.010667,-0.017919,0.000453,-0.473178,0.013635,-0.300914,-20.609607,-78.144178,20.757477
00817,143559,9.487666,-0.580308,1.715491,0.005234,-0.037933,0.002780,-0.472694,0.016070,-0.299788,-20.647044,-78.164879,20.799256
00818,143659,9.552188,-0.587987,1.789929,0.003999,-0.058625,0.001864,-0.472247,0.013450,-0.297415,-20.702961,-78.196863,20.859199
00819,143759,9.634630,-0.602467,1.895007,0.007413,-0.068476,0.000733,-0.472197,0.015564,-0.299813,-20.763929,-78.234335,20.926287
00820,143859,9.645442,-0.635733,1.873703,0.019904,-0.081373,-0.004744,-0.472195,0.016560,-0.299762,-20.816649,-78.279821,20.992249
00821,143959,9.652436,-0.709209,1.885439,0.025818,-0.092772,-0.013530,-0.469213,0.017984,-0.299185,-20.854941,-78.333187,21.046926
00822,144059,9.642541,-0.691405,1.874081,0.025602,-0.095730,-0.024374,-0.469682,0.018562,-0.300659,-20.868481,-78.390343,21.076194
00823,144159,9.580764,-0.693349,1.869276,0.022945,-0.095182,-0.030892,-0.465165,0.022051,-0.301979,-20.866159,-78.448530,21.087708
00824,144259,9.526095,-0.635296,1.823253,0.021876,-0.091566,-0.036239,-0.467669,0.019575,-0.301607,-20.846776,-78.505877,21.081184
00825,144359,9.494974,-0.593450,1.804836,0.023689,-0.092619,-0.037757,-0.463182,0.021497,-0.301504,-20.823251,-78.564096,21.071494
00826,144459,9.500146,-0.582961,1.796353,0.022833,-0.098274,-0.038008,-0.468188,0.023496,-0.299905,-20.805082,-78.625398,21.066771
00827,144559,9.553272,-0.566189,1.817764,0.018522,-0.105777,-0.036569,-0.464661,0.025032,-0.301827,-20.800716,-78.690425,21.073608
00828,144659,9.646978,-0.580469,1.869066,0.014230,-0.106497,-0.032886,-0.467155,0.028535,-0.301150,-20.809457,-78.755085,21.091303
00829,144759,9.712534,-0.626902,1.894115,0.015712,-0.104524,-0.031341,-0.466175,0.029966,-0.300074,-20.819630,-78.818368,21.111319
00830,144859,9.720632,-0.689803,1.902657,0.013675,-0.093829,-0.033541,-0.465600,0.031645,-0.303996,-20.814073,-78.876360,21.114108
00831,144959,9.680660,-0.754476,1.861402,0.005465,-0.071678,-0.035015,-0.466140,0.034024,-0.301370,-20.786190,-78.922778,21.089349
00832,145059,9.603941,-0.746141,1.803425,0.001470,-0.048459,-0.035881,-0.466558,0.037214,-0.305216,-20.733883,-78.956923,21.037372
00833,145159,9.528447,-0.698018,1.719451,-0.003739,-0.039127,-0.036963,-0.462601,0.037078,-0.303715,-20.671597,-78.986275,20.972191
00834,145259,9.517355,-0.624526,1.686919,0.000229,-0.042105,-0.037397,-0.463063,0.041643,-0.304986,-20.608602,-79.017300,20.908610
00835,145359,9.572227,-0.525440,1.712296,0.009985,-0.061740,-0.032815,-0.462572,0.043105,-0.304410,-20.572756,-79.057928,20.878385
00836,145459,9.675644,-0.495885,1.775373,0.011226,-0.064017,-0.034325,-0.461071,0.046569,-0.304232,-20.534069,-79.100079,20.845997
00837,145559,9.751345,-0.533062,1.799306,0.011787,-0.064661,-0.034739,-0.458046,0.046618,-0.306230,-20.494261,-79.142654,20.812800
00838,145659,9.783440,-0.594473,1.789816,0.006140,-0.065775,-0.034086,-0.457518,0.047679,-0.307679,-20.460400,-79.185690,20.782369
00839,145759,9.751569,-0.607807,1.745833,0.000386,-0.064176,-0.034524,-0.458002,0.050202,-0.308052,-20.426670,-79.227953,20.748719
00840,145859,9.708608,-0.657170,1.724022,0.002049,-0.054795,-0.037599,-0.458971,0.049792,-0.309577,-20.373154,-79.265786,20.695902
00841,145959,9.610322,-0.738794,1.684852,-0.002601,-0.040085,-0.041625,-0.458457,0.053794,-0.309873,-20.295072,-79.296504,20.615373
00842,146059,9.481410,-0.712031,1.633982,-0.010613,-0.029545,-0.038672,-0.458950,0.056293,-0.309747,-20.218545,-79.320950,20.531761
00843,146159,9.435839,-0.611395,1.632421,-0.017685,-0.037169,-0.031351,-0.455401,0.054911,-0.313320,-20.174665,-79.348033,20.477252
00844,146259,9.468742,-0.517837,1.642216,-0.014581,-0.056343,-0.024354,-0.458932,0.056341,-0.310746,-20.168982,-79.384046,20.463422
00845,146359,9.569079,-0.428414,1.675636,-0.015042,-0.078670,-0.020204,-0.457890,0.061404,-0.312491,-20.199025,-79.431250,20.485673
00846,146459,9.666180,-0.431546,1.722534,-0.016058,-0.092126,-0.023539,-0.458876,0.061444,-0.312991,-20.234517,-79.486349,20.512873
00847,146559,9.751938,-0.512795,1.707419,-0.016357,-0.092863,-0.028818,-0.458334,0.065518,-0.314787,-20.255896,-79.542890,20.525543
00848,146659,9.775003,-0.603423,1.698193,-0.014238,-0.078826,-0.033386,-0.459337,0.067004,-0.314211,-20.247717,-79.592789,20.509388
00849,146759,9.723118,-0.698190,1.686248,-0.016757,-0.058826,-0.034311,-0.457820,0.069022,-0.315108,-20.216535,-79.632115,20.468380
00850,146859,9.636829,-0.700346,1.650111,-0.019459,-0.048840,-0.027018,-0.458731,0.070251,-0.319556,-20.197369,-79.664621,20.438014
00851,146959,9.629739,-0.600896,1.626801,-0.022313,-0.051851,-0.022270,-0.461212,0.070314,-0.320057,-20.197023,-79.697806,20.425119
00852,147059,9.629830,-0.494426,1.627411,-0.023325,-0.061407,-0.015472,-0.456742,0.073683,-0.318878,-20.227807,-79.734788,20.443275
00853,147159,9.669405,-0.417845,1.655237,-0.024045,-0.068663,-0.015504,-0.458205,0.075273,-0.320302,-20.266999,-79.775678,20.469554
00854,147259,9.714555,-0.421489,1.691490,-0.024466,-0.069750,-0.019109,-0.456189,0.078279,-0.321148,-20.297041,-79.817866,20.486291
00855,147359,9.763300,-0.496948,1.652679,-0.024190,-0.066481,-0.023139,-0.458646,0.081380,-0.322496,-20.311344,-79.859098,20.487197
00856,147459,9.742640,-0.603766,1.646861,-0.022344,-0.052391,-0.028110,-0.457590,0.084000,-0.325367,-20.293953,-79.893745,20.456982
00857,147559,9.669463,-0.677515,1.624760,-0.024024,-0.041905,-0.029179,-0.457524,0.084667,-0.328841,-20.262471,-79.922963,20.411477
00858,147659,9.624148,-0.665202,1.615337,-0.020161,-0.040036,-0.026631,-0.457003,0.087198,-0.329713,-20.234240,-79.950662,20.371523
00859,147759,9.643966,-0.604437,1.621287,-0.012811,-0.046312,-0.019741,-0.458451,0.092301,-0.331459,-20.229620,-79.980366,20.359825
00860,147859,9.658681,-0.521763,1.620700,-0.009454,-0.056591,-0.017596,-0.460857,0.093055,-0.335932,-20.241119,-80.015170,20.366451
00861,147959,9.678401,-0.468327,1.608996,-0.011805,-0.066103,-0.012663,-0.457311,0.095137,-0.338829,-20.279873,-80.054109,20.399381
00862,148059,9.721048,-0.464614,1.615758,-0.014253,-0.062943,-0.014962,-0.457809,0.100103,-0.338075,-20.309602,-80.091805,20.421723
00863,148159,9.709146,-0.504187,1.612110,-0.018419,-0.045564,-0.013560,-0.458236,0.103768,-0.341396,-20.326355,-80.119881,20.428467
00864,148259,9.678038,-0.570824,1.574974,-0.020882,-0.030820,-0.009754,-0.455141,0.106476,-0.346766,-20.339471,-80.139279,20.430087
00865,148359,9.678288,-0.566452,1.592666,-0.033265,-0.017387,-0.004381,-0.459097,0.112068,-0.347487,-20.360935,-80.150388,20.432978
00866,148459,9.682027,-0.505757,1.592945,-0.046520,-0.006830,0.001318,-0.458491,0.115314,-0.352832,-20.395504,-80.154690,20.441462
00867,148559,9.721578,-0.396989,1.548122,-0.064441,-0.001450,0.011035,-0.457463,0.117862,-0.354205,-20.464165,-80.154165,20.474129
00868,148659,9.716790,-0.315724,1.546896,-0.087239,-0.007353,0.010249,-0.456848,0.121132,-0.360049,-20.550188,-80.156967,20.511162
00869,148759,9.759442,-0.310552,1.544932,-0.107076,-0.014732,0.005631,-0.456359,0.126059,-0.358796,-20.641814,-80.164658,20.542350
00870,148859,9.829122,-0.367903,1.582644,-0.105318,-0.009456,0.001934,-0.457224,0.132366,-0.364989,-20.714839,-80.170267,20.555685
00871,148959,9.774070,-0.422904,1.587529,-0.092127,0.010950,-0.003804,-0.459658,0.132550,-0.367988,-20.738655,-80.166106,20.526750
00872,149059,9.696791,-0.532786,1.519379,-0.077846,0.033233,-0.008784,-0.460129,0.137589,-0.368734,-20.712890,-80.151018,20.455797
00873,149159,9.661667,-0.639233,1.463678,-0.071093,0.040655,-0.010449,-0.459575,0.142684,-0.370979,-20.669706,-80.132286,20.371084
00874,149259,9.589679,-0.713485,1.578946,-0.074830,0.029944,-0.009713,-0.460988,0.147384,-0.374749,-20.643641,-80.119134,20.301570
00875,149359,9.611030,-0.671910,1.713463,-0.076388,0.006125,-0.000123,-0.458485,0.148863,-0.375172,-20.675704,-80.116798,20.290149
00876,149459,9.711311,-0.627543,1.741405,-0.069148,0.000695,0.006541,-0.457880,0.156570,-0.379789,-20.730425,-80.116010,20.305939
00877,149559,9.751741,-0.574778,1.664281,-0.054004,0.024340,0.007145,-0.454878,0.159038,-0.380161,-20.750790,-80.102423,20.295662
00878,149659,9.761856,-0.559739,1.552265,-0.047516,0.049221,0.007062,-0.453371,0.161031,-0.380558,-20.738305,-80.075524,20.255811
00879,149759,9.759415,-0.568746,1.538288,-0.045250,0.068943,0.006286,-0.452264,0.165764,-0.385827,-20.699557,-80.038214,20.190611
00880,149859,9.687694,-0.571553,1.518535,-0.036558,0.070811,0.001136,-0.448746,0.167774,-0.387224,-20.638441,-80.000941,20.107747
00881,149959,9.659015,-0.594391,1.505464,-0.026814,0.043605,-0.005753,-0.446711,0.170828,-0.389070,-20.582389,-79.979639,20.035687
00882,150059,9.677994,-0.589165,1.557717,-0.019596,0.005084,-0.009371,-0.440744,0.175169,-0.387840,-20.555287,-79.979722,19.997222
00883,150159,9.716165,-0.607590,1.629711,-0.008890,-0.016228,-0.011466,-0.436244,0.179606,-0.388110,-20.539952,-79.991656,19.976935
00884,150259,9.734515,-0.580968,1.666297,-0.002974,-0.014602,-0.014693,-0.428741,0.181054,-0.389531,-20.509505,-80.003359,19.944745
00885,150359,9.686221,-0.554761,1.710905,-0.004198,0.003585,-0.013489,-0.424696,0.183627,-0.392402,-20.462646,-80.005047,19.895181
00886,150459,9.636217,-0.507074,1.665974,-0.005957,0.019615,-0.014765,-0.417737,0.185959,-0.391273,-20.394698,-79.998372,19.823178
00887,150559,9.618910,-0.443724,1.626492,-0.010058,0.026630,-0.012294,-0.412271,0.188813,-0.390119,-20.328752,-79.987421,19.750823
00888,150659,9.639340,-0.411853,1.571647,-0.011604,0.026906,-0.012707,-0.405780,0.192222,-0.390439,-20.262222,-79.976396,19.676975
00889,150759,9.623854,-0.427961,1.509718,-0.017331,0.032563,-0.013997,-0.401296,0.197608,-0.389658,-20.188847,-79.962580,19.592842
00890,150859,9.592403,-0.489881,1.489044,-0.022545,0.036212,-0.015492,-0.396364,0.195913,-0.387234,-20.110074,-79.947087,19.500191
00891,150959,9.588583,-0.561996,1.502404,-0.027647,0.028920,-0.014124,-0.389878,0.196831,-0.387681,-20.046721,-79.935235,19.420226
00892,151059,9.625857,-0.591034,1.542810,-0.024356,0.014825,-0.011956,-0.385929,0.197170,-0.385655,-20.003794,-79.930536,19.362919
00893,151159,9.658065,-0.579858,1.610558,-0.018699,-0.002238,-0.009048,-0.374505,0.199383,-0.383525,-19.985305,-79.934448,19.333723
00894,151259,9.712423,-0.549082,1.648611,-0.015778,-0.011384,-0.009590,-0.374055,0.198258,-0.381077,-19.973561,-79.943388,19.313077
00895,151359,9.723017,-0.551786,1.674767,-0.012149,-0.008958,-0.010642,-0.369681,0.199393,-0.375002,-19.953828,-79.951222,19.286430
00896,151459,9.657841,-0.555424,1.681288,-0.015766,-0.001279,-0.010920,-0.360772,0.198607,-0.372025,-19.926811,-79.954967,19.250283
00897,151559,9.612325,-0.562165,1.626839,-0.031174,0.020208,-0.012891,-0.353851,0.194889,-0.369702,-19.878978,-79.947515,19.184028
00898,151659,9.585948,-0.511604,1.558978,-0.044503,0.034468,-0.009847,-0.351435,0.199615,-0.364949,-19.832495,-79.931779,19.111387
00899,151759,9.625803,-0.430302,1.517980,-0.057037,0.032857,-0.007049,-0.344520,0.197865,-0.362024,-19.803581,-79.916370,19.049294
00900,151859,9.565228,-0.305687,1.499228,-0.059478,0.006473,-0.011845,-0.341078,0.198686,-0.359473,-19.790315,-79.916126,19.001674
00901,151959,9.736275,-0.371083,1.554854,-0.047028,-0.001846,-0.007954,-0.336712,0.195336,-0.353626,-19.790717,-79.919620,18.975185
00902,152059,9.726579,-0.372418,1.568678,-0.036154,-0.003328,-0.008853,-0.331304,0.197050,-0.349525,-19.783702,-79.924097,18.947495
00903,152159,9.663523,-0.400076,1.579954,-0.027025,-0.020916,-0.015824,-0.328918,0.190292,-0.344856,-19.769405,-79.939413,18.917722
00904,152259,9.671450,-0.455208,1.649739,-0.019241,-0.031483,-0.024835,-0.328534,0.188501,-0.338935,-19.734642,-79.962170,18.871697
00905,152359,9.679742,-0.533710,1.701342,-0.014549,-0.036533,-0.026979,-0.327147,0.185721,-0.333563,-19.695961,-79.988054,18.824428
00906,152459,9.688094,-0.598059,1.695008,-0.012227,-0.036757,-0.030238,-0.327739,0.184990,-0.328591,-19.645999,-80.014672,18.767057
00907,152559,9.656542,-0.615269,1.666399,-0.016500,-0.035192,-0.032222,-0.327855,0.182209,-0.322720,-19.590419,-80.040810,18.701500
00908,152659,9.619629,-0.645935,1.647779,-0.014790,-0.026339,-0.030560,-0.328412,0.180578,-0.319798,-19.529030,-80.061831,18.631042
00909,152759,9.587379,-0.619797,1.602859,-0.012696,-0.015337,-0.028024,-0.330006,0.176375,-0.315004,-19.462030,-80.076407,18.556109
00910,152859,9.594846,-0.576981,1.572150,-0.005574,-0.012701,-0.025355,-0.328628,0.173572,-0.309132,-19.396153,-80.089035,18.486460
00911,152959,9.591554,-0.559857,1.538102,0.005173,-0.019855,-0.021490,-0.332691,0.171449,-0.305237,-19.343724,-80.104785,18.436714
00912,153059,9.606810,-0.574883,1.574335,0.012072,-0.025220,-0.016589,-0.334289,0.170710,-0.299765,-19.308260,-80.122499,18.408203
00913,153159,9.617990,-0.593629,1.584152,0.017637,-0.024186,-0.013657,-0.335877,0.164538,-0.295572,-19.277522,-80.139093,18.387725
00914,153259,9.611835,-0.635402,1.606707,0.021453,-0.021669,-0.011572,-0.336453,0.162360,-0.291675,-19.248321,-80.153925,18.371025
00915,153359,9.593954,-0.638426,1.634469,0.022429,-0.019086,-0.007845,-0.339540,0.159177,-0.286830,-19.227361,-80.166647,18.363256
00916,153459,9.641538,-0.552982,1.632614,0.027688,-0.023328,-0.001611,-0.345073,0.155158,-0.284536,-19.227468,-80.180483,18.379925
00917,153559,9.669749,-0.471709,1.642389,0.031350,-0.029001,0.003442,-0.345640,0.153005,-0.281140,-19.247488,-80.196430,18.418933
00918,153659,9.679177,-0.389153,1.629324,0.041704,-0.031078,0.006172,-0.347722,0.149830,-0.276794,-19.272440,-80.212982,18.468965
00919,153759,9.704715,-0.352536,1.627902,0.046748,-0.026311,0.003149,-0.351775,0.148230,-0.273373,-19.279816,-80.227526,18.504095
00920,153859,9.707043,-0.406128,1.569291,0.051505,-0.022626,0.000474,-0.353334,0.148085,-0.269875,-19.272014,-80.240588,18.526590
00921,153959,9.673339,-0.449652,1.542466,0.051806,-0.021891,0.001121,-0.355879,0.143520,-0.267606,-19.265266,-80.253134,18.550329
00922,154059,9.636464,-0.536154,1.534743,0.050191,-0.029743,0.001896,-0.359349,0.142627,-0.268657,-19.270590,-80.269784,18.585375
00923,154159,9.636846,-0.577873,1.552951,0.046270,-0.044352,0.006965,-0.361371,0.142088,-0.267184,-19.310460,-80.293371,18.653188
00924,154259,9.599184,-0.602733,1.576995,0.048003,-0.055432,0.010972,-0.362434,0.140939,-0.263736,-19.374683,-80.322172,18.746705
00925,154359,9.619923,-0.589564,1.577030,0.053418,-0.061926,0.015766,-0.364445,0.140923,-0.262737,-19.458831,-80.353546,18.863573
00926,154459,9.592608,-0.525404,1.601500,0.059098,-0.063371,0.019727,-0.363954,0.141887,-0.262186,-19.554631,-80.384906,18.995548
00927,154559,9.606608,-0.440238,1.608992,0.069308,-0.059755,0.022883,-0.367989,0.139837,-0.259790,-19.651227,-80.413668,19.134252
00928,154659,9.631862,-0.371449,1.586599,0.075922,-0.050550,0.022392,-0.364960,0.141879,-0.261687,-19.732504,-80.437523,19.261257
00929,154759,9.660171,-0.392589,1.547976,0.077045,-0.037391,0.023652,-0.369477,0.143847,-0.259587,-19.802427,-80.454015,19.377394
00930,154859,9.694025,-0.453675,1.500709,0.075306,-0.031159,0.023105,-0.368974,0.140873,-0.260240,-19.864656,-80.467236,19.484714
00931,154959,9.676588,-0.527320,1.489056,0.068579,-0.036003,0.020364,-0.369495,0.143798,-0.258588,-19.927835,-80.483585,19.589084
00932,155059,9.714012,-0.551167,1.543265,0.058437,-0.044076,0.022238,-0.371941,0.142962,-0.261138,-20.012630,-80.503892,19.709472
00933,155159,9.773948,-0.524402,1.566022,0.066612,-0.039070,0.024963,-0.372987,0.146321,-0.257962,-20.096047,-80.520938,19.833206
00934,155259,9.704537,-0.478515,1.599689,0.073074,-0.032915,0.025252,-0.370977,0.145839,-0.258986,-20.169729,-80.534584,19.950819
00935,155359,9.679478,-0.467859,1.495336,0.079062,-0.024913,0.021059,-0.372492,0.144320,-0.258063,-20.217167,-80.544739,20.045300
00936,155459,9.612079,-0.433374,1.553876,0.090154,-0.024022,0.019300,-0.375505,0.141330,-0.257217,-20.251609,-80.554753,20.133047
00937,155559,9.546260,-0.451721,1.633943,0.079065,-0.041436,0.016187,-0.377533,0.142262,-0.255168,-20.303281,-80.574725,20.231819
00938,155659,9.553606,-0.453048,1.564837,0.067408,-0.054605,0.014781,-0.379537,0.140774,-0.254745,-20.373232,-80.602031,20.342343
00939,155759,9.603220,-0.465454,1.527951,0.070742,-0.051136,0.019744,-0.383524,0.139841,-0.254797,-20.453699,-80.626458,20.465454
00940,155859,9.606190,-0.509105,1.467571,0.079012,-0.037370,0.020718,-0.385065,0.134288,-0.253078,-20.516318,-80.643279,20.575270
00941,155959,9.616078,-0.516108,1.478146,0.089011,-0.040386,0.020711,-0.387116,0.138137,-0.249376,-20.577193,-80.661701,20.689119
00942,156059,9.645880,-0.487370,1.565858,0.093524,-0.052622,0.019535,-0.391073,0.133314,-0.251631,-20.647039,-80.686898,20.814673
00943,156159,9.698270,-0.498863,1.593748,0.092290,-0.079051,0.019541,-0.390625,0.130695,-0.249259,-20.750962,-80.726220,20.974030
00944,156259,9.721816,-0.534092,1.542352,0.089386,-0.103650,0.018715,-0.396124,0.130235,-0.248286,-20.885894,-80.778828,21.163097
00945,156359,9.717009,-0.578952,1.534084,0.089445,-0.112971,0.018695,-0.399660,0.128676,-0.245864,-21.034489,-80.836346,21.366009
00946,156459,9.728540,-0.563028,1.518650,0.093255,-0.108676,0.020158,-0.401159,0.126208,-0.245992,-21.182440,-80.891179,21.570445
00947,156559,9.656914,-0.537779,1.462065,0.096728,-0.093671,0.019539,-0.404208,0.123620,-0.243121,-21.308828,-80.938048,21.755031
00948,156659,9.601460,-0.506860,1.441102,0.097827,-0.080925,0.014833,-0.409180,0.123723,-0.243622,-21.403555,-80.979042,21.908171
00949,156759,9.573462,-0.466458,1.449630,0.096493,-0.077232,0.017092,-0.409261,0.120043,-0.239802,-21.502855,-81.017552,22.065151
00950,156859,9.576993,-0.414543,1.487546,0.086917,-0.075608,0.019475,-0.410746,0.120090,-0.240302,-21.614575,-81.054648,22.229135
00951,156959,9.603607,-0.365403,1.503642,0.079046,-0.078813,0.024866,-0.415748,0.118627,-0.239380,-21.754516,-81.092251,22.417106
00952,157059,9.661975,-0.329696,1.512122,0.074660,-0.072872,0.025739,-0.417213,0.119221,-0.240855,-21.893083,-81.126436,22.601128
00953,157159,9.685212,-0.348571,1.435831,0.073627,-0.057109,0.027111,-0.417756,0.115147,-0.239059,-22.016292,-81.151890,22.768994
00954,157259,9.672225,-0.383051,1.357237,0.072214,-0.045562,0.024350,-0.420259,0.118625,-0.237882,-22.115587,-81.171765,22.911831
00955,157359,9.690028,-0.451109,1.282511,0.068471,-0.048863,0.031030,-0.423231,0.117725,-0.238934,-22.245045,-81.191913,23.083013
00956,157459,9.715416,-0.495951,1.276412,0.068111,-0.072004,0.035938,-0.422222,0.119726,-0.239331,-22.424967,-81.223197,23.305038
00957,157559,9.736206,-0.503994,1.304318,0.059803,-0.092806,0.039028,-0.425246,0.120673,-0.237282,-22.651577,-81.264698,23.569463
00958,157659,9.729151,-0.469495,1.408686,0.055697,-0.116731,0.044752,-0.426702,0.121790,-0.239231,-22.937556,-81.317385,23.891536
00959,157759,9.736220,-0.422342,1.414917,0.058887,-0.125759,0.045591,-0.427720,0.119765,-0.238333,-23.241702,-81.374393,24.233788
00960,157859,9.738333,-0.399299,1.392249,0.064554,-0.121808,0.043439,-0.428186,0.122336,-0.239706,-23.533291,-81.429545,24.566575
00961,157959,9.656006,-0.379241,1.346003,0.061812,-0.121840,0.040996,-0.428223,0.122240,-0.237707,-23.821907,-81.485030,24.894720
00962,158059,9.587265,-0.334222,1.381888,0.064162,-0.134984,0.038517,-0.432223,0.118791,-0.237386,-24.125084,-81.547722,25.238900
00963,158159,9.553413,-0.286901,1.413392,0.064113,-0.149068,0.035842,-0.435262,0.116725,-0.234989,-24.446161,-81.618123,25.601089
00964,158259,9.564057,-0.309157,1.388154,0.062654,-0.150040,0.030052,-0.440206,0.116900,-0.236990,-24.754685,-81.690120,25.949683
00965,158359,9.569792,-0.357816,1.337746,0.064071,-0.140475,0.025134,-0.442778,0.112761,-0.233196,-25.034350,-81.758073,26.269875
00966,158459,9.607632,-0.447336,1.289492,0.064502,-0.134424,0.023387,-0.448245,0.109409,-0.234375,-25.302066,-81.823096,26.578189
00967,158559,9.674417,-0.542025,1.271880,0.061905,-0.136298,0.026484,-0.455311,0.104819,-0.230107,-25.590355,-81.888111,26.905732
00968,158659,9.741446,-0.613593,1.232864,0.058787,-0.141954,0.032902,-0.459268,0.104954,-0.231608,-25.918848,-81.954196,27.272021
00969,158759,9.810101,-0.678584,1.206524,0.057195,-0.154995,0.041768,-0.461277,0.100976,-0.231312,-26.310178,-82.024429,27.700781
00970,158859,9.820334,-0.695320,1.173735,0.057437,-0.170006,0.048932,-0.465329,0.099376,-0.227891,-26.763001,-82.100082,28.191688
00971,158959,9.786668,-0.720829,1.159758,0.057869,-0.172340,0.054639,-0.465325,0.096411,-0.228543,-27.250359,-82.174880,28.717615
00972,159059,9.694916,-0.777315,1.127756,0.064099,-0.157597,0.056529,-0.470314,0.097462,-0.227994,-27.722133,-82.241077,29.231322
00973,159159,9.633217,-0.852458,1.061902,0.078141,-0.132572,0.057240,-0.475333,0.096947,-0.226022,-28.146990,-82.293866,29.705722
00974,159259,9.536291,-0.873622,0.992345,0.092173,-0.111451,0.056056,-0.475298,0.096047,-0.228072,-28.522683,-82.335876,30.138567
00975,159359,9.489665,-0.799533,0.962233,0.099329,-0.108987,0.059153,-0.476854,0.097895,-0.224472,-28.905365,-82.375415,30.582554
00976,159459,9.566480,-0.700106,0.985647,0.103780,-0.133300,0.069334,-0.475363,0.100836,-0.223819,-29.379408,-82.423844,31.121235
00977,159559,9.699232,-0.676270,1.073131,0.106075,-0.160091,0.078933,-0.474344,0.098402,-0.225446,-29.952757,-82.482237,31.761348
00978,159659,9.851931,-0.647997,1.140195,0.104339,-0.173953,0.085820,-0.475798,0.100016,-0.227369,-30.593364,-82.544604,32.468203
00979,159759,9.899428,-0.612302,1.178979,0.102840,-0.171575,0.090127,-0.473859,0.101335,-0.224293,-31.256865,-82.603478,33.197181
00980,159859,9.858206,-0.596463,1.157468,0.099267,-0.163676,0.084605,-0.473816,0.104421,-0.226140,-31.894004,-82.659078,33.897418
00981,159959,9.765848,-0.578491,1.163722,0.093834,-0.154449,0.076628,-0.472347,0.105819,-0.224564,-32.491942,-82.711664,34.554910
00982,160059,9.680277,-0.511389,1.111691,0.093273,-0.144837,0.069489,-0.470894,0.103706,-0.222666,-33.048496,-82.760988,35.170283
00983,160159,9.622738,-0.445450,1.070049,0.089359,-0.139346,0.059425,-0.471370,0.105257,-0.223590,-33.563291,-82.810126,35.741239
00984,160259,9.592779,-0.407073,0.997576,0.088084,-0.135637,0.052142,-0.472301,0.105940,-0.227063,-34.049028,-82.859202,36.282113
00985,160359,9.598396,-0.412727,0.932838,0.088725,-0.129707,0.044315,-0.473337,0.104364,-0.225141,-34.496192,-82.907460,36.784426
00986,160459,9.668572,-0.469464,0.891547,0.087711,-0.126710,0.040550,-0.473287,0.105979,-0.227563,-34.928086,-82.955072,37.270716
00987,160559,9.727743,-0.549906,0.889569,0.090875,-0.128171,0.040572,-0.474295,0.104975,-0.227114,-35.368393,-83.002915,37.767258
00988,160659,9.778925,-0.655183,0.945002,0.093970,-0.136476,0.044401,-0.474772,0.101069,-0.228817,-35.850810,-83.052862,38.307957
00989,160759,9.870376,-0.736404,1.036059,0.090712,-0.145075,0.049194,-0.473783,0.102026,-0.228266,-36.384921,-83.104579,38.898788
00990,160859,9.903199,-0.772526,1.110601,0.084251,-0.145477,0.054192,-0.476756,0.100626,-0.229343,-36.951393,-83.154071,39.518422
00991,160959,9.920864,-0.755078,1.122732,0.075017,-0.137248,0.060072,-0.481250,0.099677,-0.228895,-37.530007,-83.197013,40.144897
00992,161059,9.814013,-0.684360,1.054363,0.058429,-0.124113,0.057749,-0.479279,0.098103,-0.227972,-38.077687,-83.234082,40.730594
00993,161159,9.773712,-0.578997,1.035728,0.035279,-0.110852,0.055415,-0.480263,0.099638,-0.228395,-38.595707,-83.265374,41.273027
00994,161259,9.679612,-0.505333,0.887207,0.028061,-0.085623,0.050712,-0.484243,0.097234,-0.229023,-39.027425,-83.286571,41.724370
00995,161359,9.723265,-0.544795,0.899433,0.026788,-0.042963,0.044459,-0.483259,0.095699,-0.228600,-39.306972,-83.290758,42.021745
00996,161459,9.719043,-0.648519,0.778415,0.022939,-0.001106,0.042116,-0.480264,0.094181,-0.229175,-39.450654,-83.277140,42.180098
00997,161559,9.688620,-0.792670,0.686639,0.015096,-0.004330,0.035760,-0.483767,0.095683,-0.228100,-39.584569,-83.267226,42.324093
00998,161659,9.738473,-0.952095,0.842557,0.008311,-0.044319,0.035978,-0.481274,0.096640,-0.228049,-39.847115,-83.274788,42.593694
00999,161759,9.817509,-1.097770,0.927003,0.015116,-0.083863,0.051843,-0.484301,0.096093,-0.226075,-40.289807,-83.293620,43.048599
01000,161859,9.838324,-1.126880,1.003796,0.032366,-0.102939,0.062703,-0.484322,0.094550,-0.225152,-40.826364,-83.316225,43.607943
01001,161959,9.811373,-1.151637,0.998848,0.061990,-0.087354,0.069592,-0.483878,0.095394,-0.222102,-41.324616,-83.328886,44.145783
01002,162059,9.661884,-0.993944,0.915307,0.088672,-0.076215,0.071609,-0.486883,0.091431,-0.221807,-41.780546,-83.335464,44.656393
01003,162159,9.569075,-0.699935,0.890686,0.106062,-0.075712,0.075744,-0.485902,0.088402,-0.221459,-42.240755,-83.339765,45.181337
01004,162259,9.568964,-0.391477,0.851140,0.113903,-0.091133,0.078310,-0.490984,0.088715,-0.215937,-42.757578,-83.349087,45.767797
01005,162359,9.635625,-0.243151,0.798331,0.112142,-0.118147,0.073673,-0.492514,0.084680,-0.214642,-43.351405,-83.370901,46.430751
01006,162459,9.750025,-0.222343,0.780733,0.106767,-0.136146,0.059337,-0.496577,0.082558,-0.210746,-43.962981,-83.405073,47.108439
01007,162559,9.879039,-0.298226,0.741397,0.098047,-0.140775,0.045408,-0.499616,0.080492,-0.208349,-44.552779,-83.445924,47.759127
01008,162659,9.944227,-0.489278,0.732514,0.090450,-0.136143,0.033588,-0.501090,0.076104,-0.210078,-45.096235,-83.488949,48.358735
01009,162759,9.924589,-0.712454,0.759556,0.079031,-0.130427,0.028290,-0.504108,0.075083,-0.208630,-45.614425,-83.531204,48.926277
01010,162859,9.898601,-0.883691,0.818151,0.062698,-0.116642,0.022523,-0.506124,0.072575,-0.207759,-46.078277,-83.569768,49.429670
01011,162959,9.830730,-1.001959,0.886832,0.041694,-0.094138,0.025580,-0.508105,0.073627,-0.208208,-46.487332,-83.597703,49.865776
01012,163059,9.700229,-1.063677,0.850783,0.018133,-0.086085,0.036182,-0.510625,0.073096,-0.206735,-46.920659,-83.617669,50.312698
01013,163159,9.598997,-0.988095,0.831695,-0.006672,-0.082864,0.048947,-0.510611,0.070653,-0.207861,-47.403228,-83.630600,50.794852
01014,163259,9.584687,-0.895318,0.756457,-0.021524,-0.080029,0.064384,-0.513599,0.070701,-0.207862,-47.938659,-83.635411,51.321623
01015,163359,9.621555,-0.772131,0.686287,-0.034434,-0.077919,0.083525,-0.517079,0.069285,-0.208439,-48.539296,-83.630658,51.906561
01016,163459,9.725531,-0.690826,0.639325,-0.039689,-0.075642,0.097806,-0.515555,0.070330,-0.209888,-49.181043,-83.618190,52.529845
01017,163559,9.867282,-0.626390,0.626232,-0.031397,-0.070355,0.102971,-0.522037,0.066945,-0.210067,-49.811871,-83.600753,53.146941
01018,163659,9.986236,-0.639456,0.678035,-0.027677,-0.067298,0.090016,-0.522994,0.068054,-0.212016,-50.382971,-83.587180,53.706097
01019,163759,10.043859,-0.745980,0.697317,-0.022273,-0.055390,0.069971,-0.525434,0.065248,-0.215168,-50.837160,-83.577604,54.150735
01020,163859,10.033650,-0.831653,0.814311,-0.020013,-0.050054,0.054708,-0.525921,0.066775,-0.215592,-51.218902,-83.572536,54.523777
01021,163959,10.018022,-0.877737,0.861197,-0.021724,-0.027747,0.046177,-0.528912,0.065328,-0.215669,-51.485256,-83.563056,54.779720
01022,164059,9.953602,-0.876650,0.845606,-0.023759,0.004732,0.042592,-0.528383,0.061929,-0.217846,-51.611563,-83.543507,54.893560
01023,164159,9.828237,-0.827150,0.758082,-0.033946,0.015119,0.045873,-0.528858,0.064476,-0.218718,-51.712056,-83.518763,54.975551
01024,164259,9.718464,-0.756864,0.702116,-0.041812,0.005895,0.050298,-0.532345,0.064531,-0.218719,-51.866493,-83.495279,55.107304
01025,164359,9.672689,-0.703697,0.713527,-0.048186,-0.006116,0.048787,-0.534757,0.066756,-0.222617,-52.066248,-83.476677,55.281001
01026,164459,9.651916,-0.692404,0.696171,-0.047848,-0.010261,0.043376,-0.534763,0.063767,-0.222770,-52.264503,-83.461920,55.453389
01027,164559,9.628820,-0.758054,0.703960,-0.047274,-0.012268,0.038183,-0.538733,0.066844,-0.223118,-52.453692,-83.450159,55.616989
01028,164659,9.638922,-0.833130,0.698966,-0.045154,-0.012292,0.032218,-0.537739,0.065333,-0.223194,-52.623074,-83.441060,55.761877
01029,164759,9.692873,-0.943434,0.735789,-0.042938,-0.016864,0.027968,-0.538615,0.065662,-0.229692,-52.796089,-83.435426,55.911702
01030,164859,9.794572,-0.997529,0.778753,-0.038306,-0.016412,0.031468,-0.539151,0.065075,-0.227718,-52.974871,-83.427971,56.070006
01031,164959,9.800842,-1.011299,0.785199,-0.041282,-0.012347,0.033882,-0.539129,0.067116,-0.228616,-53.146020,-83.417940,56.218911
01032,165059,9.778766,-0.989758,0.778104,-0.044610,-0.013886,0.038982,-0.542576,0.068763,-0.230541,-53.339802,-83.406029,56.388684
01033,165159,9.775574,-0.947267,0.771617,-0.045123,-0.011262,0.041813,-0.540065,0.069270,-0.231514,-53.531092,-83.391845,56.555657
01034,165259,9.777042,-0.923022,0.753455,-0.035830,-0.002505,0.048002,-0.537056,0.070267,-0.232462,-53.699536,-83.371762,56.704996
01035,165359,9.810397,-0.906662,0.723368,-0.022393,0.005955,0.051162,-0.541564,0.072259,-0.230862,-53.834915,-83.347305,56.828805
01036,165459,9.792708,-0.893117,0.738829,-0.009585,0.009269,0.051514,-0.538020,0.072846,-0.233835,-53.949890,-83.321531,56.939467
01037,165559,9.763131,-0.897668,0.729884,0.001521,0.010877,0.047564,-0.536970,0.071978,-0.236884,-54.039978,-83.297021,57.031483
01038,165659,9.768039,-0.885825,0.694617,0.007380,0.007442,0.043943,-0.534985,0.072919,-0.236332,-54.129258,-83.275329,57.126072
01039,165759,9.815271,-0.833940,0.667741,0.004216,0.003333,0.042781,-0.536964,0.074968,-0.236731,-54.232605,-83.255541,57.233004
01040,165859,9.842091,-0.796757,0.633900,-0.012278,-0.003386,0.044948,-0.536417,0.076575,-0.239154,-54.377242,-83.236974,57.372002
01041,165959,9.751527,-0.734222,0.654797,-0.025530,-0.005461,0.045838,-0.536378,0.077668,-0.241102,-54.539261,-83.218651,57.520865
01042,166059,9.607987,-0.710454,0.686164,-0.041987,-0.013615,0.040474,-0.537814,0.079330,-0.244026,-54.726873,-83.205497,57.686013
01043,166159,9.535133,-0.760674,0.706609,-0.046292,-0.027025,0.036435,-0.536272,0.079926,-0.246499,-54.957747,-83.198593,57.892249
01044,166259,9.588029,-0.834495,0.753830,-0.045142,-0.029944,0.036728,-0.542173,0.081708,-0.250423,-55.199743,-83.192409,58.110354
01045,166359,9.637239,-0.851406,0.736952,-0.034292,-0.023816,0.032773,-0.543115,0.080374,-0.253498,-55.400086,-83.185989,58.292776
01046,166459,9.664477,-0.842043,0.675619,-0.029405,-0.020249,0.025985,-0.542518,0.084094,-0.258318,-55.564754,-83.181550,58.442089
01047,166559,9.713357,-0.892852,0.636865,-0.026183,-0.023838,0.015925,-0.545501,0.082172,-0.258920,-55.714434,-83.182984,58.578168
01048,166659,9.743647,-0.933531,0.668448,-0.023742,-0.026602,0.007969,-0.544478,0.081731,-0.260445,-55.852329,-83.189037,58.703785
01049,166759,9.810128,-0.972094,0.727279,-0.017242,-0.034727,0.003499,-0.545914,0.082896,-0.263394,-56.007056,-83.199775,58.850103
01050,166859,9.873674,-1.036974,0.772770,-0.015911,-0.035597,-0.001688,-0.543903,0.082912,-0.264392,-56.151043,-83.213200,58.986368
01051,166959,9.861783,-1.073522,0.768115,-0.016019,-0.027235,-0.004499,-0.546907,0.084904,-0.263292,-56.254566,-83.225250,59.081818
01052,167059,9.782951,-1.101433,0.706879,-0.019736,-0.011228,-0.005598,-0.545883,0.084961,-0.264791,-56.293333,-83.232703,59.109909
01053,167159,9.674645,-1.088325,0.613160,-0.017413,-0.006269,-0.006444,-0.546328,0.083618,-0.267866,-56.308712,-83.238971,59.115787
01054,167259,9.650867,-1.038284,0.581804,-0.016388,-0.009299,-0.002690,-0.546327,0.084116,-0.267841,-56.345873,-83.244405,59.144189
01055,167359,9.695903,-0.989754,0.587356,-0.019532,-0.020873,-0.000299,-0.545868,0.083016,-0.265893,-56.438032,-83.252363,59.226156
01056,167459,9.768156,-0.957721,0.602825,-0.014932,-0.032912,0.006269,-0.545365,0.085997,-0.265740,-56.594056,-83.260966,59.375085
01057,167559,9.798286,-0.900527,0.659257,-0.003115,-0.038040,0.013817,-0.546851,0.085049,-0.266291,-56.784576,-83.267518,59.565565
01058,167659,9.839180,-0.861729,0.663587,0.001811,-0.038268,0.012264,-0.547351,0.084060,-0.266342,-56.969420,-83.274817,59.753170
01059,167759,9.802128,-0.904350,0.682026,0.002845,-0.035285,0.007943,-0.548347,0.084574,-0.266317,-57.130444,-83.283197,59.917385
01060,167859,9.710143,-0.910854,0.789356,0.000329,-0.037968,0.000625,-0.549361,0.084542,-0.265317,-57.284948,-83.295876,60.073580
01061,167959,9.656622,-0.907595,0.823981,0.002045,-0.043144,0.001928,-0.547899,0.082453,-0.263919,-57.463668,-83.309463,60.255145
01062,168059,9.662954,-0.811027,0.749225,0.014761,-0.042186,0.004190,-0.546911,0.082911,-0.263394,-57.637673,-83.321599,60.439295
01063,168159,9.607038,-0.724538,0.634216,0.031952,-0.027758,0.005366,-0.549451,0.081336,-0.260972,-57.745648,-83.328706,60.566879
01064,168259,9.559051,-0.683742,0.488215,0.041365,-0.018935,0.003719,-0.548384,0.084478,-0.264318,-57.807545,-83.333914,60.653501
01065,168359,9.573828,-0.704217,0.487352,0.044569,-0.015105,0.004145,-0.548881,0.079528,-0.265072,-57.852919,-83.337758,60.725334
01066,168459,9.628299,-0.685937,0.583339,0.039864,-0.017324,0.006882,-0.547895,0.084446,-0.263818,-57.917355,-83.340958,60.813646
01067,168559,9.704347,-0.691328,0.682663,0.032675,-0.033790,0.003604,-0.551388,0.081013,-0.263997,-58.045952,-83.350747,60.962408
01068,168659,9.864834,-0.726268,0.844253,0.025516,-0.044885,0.005510,-0.548902,0.083441,-0.263369,-58.230224,-83.362923,61.163091
01069,168759,9.996141,-0.732875,0.892025,0.020648,-0.048507,0.006736,-0.549871,0.083031,-0.264894,-58.436145,-83.375515,61.382761
01070,168859,10.024876,-0.716503,0.875954,0.019252,-0.040769,0.004923,-0.550418,0.081922,-0.262446,-58.606118,-83.386599,61.565435
01071,168959,9.913236,-0.679877,0.819655,0.014403,-0.029688,-0.001032,-0.548884,0.082991,-0.264394,-58.717062,-83.397253,61.685886
01072,169059,9.789744,-0.669781,0.750659,0.012232,-0.020369,-0.006658,-0.552341,0.084613,-0.265818,-58.775473,-83.407883,61.752204
01073,169159,9.713837,-0.638532,0.692246,0.014355,-0.018048,-0.011145,-0.555386,0.084018,-0.262846,-58.811313,-83.420031,61.797025
01074,169259,9.694463,-0.614322,0.700791,0.022230,-0.016874,-0.017443,-0.556324,0.085673,-0.265769,-58.821396,-83.434932,61.820463
01075,169359,9.711343,-0.643955,0.651579,0.026830,-0.009051,-0.022290,-0.555813,0.082724,-0.266921,-58.782869,-83.449904,61.797626
01076,169459,9.771218,-0.641464,0.658101,0.026576,-0.001628,-0.021174,-0.556776,0.085801,-0.268268,-58.715381,-83.462136,61.745494
01077,169559,9.808371,-0.661610,0.673220,0.014937,0.001244,-0.016635,-0.555320,0.084685,-0.266319,-58.653752,-83.471298,61.692550
01078,169659,9.846119,-0.624464,0.706172,-0.006769,-0.004414,-0.007797,-0.560721,0.086957,-0.270217,-58.651517,-83.477834,61.686874
01079,169759,9.845838,-0.561415,0.798909,-0.029864,-0.010931,-0.002576,-0.560254,0.085382,-0.268794,-58.703809,-83.483771,61.722765
01080,169859,9.781060,-0.520281,0.873478,-0.049889,-0.017793,0.000977,-0.561673,0.086097,-0.272768,-58.806058,-83.490017,61.797395
01081,169959,9.761824,-0.524753,0.888775,-0.064948,-0.020594,-0.002254,-0.562601,0.088274,-0.276165,-58.920456,-83.498673,61.875572
01082,170059,9.759939,-0.552298,0.881522,-0.065045,-0.021250,-0.005116,-0.563042,0.088925,-0.279138,-59.030272,-83.508923,61.949084
01083,170159,9.764765,-0.543845,0.859546,-0.058719,-0.015171,-0.008209,-0.566013,0.088522,-0.280164,-59.102134,-83.518901,61.988050
01084,170259,9.781154,-0.558083,0.856012,-0.051107,0.002679,-0.019732,-0.565035,0.088458,-0.279165,-59.062248,-83.529299,61.918943
01085,170359,9.794300,-0.552494,0.793015,-0.043330,0.017163,-0.026374,-0.564495,0.091038,-0.281037,-58.937364,-83.538688,61.768783
01086,170459,9.798497,-0.578944,0.779164,-0.051313,0.020191,-0.029185,-0.564943,0.093657,-0.283409,-58.795927,-83.548532,61.597370
01087,170559,9.802159,-0.579735,0.796804,-0.057770,0.020138,-0.028368,-0.562938,0.095145,-0.283832,-58.659865,-83.557958,61.427648
01088,170659,9.816451,-0.638112,0.805228,-0.060459,0.019942,-0.027366,-0.561389,0.099725,-0.286102,-58.528187,-83.566915,61.260795
01089,170759,9.854562,-0.687070,0.842868,-0.053199,0.019054,-0.027137,-0.563826,0.098913,-0.289152,-58.396168,-83.575985,61.097792
01090,170859,9.892692,-0.775236,0.898448,-0.040458,0.018669,-0.026807,-0.561370,0.100271,-0.287076,-58.258764,-83.584963,60.936721
01091,170959,9.869394,-0.913210,0.926583,-0.024453,0.016978,-0.027142,-0.563320,0.102890,-0.288949,-58.118007,-83.594554,60.781510
01092,171059,9.762440,-1.093789,0.884060,-0.004786,0.002453,-0.024442,-0.560369,0.108203,-0.286169,-58.035739,-83.607171,60.696497
01093,171159,9.556620,-1.237371,0.828928,0.017582,-0.018729,-0.018999,-0.559826,0.107319,-0.288719,-58.047177,-83.623522,60.718673
01094,171259,9.357165,-1.266778,0.810686,0.034498,-0.038612,-0.013562,-0.559793,0.109883,-0.290091,-58.150599,-83.643208,60.843153
01095,171359,9.261071,-1.284233,0.799218,0.052999,-0.055421,-0.008996,-0.559274,0.111418,-0.291015,-58.330337,-83.665662,61.055078
01096,171459,9.185982,-1.289989,0.700786,0.077526,-0.063929,-0.006748,-0.559748,0.114463,-0.291862,-58.541166,-83.689453,61.312409
01097,171559,9.191871,-1.303192,0.604778,0.094344,-0.068123,-0.006699,-0.557763,0.115404,-0.291311,-58.763065,-83.714327,61.590558
01098,171659,9.214055,-1.304809,0.485920,0.100753,-0.070312,-0.005574,-0.558244,0.114962,-0.292336,-58.996330,-83.739147,61.883815
01099,171759,9.281576,-1.383847,0.451738,0.098364,-0.076183,-0.003543,-0.560714,0.116046,-0.293286,-59.265249,-83.764519,62.211544
01100,171859,9.388761,-1.471448,0.516912,0.092992,-0.074325,0.000576,-0.563184,0.117130,-0.294235,-59.542504,-83.787106,62.544541
01101,171959,9.546378,-1.603501,0.679819,0.090309,-0.077901,0.006808,-0.561197,0.119067,-0.293633,-59.856582,-83.807400,62.913013
01102,172059,9.754690,-1.724319,0.873982,0.100112,-0.084196,0.012742,-0.560667,0.116665,-0.295759,-60.211936,-83.826246,63.328635
01103,172159,9.954008,-1.836869,1.016496,0.124074,-0.096707,0.017072,-0.562665,0.118665,-0.295158,-60.625154,-83.846089,63.816247
01104,172259,10.053464,-1.885421,1.073145,0.155974,-0.111685,0.021805,-0.562185,0.118609,-0.294158,-61.105082,-83.867245,64.389316
01105,172359,10.101940,-1.882161,1.109163,0.191943,-0.121956,0.025634,-0.559690,0.121061,-0.294031,-61.626044,-83.888672,65.024357
01106,172459,10.064075,-1.815957,1.104100,0.220206,-0.120617,0.026470,-0.561180,0.123575,-0.293904,-62.130474,-83.908625,65.659031
01107,172559,10.015301,-1.667501,1.089674,0.234062,-0.109567,0.024837,-0.560694,0.122049,-0.293481,-62.573624,-83.925838,66.240040
01108,172659,9.982474,-1.468436,1.073368,0.232469,-0.092791,0.027985,-0.557727,0.125417,-0.291802,-62.947372,-83.936551,66.750324
01109,172759,9.981515,-1.241750,1.063705,0.225761,-0.085278,0.031513,-0.560181,0.125054,-0.293828,-63.298505,-83.943134,67.233995
01110,172859,10.053284,-1.004752,1.113972,0.220760,-0.083299,0.032981,-0.561656,0.126123,-0.294777,-63.646931,-83.948122,67.712062
01111,172959,10.150668,-0.813286,1.178327,0.221624,-0.081933,0.033257,-0.562199,0.126508,-0.292253,-63.989035,-83.952308,68.184271
01112,173059,10.164089,-0.752034,1.253800,0.232571,-0.086796,0.032297,-0.561648,0.125150,-0.295327,-64.346330,-83.957891,68.678066
01113,173159,10.074214,-0.787620,1.312734,0.250063,-0.108760,0.029316,-0.561576,0.128807,-0.298648,-64.794631,-83.970041,69.273453
01114,173259,9.867848,-0.884527,1.336307,0.273072,-0.138034,0.024161,-0.561098,0.127754,-0.297699,-65.364259,-83.991358,70.004085
01115,173359,9.623988,-1.021538,1.346953,0.288206,-0.157932,0.020595,-0.560146,0.129112,-0.295124,-66.020650,-84.018376,70.830649
01116,173459,9.429329,-1.157276,1.347485,0.292812,-0.156381,0.025113,-0.561572,0.131298,-0.298522,-66.682404,-84.041625,71.665228
01117,173559,9.249409,-1.270074,1.271379,0.284710,-0.141578,0.030996,-0.560066,0.132294,-0.298970,-67.291238,-84.057441,72.441907
01118,173659,9.102095,-1.333458,1.164116,0.270903,-0.124133,0.039713,-0.558080,0.134232,-0.298368,-67.840065,-84.063957,73.150288
01119,173759,9.069024,-1.406221,1.091312,0.255598,-0.118520,0.049979,-0.557098,0.136161,-0.297266,-68.390625,-84.063056,73.851597
01120,173859,9.161717,-1.364512,1.085899,0.253875,-0.106926,0.066986,-0.558542,0.138796,-0.299639,-68.915525,-84.049928,74.526126
01121,173959,9.086662,-1.305932,1.024593,0.254645,-0.121686,0.074836,-0.555032,0.136322,-0.301264,-69.527834,-84.034856,75.289005
01122,174059,9.278197,-1.279034,1.041583,0.262532,-0.131780,0.088052,-0.556045,0.137286,-0.300214,-70.208052,-84.013732,76.124736
01123,174159,9.335626,-1.166444,1.133537,0.277303,-0.146323,0.093644,-0.559018,0.140845,-0.300537,-70.958662,-83.991236,77.039795
01124,174259,9.371833,-1.091432,1.324483,0.273589,-0.186843,0.082810,-0.557055,0.139745,-0.299088,-71.895117,-83.980584,78.139626
01125,174359,9.552492,-1.086949,1.376219,0.256355,-0.216061,0.075017,-0.555528,0.142284,-0.300459,-72.976067,-83.977184,79.374846
01126,174459,9.698215,-1.108156,1.336603,0.246689,-0.211353,0.067314,-0.557546,0.143738,-0.298885,-74.024081,-83.974816,80.571394
01127,174559,9.696753,-1.124068,1.144564,0.239763,-0.198042,0.060312,-0.556530,0.144269,-0.299859,-74.994654,-83.972042,81.686093
01128,174659,9.620385,-1.074215,1.070266,0.240694,-0.194668,0.044314,-0.560025,0.145297,-0.299309,-75.924145,-83.975698,82.760024
01129,174759,9.568433,-1.075173,1.176370,0.249994,-0.196279,0.026413,-0.556087,0.145113,-0.296809,-76.835115,-83.987711,83.820682
01130,174859,9.507791,-1.073059,1.327633,0.257928,-0.202814,0.010140,-0.558069,0.145667,-0.297284,-77.760577,-84.007839,84.900460
01131,174959,9.443407,-1.056379,1.452467,0.263166,-0.219799,-0.003157,-0.559032,0.148744,-0.298631,-78.765784,-84.035480,86.063397
01132,175059,9.483339,-1.099262,1.542211,0.266780,-0.231751,-0.014328,-0.560519,0.147297,-0.299208,-79.831702,-84.068466,87.289404
01133,175159,9.513965,-1.119002,1.557702,0.272985,-0.228913,-0.019364,-0.559072,0.147153,-0.296708,-80.885505,-84.101645,88.506741
01134,175259,9.512081,-1.188862,1.502710,0.275308,-0.212728,-0.025152,-0.561081,0.148133,-0.295658,-81.855556,-84.134465,89.641158
01135,175359,9.443955,-1.185753,1.402473,0.263985,-0.190276,-0.033204,-0.562109,0.146084,-0.294261,-82.712157,-84.168247,90.654949
01136,175459,9.370623,-1.226470,1.326935,0.243436,-0.171523,-0.040790,-0.564623,0.143086,-0.293414,-83.480446,-84.203557,91.568084
01137,175559,9.363320,-1.227267,1.268433,0.215256,-0.159076,-0.046081,-0.563100,0.143633,-0.294888,-84.200928,-84.239886,92.416887
01138,175659,9.389425,-1.214926,1.293067,0.192098,-0.150661,-0.049163,-0.565145,0.145513,-0.291788,-84.894234,-84.276432,93.224994
01139,175759,9.421495,-1.205644,1.273270,0.183546,-0.147776,-0.050590,-0.565138,0.144042,-0.292364,-85.583959,-84.312653,94.024533
01140,175859,9.429053,-1.214564,1.277890,0.187905,-0.153689,-0.051201,-0.566646,0.141551,-0.291992,-86.313682,-84.348452,94.866734
01141,175959,9.463760,-1.209422,1.269654,0.206572,-0.166098,-0.051141,-0.568207,0.140908,-0.288519,-87.113902,-84.383489,95.790476
01142,176059,9.463172,-1.253432,1.261710,0.230394,-0.171340,-0.056724,-0.570176,0.138520,-0.290146,-87.939747,-84.420537,96.753630
01143,176159,9.486957,-1.225039,1.275573,0.255200,-0.171319,-0.063408,-0.569174,0.136536,-0.290747,-88.761246,-84.460039,97.726640
01144,176259,9.496967,-1.223108,1.304328,0.274153,-0.170387,-0.078404,-0.572715,0.136945,-0.287724,-89.577491,-84.506755,98.705219
01145,176359,9.501972,-1.203086,1.391301,0.271880,-0.156681,-0.096669,-0.575214,0.137956,-0.287174,-90.327618,-84.562625,99.615990
01146,176459,9.566201,-1.132060,1.508478,0.271642,-0.145372,-0.107834,-0.573689,0.134043,-0.289376,-91.026343,-84.623859,100.474912
01147,176559,9.579212,-1.060800,1.497300,0.266476,-0.120236,-0.117233,-0.572712,0.133481,-0.288402,-91.591649,-84.689907,101.196777
01148,176659,9.601610,-1.012880,1.432942,0.259826,-0.099717,-0.123930,-0.572218,0.131480,-0.288503,-92.049363,-84.759563,101.806691
01149,176759,9.580061,-1.010347,1.420151,0.249593,-0.096667,-0.128059,-0.575211,0.129036,-0.288631,-92.508070,-84.831203,102.411652
01150,176859,9.588206,-0.950531,1.489358,0.251571,-0.097104,-0.135351,-0.574751,0.128434,-0.286657,-92.984629,-84.906560,103.035610
01151,176959,9.647690,-0.935115,1.610411,0.255176,-0.088523,-0.141938,-0.575273,0.125404,-0.285810,-93.420980,-84.985523,103.621207
01152,177059,9.700111,-0.955725,1.729309,0.258394,-0.076530,-0.152867,-0.576249,0.126465,-0.286759,-93.795822,-85.070808,104.146845
01153,177159,9.762687,-1.007154,1.858952,0.257084,-0.063179,-0.161738,-0.576765,0.126923,-0.285734,-94.099973,-85.161423,104.600718
01154,177259,9.866582,-1.053874,1.945244,0.248980,-0.051444,-0.169385,-0.577785,0.123901,-0.284887,-94.344874,-85.256719,104.990417
01155,177359,9.897708,-1.065435,1.996531,0.238536,-0.034123,-0.174060,-0.577263,0.121474,-0.286514,-94.487941,-85.355338,105.271886
01156,177459,9.858576,-1.054990,1.966536,0.225980,-0.015535,-0.177203,-0.575785,0.122897,-0.285437,-94.513962,-85.456553,105.428679
01157,177559,9.825937,-1.042705,1.974990,0.221851,0.003506,-0.185610,-0.576765,0.121466,-0.286513,-94.409519,-85.563425,105.452215
01158,177659,9.791102,-0.986416,1.988287,0.224562,0.030669,-0.197200,-0.576716,0.117625,-0.289715,-94.100958,-85.678080,105.272591
01159,177759,9.770633,-0.992503,2.048322,0.237955,0.056444,-0.209775,-0.576710,0.116154,-0.290292,-93.575201,-85.800809,104.882894
01160,177859,9.802910,-1.005356,2.114006,0.248152,0.091834,-0.222047,-0.577193,0.113719,-0.291418,-92.734551,-85.931316,104.183405
01161,177959,10.076079,-1.080577,2.101588,0.247605,0.135640,-0.234120,-0.577192,0.114716,-0.291368,-91.479548,-86.068704,103.068352
01162,178059,10.382146,-1.137835,1.894395,0.233983,0.166201,-0.236009,-0.576693,0.109750,-0.292121,-89.881396,-86.205386,101.601727
01163,178159,10.625365,-1.293953,1.584018,0.207133,0.174992,-0.224130,-0.576666,0.109324,-0.293646,-88.108850,-86.332170,99.945137
01164,178259,10.853614,-1.443152,1.339489,0.185251,0.177755,-0.205208,-0.575109,0.107974,-0.297221,-86.212761,-86.444475,98.152409
01165,178359,11.127930,-1.512973,1.077939,0.195541,0.181876,-0.188191,-0.576549,0.107146,-0.300271,-84.169037,-86.542856,96.217872
01166,178459,11.469133,-1.460518,0.746017,0.228322,0.182804,-0.178207,-0.575520,0.105233,-0.302371,-81.996623,-86.631020,94.173411
01167,178559,11.925889,-1.383052,0.321183,0.263419,0.157490,-0.170337,-0.577998,0.101833,-0.303549,-79.956455,-86.712428,92.281727
01168,178659,12.418160,-1.380756,-0.046598,0.286922,0.104759,-0.157259,-0.580013,0.099326,-0.302677,-78.360754,-86.788597,90.848848
01169,178759,12.813490,-1.358756,-0.348111,0.302419,0.018744,-0.149650,-0.580480,0.095942,-0.304855,-77.580284,-86.869045,90.241439
01170,178859,12.953663,-1.164988,-0.478074,0.303844,-0.056694,-0.149277,-0.579987,0.093443,-0.304981,-77.556981,-86.958345,90.393147
01171,178959,12.823382,-0.846501,-0.512816,0.303978,-0.101116,-0.160228,-0.582965,0.094013,-0.305457,-77.996667,-87.059156,91.008527
01172,179059,12.476902,-0.517122,-0.470993,0.288068,-0.124885,-0.172175,-0.584958,0.088588,-0.306237,-78.726840,-87.169126,91.905564
01173,179159,11.982528,-0.274125,-0.255365,0.244297,-0.128720,-0.184929,-0.586487,0.090010,-0.304162,-79.566917,-87.286107,92.887426
01174,179259,11.415028,-0.031788,-0.025655,0.168643,-0.124134,-0.188066,-0.587491,0.085542,-0.304391,-80.469956,-87.403722,93.888820
01175,179359,10.746623,0.160657,0.079757,0.075511,-0.117710,-0.178969,-0.590005,0.083042,-0.303519,-81.451737,-87.514892,94.915521
01176,179459,9.989832,0.273292,0.014803,-0.015293,-0.114895,-0.165030,-0.591002,0.082560,-0.303544,-82.567235,-87.617139,96.023894
01177,179559,9.142373,0.380347,-0.190540,-0.108248,-0.115716,-0.153038,-0.594017,0.083531,-0.301995,-83.867511,-87.711665,97.263806
01178,179659,8.372878,0.541075,-0.423178,-0.197586,-0.125628,-0.150720,-0.593987,0.079144,-0.304223,-85.480606,-87.804149,98.765463
01179,179759,7.840623,0.604290,-0.681990,-0.284434,-0.124355,-0.146861,-0.590552,0.081435,-0.301096,-87.265306,-87.892664,100.388949
01180,179859,7.612528,0.571141,-0.973107,-0.345274,-0.106853,-0.138321,-0.594541,0.079007,-0.301224,-88.954682,-87.974122,101.882069
01181,179959,7.582305,0.524067,-1.262675,-0.384598,-0.089170,-0.121666,-0.595541,0.081988,-0.300572,-90.502483,-88.044479,103.210902
01182,180059,7.836361,0.488700,-1.553780,-0.391228,-0.084707,-0.102035,-0.597507,0.081594,-0.302098,-92.075619,-88.102402,104.561224
01183,180159,8.239829,0.418319,-1.676029,-0.358883,-0.083133,-0.081765,-0.599498,0.082622,-0.302047,-93.675236,-88.147521,105.956533
01184,180259,8.730954,0.331818,-1.675207,-0.314884,-0.096777,-0.062387,-0.595523,0.082036,-0.301572,-95.540938,-88.179566,107.643246
01185,180359,9.254607,0.218069,-1.569581,-0.263115,-0.111354,-0.045883,-0.596549,0.080983,-0.300124,-97.668088,-88.199363,109.621183
01186,180459,9.826944,0.065197,-1.235115,-0.217833,-0.119786,-0.030358,-0.599489,0.082148,-0.302573,-99.919740,-88.207229,111.749620
01187,180559,10.259967,-0.099276,-0.972170,-0.194755,-0.130900,-0.025344,-0.599006,0.084085,-0.301471,-102.356850,-88.208298,114.076824
01188,180659,10.491589,-0.165913,-0.730119,-0.174536,-0.138985,-0.022075,-0.596550,0.085942,-0.299370,-104.910943,-88.203271,116.532658
01189,180759,10.682712,-0.140120,-0.502262,-0.165236,-0.125428,-0.017381,-0.597524,0.087500,-0.300294,-107.181937,-88.194567,118.710590
01190,180859,10.523860,-0.042725,-0.430039,-0.173281,-0.103665,-0.021625,-0.599106,0.085315,-0.295897,-109.087742,-88.189566,120.518547
01191,180959,10.188210,0.123783,-0.325447,-0.187722,-0.096435,-0.028623,-0.597060,0.089389,-0.298193,-110.913926,-88.187907,122.238565
01192,181059,9.867283,0.325825,-0.062705,-0.208730,-0.102560,-0.034663,-0.599080,0.089847,-0.296669,-112.892449,-88.186379,124.098956
01193,181159,9.610906,0.516048,0.128327,-0.231251,-0.111292,-0.036707,-0.598128,0.090707,-0.294118,-115.037584,-88.181823,126.113136
01194,181259,9.471443,0.669265,0.271968,-0.250095,-0.114108,-0.037223,-0.598587,0.091808,-0.296067,-117.230121,-88.174474,128.163945
01195,181359,9.417116,0.735605,0.346419,-0.268419,-0.104431,-0.036792,-0.597113,0.096196,-0.294338,-119.258796,-88.167206,130.040313
01196,181459,9.269176,0.696971,0.362713,-0.273959,-0.095022,-0.031539,-0.596663,0.095071,-0.291890,-121.081429,-88.158105,131.707365
01197,181559,9.131268,0.587637,0.395748,-0.273150,-0.078603,-0.027833,-0.595674,0.096028,-0.291339,-122.604473,-88.150667,133.075144
01198,181659,9.013472,0.427088,0.355376,-0.265933,-0.058056,-0.024341,-0.596619,0.099153,-0.293686,-123.774742,-88.147015,134.094106
01199,181759,8.941651,0.220421,0.287132,-0.261613,-0.040740,-0.020621,-0.597628,0.102110,-0.292534,-124.648479,-88.146622,134.818858
01200,181859,8.894718,0.009588,0.269306,-0.255864,-0.036450,-0.018177,-0.599120,0.103628,-0.292459,-125.431070,-88.146171,135.455713
01201,181959,8.863340,-0.116922,0.290499,-0.244764,-0.036350,-0.018239,-0.594684,0.102939,-0.289984,-126.205438,-88.145511,136.090704
01202,182059,8.863675,-0.198880,0.317279,-0.231306,-0.034663,-0.016166,-0.595641,0.104047,-0.291932,-126.924848,-88.144209,136.678424
01203,182159,8.832869,-0.247856,0.316067,-0.222415,-0.035965,-0.009294,-0.594162,0.105968,-0.290831,-127.581612,-88.139096,137.208564
01204,182259,8.788492,-0.223488,0.277667,-0.220995,-0.037546,0.002758,-0.596112,0.109086,-0.292678,-128.124743,-88.127797,137.625827
01205,182359,8.689370,-0.143474,0.232598,-0.214858,-0.046076,0.014371,-0.597121,0.107084,-0.292280,-128.648043,-88.108128,138.026771
01206,182459,8.622670,-0.039406,0.206006,-0.202733,-0.068221,0.029141,-0.594637,0.108516,-0.291703,-129.288699,-88.073777,138.552095
01207,182559,8.584880,0.038736,0.186585,-0.179271,-0.092502,0.036755,-0.595647,0.111473,-0.290552,-130.124352,-88.026975,139.285995
01208,182659,8.716673,0.065366,0.282469,-0.143606,-0.107584,0.041985,-0.597095,0.111617,-0.293051,-131.032288,-87.971926,140.112693
01209,182759,8.928450,0.100916,0.427189,-0.102135,-0.108988,0.047168,-0.597107,0.115056,-0.291874,-131.832464,-87.913730,140.855370
01210,182859,9.140827,0.105508,0.601082,-0.070024,-0.084842,0.048549,-0.594614,0.116511,-0.291797,-132.284320,-87.863976,141.267930
01211,182959,9.324341,0.128142,0.697763,-0.045975,-0.050226,0.049133,-0.595597,0.118544,-0.292195,-132.311919,-87.827316,141.269738
01212,183059,9.361128,0.211954,0.737273,-0.034836,-0.024874,0.051640,-0.595599,0.117548,-0.292246,-132.027430,-87.799408,140.965622
01213,183159,9.334221,0.318454,0.796131,-0.025652,-0.016257,0.054177,-0.596110,0.120995,-0.291069,-131.624871,-87.773713,140.548614
01214,183259,9.381809,0.448866,0.956055,-0.011067,-0.004292,0.060480,-0.592627,0.118448,-0.291194,-131.030956,-87.749785,139.948465
01215,183359,9.521115,0.563425,1.053755,0.004850,0.037688,0.070144,-0.593600,0.121004,-0.292067,-129.885821,-87.737001,138.805794
01216,183459,9.702091,0.565342,0.997638,0.016689,0.096794,0.085062,-0.595560,0.124097,-0.293415,-127.942639,-87.737732,136.871245
01217,183559,9.745082,0.534273,0.816534,0.014342,0.156593,0.099888,-0.593537,0.125632,-0.294837,-125.169166,-87.748995,134.104433
01218,183659,9.648359,0.412567,0.656582,-0.002247,0.189814,0.110512,-0.593514,0.122715,-0.296489,-121.889274,-87.760002,130.821331
01219,183759,9.521232,0.267322,0.649182,-0.017629,0.201655,0.115726,-0.593484,0.129240,-0.297159,-118.406948,-87.764284,127.326847
01220,183859,9.443429,0.154562,0.724919,-0.021300,0.191294,0.118653,-0.593904,0.131433,-0.301056,-115.044823,-87.756292,123.950559
01221,183959,9.485073,0.041294,0.803832,-0.011371,0.171059,0.123705,-0.591410,0.133387,-0.300953,-111.956386,-87.733650,120.853839
01222,184059,9.687198,-0.052152,0.943720,0.010250,0.163346,0.130278,-0.591391,0.133435,-0.301953,-108.997662,-87.699576,117.899283
01223,184159,9.914310,-0.093802,1.058269,0.022722,0.185926,0.142410,-0.589874,0.135951,-0.302825,-105.773019,-87.656467,114.685677
01224,184259,10.012727,0.040279,1.111496,0.010688,0.239821,0.153841,-0.589797,0.137140,-0.306773,-101.924023,-87.606475,110.840190
01225,184359,10.015003,0.310884,1.049837,-0.037759,0.305688,0.162743,-0.589267,0.139695,-0.308145,-97.385420,-87.546338,106.276560
01226,184459,9.965342,0.563491,0.992616,-0.089828,0.347051,0.164460,-0.588785,0.141134,-0.307069,-92.581007,-87.471821,101.416795
01227,184559,10.075856,0.772153,1.032255,-0.130774,0.362980,0.160217,-0.586686,0.143858,-0.312439,-87.903485,-87.382651,96.660277
01228,184659,10.419311,0.826259,1.223092,-0.153407,0.377032,0.153183,-0.586098,0.147057,-0.316785,-83.397048,-87.280162,92.061705
01229,184759,10.881957,0.686692,1.516368,-0.139987,0.420164,0.145117,-0.584507,0.149765,-0.321655,-78.728611,-87.161650,87.308242
01230,184859,11.321782,0.348094,1.711591,-0.097567,0.496787,0.138642,-0.586473,0.153830,-0.322452,-73.607486,-87.017000,82.125328
01231,184959,11.864558,-0.098895,1.819364,-0.049162,0.590761,0.132866,-0.581904,0.155471,-0.326873,-68.037376,-86.833823,76.519810
01232,185059,12.418010,-0.538818,1.737045,-0.010332,0.689929,0.135975,-0.580787,0.160727,-0.332616,-62.258078,-86.596200,70.725936
01233,185159,12.835726,-0.854906,1.538775,0.026104,0.771246,0.140878,-0.580714,0.159923,-0.336666,-56.673656,-86.300696,65.146647
01234,185259,13.260712,-0.989334,1.210378,0.052271,0.822026,0.143443,-0.576585,0.162712,-0.344035,-51.626333,-85.956199,60.118716
01235,185359,13.788938,-0.963913,0.659267,0.054223,0.837518,0.142025,-0.576005,0.167380,-0.347804,-47.304215,-85.580048,55.816868
01236,185459,14.206319,-0.758846,-0.060657,0.013766,0.779103,0.133092,-0.572921,0.168570,-0.352751,-43.929868,-85.210681,52.440443
01237,185559,13.902636,-0.359233,-0.934535,-0.083836,0.621828,0.111917,-0.575303,0.172362,-0.358071,-41.663141,-84.903026,50.117972
01238,185659,13.105276,0.058518,-1.518511,-0.206479,0.394994,0.070805,-0.570725,0.178487,-0.362263,-40.428830,-84.703134,48.760698
01239,185759,12.301303,0.205940,-1.426712,-0.276491,0.178295,0.021091,-0.570740,0.180431,-0.361162,-39.928824,-84.614846,48.100324
01240,185859,11.472487,0.020209,-0.920616,-0.258300,0.008340,-0.029501,-0.574719,0.179024,-0.361739,-39.855754,-84.619700,47.879193
01241,185959,10.526277,-0.386308,-0.550439,-0.193911,-0.117675,-0.061650,-0.573280,0.184312,-0.357961,-40.090030,-84.691842,48.003804
01242,186059,9.446222,-0.794844,-0.329181,-0.091011,-0.235418,-0.075570,-0.573253,0.188845,-0.358732,-40.684466,-84.820505,48.549258
01243,186159,8.351892,-1.067673,-0.090159,0.018440,-0.338247,-0.090120,-0.575820,0.187695,-0.354785,-41.617599,-84.998365,49.497558
01244,186259,7.480134,-1.270094,0.143880,0.138965,-0.391339,-0.103089,-0.574311,0.191183,-0.355106,-42.730548,-85.202221,50.695346
01245,186359,6.745263,-1.430202,0.260373,0.261736,-0.399337,-0.117717,-0.574357,0.191062,-0.352607,-43.839024,-85.413109,51.958840
01246,186459,6.208706,-1.535020,0.187027,0.353742,-0.353997,-0.126975,-0.577879,0.192018,-0.350559,-44.720054,-85.607238,53.046688
01247,186559,5.855991,-1.666106,-0.080505,0.425537,-0.281769,-0.126093,-0.576888,0.189013,-0.350710,-45.254920,-85.770642,53.828361
01248,186659,5.877761,-1.782040,-0.362844,0.488745,-0.181590,-0.106854,-0.576854,0.192573,-0.352032,-45.340553,-85.885494,54.195757
01249,186759,6.416564,-1.767804,-0.538765,0.523713,-0.065340,-0.071733,-0.578305,0.191222,-0.354608,-44.949261,-85.939170,54.105039
01250,186859,7.208786,-1.705545,-0.556086,0.515434,0.027600,-0.035401,-0.578306,0.190724,-0.354633,-44.238871,-85.940254,53.689654
01251,186959,8.102513,-1.596254,-0.294694,0.465511,0.092338,0.013531,-0.577287,0.187791,-0.356285,-43.483902,-85.894793,53.200877
01252,187059,9.072193,-1.370956,-0.041284,0.384402,0.135795,0.080944,-0.577736,0.189414,-0.358708,-42.944715,-85.804353,52.881806
01253,187159,10.066933,-0.904710,0.078994,0.291079,0.155992,0.151560,-0.575721,0.191423,-0.359605,-42.768064,-85.677796,52.872613
01254,187259,11.113083,-0.464274,0.089758,0.194660,0.157828,0.214309,-0.576670,0.192058,-0.362079,-42.980119,-85.526061,53.197868
01255,187359,11.958999,-0.159042,-0.106641,0.125614,0.139255,0.257071,-0.575198,0.194951,-0.360427,-43.523873,-85.365213,53.816264
01256,187459,12.281747,-0.004967,-0.393795,0.061754,0.084195,0.259040,-0.570190,0.194446,-0.361950,-44.337516,-85.225845,54.668886
01257,187559,11.782136,-0.008633,-0.511473,-0.011386,0.003349,0.212506,-0.573128,0.196607,-0.364348,-45.310519,-85.137171,55.639524
01258,187659,10.826049,-0.115133,-0.413879,-0.068507,-0.090076,0.133855,-0.571631,0.198576,-0.364246,-46.369486,-85.116783,56.663671
01259,187759,10.098902,-0.249698,0.030437,-0.070436,-0.155576,0.068136,-0.571710,0.200850,-0.359621,-47.446108,-85.147973,57.704418
01260,187859,9.475733,-0.367850,0.364494,-0.040462,-0.195586,0.021699,-0.569725,0.201791,-0.359070,-48.513555,-85.212645,58.753116
01261,187959,8.987641,-0.450131,0.728882,0.002990,-0.232256,-0.017603,-0.570722,0.206765,-0.358316,-49.601501,-85.306426,59.847242
01262,188059,8.617776,-0.560236,1.083656,0.059418,-0.246353,-0.051966,-0.569766,0.204660,-0.356418,-50.623015,-85.418787,60.906992
01263,188159,8.327219,-0.661465,1.318224,0.109775,-0.225625,-0.069958,-0.572233,0.207737,-0.357266,-51.465843,-85.530240,61.816273
01264,188259,8.143178,-0.789119,1.313835,0.131279,-0.180848,-0.076221,-0.571252,0.209168,-0.356190,-52.045958,-85.627673,62.474284
01265,188359,8.010594,-0.821695,1.148319,0.135160,-0.139229,-0.071134,-0.570792,0.209064,-0.354191,-52.422545,-85.707720,62.930331
01266,188459,8.052874,-0.809909,0.966072,0.139375,-0.118285,-0.068912,-0.568777,0.211073,-0.355088,-52.693193,-85.779224,63.282522
01267,188559,8.278264,-0.858885,0.747668,0.133420,-0.122770,-0.063513,-0.571769,0.209626,-0.355165,-53.032034,-85.849641,63.699629
01268,188659,8.642389,-0.928966,0.627209,0.126711,-0.139835,-0.050259,-0.568223,0.211210,-0.358087,-53.561525,-85.919552,64.303983
01269,188759,9.013892,-1.009451,0.625851,0.117724,-0.164722,-0.035430,-0.570758,0.212624,-0.355512,-54.352085,-85.990445,65.164837
01270,188859,9.234946,-1.159046,0.574964,0.095447,-0.171170,-0.024262,-0.568752,0.214609,-0.355910,-55.282466,-86.057277,66.152977
01271,188959,9.221760,-1.281295,0.509446,0.067671,-0.175801,-0.017343,-0.571202,0.216738,-0.357808,-56.327244,-86.121082,67.239747
01272,189059,9.074297,-1.408929,0.559651,0.043392,-0.193835,-0.009762,-0.570751,0.216609,-0.355309,-57.587524,-86.185316,68.528475
01273,189159,8.939022,-1.438790,0.836263,0.032434,-0.214251,-0.007099,-0.569292,0.217486,-0.353259,-59.062326,-86.252235,70.025798
01274,189259,8.843087,-1.350042,1.144470,0.026494,-0.221065,-0.005663,-0.568745,0.218595,-0.355707,-60.652470,-86.317651,71.635181
01275,189359,8.775972,-1.204230,1.345568,0.024913,-0.228549,-0.003463,-0.574741,0.218642,-0.354709,-62.368795,-86.380886,73.369979
01276,189459,8.801067,-0.983980,1.426626,0.027460,-0.241751,-0.007525,-0.570772,0.220025,-0.353632,-64.235755,-86.446043,75.257049
01277,189559,8.887644,-0.783050,1.492592,0.034519,-0.236552,-0.019391,-0.571318,0.219414,-0.351158,-66.075709,-86.512208,77.120983
01278,189659,8.980541,-0.683364,1.477485,0.043463,-0.206994,-0.031517,-0.571758,0.221061,-0.354081,-67.673008,-86.574598,78.746829
01279,189759,9.121753,-0.635554,1.424270,0.046715,-0.164184,-0.045580,-0.573793,0.222965,-0.351481,-68.887223,-86.632929,79.990685
01280,189859,9.355277,-0.711561,1.368980,0.045739,-0.121274,-0.062348,-0.571779,0.219518,-0.353158,-69.687319,-86.690201,80.819086
01281,189959,9.606427,-0.841220,1.248916,0.052572,-0.098277,-0.073280,-0.570754,0.220073,-0.354632,-70.255630,-86.748215,81.419195
01282,190059,9.766628,-0.993624,1.122135,0.060075,-0.085711,-0.080661,-0.573225,0.220659,-0.355606,-70.693246,-86.807450,81.892672
01283,190159,9.878573,-1.091194,1.056482,0.050613,-0.074605,-0.084253,-0.574723,0.223648,-0.354955,-71.030793,-86.866300,82.260469
01284,190259,9.977043,-1.110568,1.025158,0.027720,-0.053171,-0.081585,-0.571710,0.221680,-0.356555,-71.187280,-86.919579,82.433782
01285,190359,9.915680,-1.088032,0.901964,-0.003020,-0.041210,-0.075237,-0.573217,0.219687,-0.356157,-71.266307,-86.967130,82.511876
01286,190459,9.756999,-1.038753,0.571858,-0.030201,-0.059964,-0.077677,-0.573196,0.221230,-0.357080,-71.550533,-87.019370,82.779849
01287,190559,9.663591,-1.031265,0.518963,-0.014435,-0.081407,-0.081754,-0.573206,0.220707,-0.356606,-72.049997,-87.077523,83.272373
01288,190659,9.605557,-1.193763,0.331823,0.016496,-0.079676,-0.097318,-0.574681,0.221277,-0.357581,-72.479572,-87.143605,83.712632
01289,190759,9.906190,-1.509097,0.234567,0.098157,-0.053157,-0.104357,-0.573666,0.221310,-0.358580,-72.560938,-87.208797,83.851071
01290,190859,10.468511,-1.961817,0.370446,0.198045,-0.019132,-0.100584,-0.574646,0.219879,-0.359656,-72.214268,-87.265939,83.618259
01291,190959,11.294615,-2.128834,0.994567,0.247824,0.016601,-0.091482,-0.575654,0.213418,-0.359987,-71.446397,-87.311503,82.992333
01292,191059,12.121323,-1.957741,1.963265,0.201712,0.065413,-0.078385,-0.577626,0.214992,-0.360911,-70.164535,-87.340110,81.825426
01293,191159,12.878118,-1.606168,3.104187,0.082484,0.123272,-0.069634,-0.573603,0.215025,-0.362909,-68.292039,-87.350614,79.998889
01294,191259,13.575388,-0.864196,3.650082,-0.048593,0.242800,-0.063768,-0.576030,0.214237,-0.366459,-65.160973,-87.327137,76.837243
01295,191359,13.805110,0.211863,3.376098,-0.125113,0.431028,-0.076137,-0.575936,0.214976,-0.371432,-60.079098,-87.249781,71.678595
01296,191459,13.304223,0.907396,2.412156,-0.138759,0.589051,-0.128029,-0.574304,0.214317,-0.378979,-53.499092,-87.123198,65.011753
01297,191559,12.628439,1.050225,1.594582,-0.119243,0.652941,-0.193763,-0.576786,0.214381,-0.379480,-46.547352,-86.964263,57.983048
01298,191659,12.657597,0.718760,1.128176,-0.078767,0.696159,-0.225085,-0.574174,0.214156,-0.386002,-39.824460,-86.757529,51.205566
01299,191759,13.214079,0.139025,0.385557,-0.039710,0.759857,-0.211925,-0.572043,0.213987,-0.393523,-33.729678,-86.476955,45.078056
01300,191859,13.088384,-0.701571,-1.114910,0.001044,0.773979,-0.177555,-0.572468,0.213690,-0.397547,-28.763655,-86.145946,40.103000
01301,191959,11.815710,-1.340967,-3.025963,-0.018397,0.597155,-0.145671,-0.571915,0.213328,-0.400572,-25.438166,-85.874985,36.759495
01302,192059,10.049238,-1.586161,-4.064085,-0.126649,0.255597,-0.104391,-0.574359,0.213488,-0.403071,-23.903282,-85.762792,35.148341
01303,192159,9.000805,-1.333234,-3.968381,-0.227184,-0.117333,-0.037077,-0.572829,0.217522,-0.404367,-24.117813,-85.829068,35.233490
01304,192259,8.539614,-0.428081,-3.064823,-0.224967,-0.368480,-0.006917,-0.576386,0.214918,-0.400996,-25.414138,-86.018958,36.404418
01305,192359,8.163718,0.662306,-1.700379,-0.123446,-0.495396,-0.027420,-0.577924,0.216316,-0.398422,-27.115624,-86.277230,38.039403
01306,192459,8.085046,1.529595,-0.129150,0.012742,-0.498700,-0.061582,-0.579455,0.216742,-0.396398,-28.713189,-86.543187,39.647966
01307,192559,8.315934,1.850045,1.019246,0.076543,-0.399735,-0.091880,-0.580969,0.216219,-0.395424,-29.760541,-86.765782,40.741591
01308,192659,8.895719,1.708585,1.469156,0.053090,-0.233543,-0.102289,-0.582014,0.214620,-0.393001,-29.973952,-86.908065,40.986357
01309,192759,9.573641,1.150720,1.071054,-0.033565,-0.013354,-0.075333,-0.585516,0.216619,-0.391901,-29.320920,-86.933138,40.313691
01310,192859,9.713884,0.522146,0.111487,-0.088595,0.161823,-0.035158,-0.584951,0.217777,-0.395349,-28.178963,-86.858633,39.119789
01311,192959,9.508335,0.158392,-0.873255,-0.112853,0.197501,-0.013487,-0.582486,0.213703,-0.394552,-27.136766,-86.759160,38.011780
01312,193059,9.551332,-0.323385,-1.294330,-0.131676,0.140557,0.020147,-0.582879,0.220927,-0.399194,-26.716742,-86.679407,37.516058
01313,193159,9.615321,-0.916952,-1.298009,-0.153773,0.072066,0.073365,-0.580904,0.221346,-0.398169,-27.090147,-86.620955,37.802398
01314,193259,9.699600,-1.220783,-1.177754,-0.199070,0.004304,0.127678,-0.582401,0.225331,-0.397466,-28.242344,-86.582315,38.842909
01315,193359,9.727985,-1.204396,-0.947910,-0.242866,-0.062913,0.161940,-0.582396,0.227822,-0.397339,-29.996413,-86.566288,40.461256
01316,193459,9.699283,-0.827710,-0.597411,-0.234721,-0.117856,0.167679,-0.583384,0.227364,-0.397864,-32.052910,-86.572401,42.387253
01317,193559,9.619233,-0.251082,-0.324395,-0.192753,-0.153240,0.147002,-0.582903,0.228304,-0.396814,-34.116512,-86.597887,44.344427
01318,193659,9.590183,0.218506,-0.141800,-0.139256,-0.181115,0.109725,-0.583453,0.230161,-0.393714,-36.043669,-86.644715,46.195551
01319,193759,9.542120,0.566651,0.066027,-0.097847,-0.186801,0.075055,-0.584983,0.231084,-0.391664,-37.760740,-86.702655,47.859906
01320,193859,9.362309,0.783273,0.216692,-0.080591,-0.175361,0.051906,-0.584500,0.233021,-0.390563,-39.271329,-86.761055,49.327252
01321,193959,9.141916,0.939232,0.312695,-0.083517,-0.160831,0.042098,-0.584551,0.230410,-0.388191,-40.661863,-86.814620,50.672600
01322,194059,8.943524,0.942043,0.480890,-0.097692,-0.137072,0.043689,-0.585545,0.231422,-0.388140,-41.951481,-86.855642,51.908687
01323,194159,8.796153,0.775975,0.583360,-0.110214,-0.106574,0.043335,-0.582544,0.233392,-0.388538,-43.057291,-86.882530,52.953471
01324,194259,8.713873,0.530614,0.606690,-0.127019,-0.073059,0.040481,-0.586042,0.237385,-0.387336,-43.921829,-86.895660,53.746968
01325,194359,8.625871,0.198700,0.521315,-0.147822,-0.041557,0.046411,-0.585998,0.236509,-0.389886,-44.614946,-86.892926,54.356854
01326,194459,8.634923,-0.099723,0.357178,-0.166506,-0.031168,0.057121,-0.585505,0.238469,-0.389284,-45.319123,-86.881255,54.967101
01327,194559,8.715439,-0.314774,0.280104,-0.180731,-0.038712,0.069296,-0.586480,0.240028,-0.390208,-46.172061,-86.867161,55.718176
01328,194659,8.806649,-0.444345,0.251489,-0.188885,-0.050384,0.078856,-0.584011,0.238446,-0.389284,-47.179610,-86.853007,56.619424
01329,194759,8.872192,-0.487831,0.228851,-0.192774,-0.068627,0.089888,-0.583035,0.242344,-0.387580,-48.398439,-86.840237,57.730055
01330,194859,8.843751,-0.385003,0.326142,-0.187365,-0.102773,0.097469,-0.583063,0.242271,-0.386081,-49.924820,-86.835515,59.151820
01331,194959,8.751367,-0.282707,0.397817,-0.166529,-0.118962,0.103981,-0.583038,0.246305,-0.386878,-51.606939,-86.831577,60.741524
01332,195059,8.680825,-0.183579,0.410832,-0.129078,-0.126245,0.106773,-0.583089,0.243694,-0.384506,-53.339695,-86.826305,62.403444
01333,195159,8.646137,-0.151686,0.466167,-0.089154,-0.131140,0.108859,-0.587565,0.247252,-0.384329,-55.095975,-86.818915,64.111846
01334,195259,8.649381,-0.050849,0.593705,-0.042609,-0.135096,0.108843,-0.583091,0.247656,-0.383802,-56.849528,-86.809913,65.844244
01335,195359,8.695021,0.026617,0.652546,-0.000142,-0.128744,0.104377,-0.585131,0.247068,-0.381330,-58.487439,-86.798297,67.485210
01336,195459,8.777061,0.076444,0.674842,0.029555,-0.125945,0.101009,-0.584078,0.247695,-0.384303,-60.052658,-86.784987,69.070437
01337,195559,8.782177,0.069771,0.620080,0.044422,-0.120432,0.094291,-0.585119,0.248587,-0.381753,-61.512921,-86.771179,70.559099
01338,195659,8.813430,0.053965,0.661191,0.052343,-0.110800,0.093785,-0.583153,0.249480,-0.380202,-62.865519,-86.753024,71.944495
01339,195759,9.075371,0.017131,0.711008,0.065388,-0.075075,0.101798,-0.585653,0.248997,-0.379729,-63.907241,-86.719983,73.026038
01340,195859,9.483960,-0.018542,0.636364,0.081745,-0.031525,0.113820,-0.583631,0.250034,-0.381176,-64.579291,-86.669000,73.746729
01341,195959,9.772096,0.008938,0.576409,0.090257,-0.008744,0.125051,-0.585110,0.248113,-0.382278,-65.070446,-86.606252,74.291146
01342,196059,9.920438,0.016028,0.650798,0.102180,-0.007750,0.124576,-0.583641,0.250010,-0.380677,-65.524964,-86.543280,74.805744
01343,196159,9.905512,-0.004881,0.816682,0.113561,-0.016329,0.116835,-0.583579,0.248186,-0.384277,-65.998623,-86.486146,75.346091
01344,196259,9.917773,-0.114326,1.043928,0.130706,-0.006144,0.109035,-0.583116,0.249078,-0.382227,-66.330970,-86.430521,75.754737
01345,196359,9.992822,-0.266449,1.225503,0.151715,0.045172,0.105393,-0.582094,0.247640,-0.383802,-66.200913,-86.364923,75.712161
01346,196459,10.075822,-0.429964,1.302456,0.167528,0.112250,0.109842,-0.584572,0.250195,-0.384176,-65.539095,-86.281250,75.145811
01347,196559,10.002905,-0.541866,1.233576,0.170318,0.176586,0.128860,-0.583528,0.250797,-0.386649,-64.471812,-86.171560,74.174663
01348,196659,9.846085,-0.495558,1.145502,0.150356,0.220006,0.145553,-0.583004,0.249367,-0.388225,-63.212003,-86.041023,72.998954
01349,196759,9.731291,-0.422617,0.949764,0.124531,0.253580,0.165568,-0.581002,0.249858,-0.388698,-61.882601,-85.889663,71.738456
01350,196859,9.794378,-0.286275,0.764620,0.092307,0.282008,0.180294,-0.582422,0.250074,-0.392697,-60.528831,-85.721037,70.434768
01351,196959,9.994733,-0.074607,0.719523,0.053683,0.299326,0.189134,-0.580916,0.251071,-0.393146,-59.221378,-85.540910,69.155052
01352,197059,10.269300,0.159122,0.927732,0.025977,0.321198,0.185223,-0.580369,0.252678,-0.395568,-57.884318,-85.353992,67.829405
01353,197159,10.552861,0.329963,1.310587,0.035132,0.362551,0.170393,-0.578285,0.251891,-0.400617,-56.355747,-85.158805,66.316510
01354,197259,10.910560,0.321108,1.788369,0.075690,0.420706,0.149726,-0.580789,0.249913,-0.400219,-54.536047,-84.950907,64.534293
01355,197359,11.644253,0.264920,1.980994,0.129143,0.509359,0.130628,-0.578239,0.251513,-0.403141,-52.319484,-84.716243,62.383762
01356,197459,12.526770,-0.295894,1.992288,0.198371,0.611114,0.120440,-0.576577,0.251923,-0.412137,-49.752014,-84.441540,59.919730
01357,197559,13.197506,-0.911316,1.598393,0.233794,0.666321,0.117219,-0.573551,0.251971,-0.414135,-47.165924,-84.137024,57.456186
01358,197659,13.449210,-1.233447,1.160992,0.237036,0.668586,0.112703,-0.572434,0.252269,-0.420633,-44.805767,-83.823174,55.220339
01359,197759,13.737569,-1.269424,0.765739,0.217630,0.687919,0.111475,-0.571324,0.253539,-0.426579,-42.611341,-83.492758,53.138701
01360,197859,14.328303,-1.317714,0.154133,0.197524,0.700805,0.124665,-0.569753,0.255202,-0.430501,-40.645231,-83.143748,51.273934
01361,197959,14.299190,-1.252331,-0.969952,0.170673,0.646983,0.143147,-0.568683,0.254881,-0.434525,-39.101012,-82.805297,49.817394
01362,198059,13.181712,-0.956868,-2.184278,0.132671,0.495899,0.126125,-0.566145,0.260916,-0.436218,-38.060537,-82.536912,48.845803
01363,198159,11.632743,-0.630339,-2.759705,0.095825,0.248035,0.071924,-0.565055,0.256183,-0.441970,-37.569020,-82.398401,48.406181
01364,198259,10.211986,-0.535334,-2.627758,0.080502,-0.073619,0.004411,-0.571138,0.259477,-0.435796,-37.708886,-82.429524,48.594579
01365,198359,9.145723,-0.440610,-1.868434,0.063073,-0.372388,-0.053577,-0.574139,0.258005,-0.435373,-38.469627,-82.615870,49.399035
01366,198459,8.239104,-0.442121,-1.024350,0.021582,-0.564239,-0.104114,-0.570686,0.259348,-0.433297,-39.674725,-82.904119,50.626999
01367,198559,7.529637,-0.546877,-0.313953,-0.015255,-0.611489,-0.137657,-0.575751,0.259211,-0.428800,-41.031514,-83.221981,51.985686
01368,198659,6.944297,-0.823750,0.154278,-0.006637,-0.550390,-0.153602,-0.576294,0.260095,-0.426250,-42.248842,-83.515992,53.208064
01369,198759,6.511039,-1.127044,0.353664,0.055706,-0.428296,-0.159016,-0.579830,0.258535,-0.423829,-43.083931,-83.758062,54.081111
01370,198859,6.456463,-1.308908,0.498085,0.149397,-0.248155,-0.163561,-0.581348,0.255521,-0.422982,-43.242379,-83.925734,54.327228
01371,198959,7.193139,-1.481201,0.538550,0.246463,-0.036521,-0.158021,-0.584822,0.257593,-0.423381,-42.585063,-84.002508,53.808891
01372,199059,8.289680,-1.744122,0.486278,0.319991,0.112680,-0.141763,-0.583809,0.251671,-0.425185,-41.392397,-84.008577,52.794650
01373,199159,9.298704,-1.852225,0.464360,0.357853,0.182239,-0.119116,-0.582278,0.251245,-0.427209,-40.026825,-83.973568,51.628322
01374,199259,10.215478,-1.755735,0.512301,0.371779,0.193153,-0.092359,-0.580245,0.247847,-0.429885,-38.744799,-83.921162,50.553928
01375,199359,11.107816,-1.443879,0.441998,0.372243,0.192245,-0.050335,-0.584683,0.247042,-0.432437,-37.663866,-83.851954,49.681916
01376,199459,11.744609,-1.119121,0.010682,0.362750,0.214022,0.002598,-0.584131,0.246182,-0.435486,-36.764966,-83.752926,48.987390
01377,199559,11.775442,-0.786943,-0.657553,0.316516,0.205371,0.037171,-0.581137,0.244165,-0.436087,-36.088120,-83.645215,48.489470
01378,199659,11.226220,-0.579004,-1.026939,0.208364,0.143297,0.041336,-0.582623,0.243715,-0.436612,-35.693628,-83.564552,48.213216
01379,199759,10.260800,-0.404597,-0.970022,0.096083,0.024142,0.017865,-0.583635,0.245178,-0.435537,-35.624728,-83.547210,48.199847
01380,199859,9.698957,-0.301842,-0.570240,0.005030,-0.100613,-0.003169,-0.586633,0.245201,-0.435038,-35.892029,-83.595025,48.472301
01381,199959,9.282037,-0.270830,-0.039701,-0.039550,-0.186060,-0.020447,-0.582662,0.247581,-0.433910,-36.378242,-83.688084,48.939279
01382,200059,8.831120,-0.209557,0.438269,-0.061028,-0.253237,-0.041578,-0.588165,0.245128,-0.433039,-37.014863,-83.818766,49.545079
01383,200159,8.520657,-0.139321,0.876854,-0.074175,-0.305663,-0.067296,-0.587250,0.246390,-0.428464,-37.749022,-83.981473,50.241229
01384,200259,8.577979,-0.101309,1.143754,-0.074576,-0.326695,-0.092900,-0.588773,0.245346,-0.427016,-38.483677,-84.161746,50.937430
01385,200359,8.630633,-0.129060,1.279321,-0.075727,-0.305058,-0.111634,-0.590779,0.243360,-0.426619,-39.101006,-84.338201,51.514827
01386,200459,8.606301,-0.221799,1.178190,-0.079679,-0.262040,-0.132232,-0.592298,0.245305,-0.425018,-39.500603,-84.502515,51.871012
01387,200559,8.505405,-0.327239,1.025015,-0.086714,-0.217666,-0.150596,-0.595305,0.245304,-0.424019,-39.666800,-84.653748,51.988604
01388,200659,8.489744,-0.521678,0.785908,-0.089004,-0.200706,-0.157281,-0.594810,0.243801,-0.424096,-39.741908,-84.799914,52.013370
01389,200759,8.622592,-0.833729,0.663491,-0.072087,-0.200897,-0.143782,-0.598334,0.243760,-0.422097,-39.878299,-84.941185,52.109385
01390,200859,8.786073,-1.121167,0.567284,-0.056638,-0.207074,-0.113248,-0.594368,0.243150,-0.421122,-40.194818,-85.073845,52.395071
01391,200959,8.916742,-1.302122,0.532735,-0.047430,-0.205109,-0.079770,-0.598923,0.244524,-0.417049,-40.688059,-85.192990,52.863352
01392,201059,9.005424,-1.430578,0.515775,-0.051358,-0.208852,-0.041615,-0.599916,0.246532,-0.416948,-41.425983,-85.298917,53.574817
01393,201159,8.995823,-1.515962,0.556051,-0.064236,-0.220168,-0.007575,-0.600465,0.243928,-0.414576,-42.438974,-85.395670,54.554744
01394,201259,9.044694,-1.533565,0.563506,-0.075139,-0.240113,0.023531,-0.599499,0.247802,-0.412373,-43.764987,-85.486893,55.842282
01395,201359,9.128301,-1.424337,0.710939,-0.091197,-0.242038,0.042841,-0.601007,0.245311,-0.412000,-45.264874,-85.568537,57.294838
01396,201459,9.062401,-1.244505,0.897013,-0.102743,-0.215875,0.051876,-0.604522,0.244796,-0.410527,-46.729428,-85.633025,58.705176
01397,201559,9.116940,-1.015506,1.146065,-0.121977,-0.162724,0.054633,-0.604069,0.245664,-0.407978,-47.960976,-85.673089,59.870685
01398,201659,9.123502,-0.858029,1.338940,-0.146362,-0.102443,0.052462,-0.604050,0.246210,-0.408952,-48.870522,-85.689438,60.699223
01399,201759,9.142793,-0.805165,1.358410,-0.162570,-0.054251,0.047155,-0.607105,0.245591,-0.405479,-49.489821,-85.689147,61.227369
01400,201859,9.460984,-0.778094,1.237899,-0.175652,-0.017603,0.043850,-0.605559,0.248179,-0.407851,-49.887187,-85.676314,61.525443
01401,201959,9.790655,-0.918936,1.115316,-0.166023,0.036365,0.042565,-0.608580,0.245663,-0.406480,-49.958708,-85.643998,61.502276
01402,202059,9.822858,-1.037763,0.882156,-0.142978,0.087442,0.032673,-0.608541,0.247254,-0.408402,-49.678487,-85.597086,61.139579
01403,202159,9.590357,-1.209150,0.703271,-0.113678,0.109204,0.013795,-0.611034,0.245798,-0.408479,-49.176666,-85.550052,60.571432
01404,202259,9.482458,-1.352835,0.506031,-0.084571,0.087112,-0.008133,-0.609560,0.244730,-0.407530,-48.685441,-85.520391,60.030608
01405,202359,9.414068,-1.536719,0.353162,-0.055895,0.069108,-0.016180,-0.611034,0.245798,-0.408479,-48.244108,-85.500641,59.556286
01406,202459,9.217107,-1.696136,0.105554,-0.033025,0.041509,-0.013120,-0.612539,0.244802,-0.408031,-47.958234,-85.489879,59.251032
01407,202559,9.038481,-1.801704,-0.089866,-0.012017,0.014397,-0.012169,-0.613507,0.245388,-0.409506,-47.813195,-85.489010,59.099114
01408,202659,8.926271,-1.972815,-0.299065,0.025780,-0.004210,-0.004143,-0.615521,0.243378,-0.408608,-47.787258,-85.491852,59.088381
01409,202759,9.120141,-2.175768,-0.290054,0.094034,-0.001256,0.007633,-0.615504,0.242430,-0.409658,-47.765351,-85.488524,59.120908
01410,202859,9.598463,-2.183494,-0.012097,0.175538,0.039111,0.011213,-0.619514,0.238958,-0.408838,-47.499500,-85.468057,58.955567
01411,202959,10.320508,-1.786515,0.521447,0.232428,0.108793,0.007298,-0.618029,0.238910,-0.408338,-46.818523,-85.421935,58.406470
01412,203059,11.257730,-1.154780,1.177174,0.208038,0.176761,0.000847,-0.619426,0.236209,-0.413988,-45.786516,-85.350896,57.491138
01413,203159,12.254654,-0.444700,1.755120,0.108878,0.232723,-0.001583,-0.620966,0.231154,-0.412244,-44.555165,-85.256772,56.318681
01414,203259,12.920421,0.259138,1.921263,-0.054995,0.286950,-0.016721,-0.622893,0.231853,-0.415717,-43.137186,-85.144053,54.864550
01415,203359,13.068781,0.752655,1.777882,-0.190930,0.378095,-0.060066,-0.622859,0.230454,-0.417793,-41.250549,-85.005882,52.861588
01416,203459,13.095984,1.006604,1.356930,-0.228275,0.492729,-0.104445,-0.624314,0.231570,-0.419742,-38.812682,-84.827422,50.283265
01417,203559,13.594979,1.060125,0.603615,-0.228166,0.582964,-0.147188,-0.622748,0.229747,-0.423841,-36.010470,-84.612596,47.338313
01418,203659,13.403972,0.575765,-0.270808,-0.242229,0.627693,-0.174986,-0.623679,0.230429,-0.427315,-33.164164,-84.372738,44.339864
01419,203759,11.979798,0.039338,-1.401618,-0.319037,0.534021,-0.194578,-0.622113,0.234062,-0.430635,-30.778562,-84.171664,41.759055
01420,203859,10.233887,-0.256496,-2.377937,-0.415678,0.281668,-0.206776,-0.624098,0.233121,-0.431187,-29.224643,-84.090802,39.957987
01421,203959,8.879921,-0.385581,-2.650332,-0.461060,-0.055417,-0.203919,-0.625118,0.235556,-0.429560,-28.635438,-84.174961,39.100564
01422,204059,8.173523,-0.295333,-2.069318,-0.465730,-0.341953,-0.201764,-0.628631,0.236536,-0.428011,-28.823171,-84.402336,39.021491
01423,204159,8.014540,-0.007396,-0.819435,-0.433993,-0.487390,-0.205323,-0.630265,0.235700,-0.420540,-29.411822,-84.703639,39.363453
01424,204259,8.344752,0.145322,0.314741,-0.370071,-0.468705,-0.184400,-0.632827,0.237539,-0.416441,-30.076160,-84.989356,39.818020
01425,204359,8.765031,0.326778,1.074691,-0.299066,-0.332439,-0.147891,-0.636830,0.238053,-0.415417,-30.505508,-85.196694,40.077399
01426,204459,9.387123,0.230833,1.246926,-0.242061,-0.132071,-0.102656,-0.637373,0.238936,-0.412867,-30.486924,-85.291860,39.920020
01427,204559,9.854370,-0.177078,1.043617,-0.202299,0.054103,-0.074769,-0.638371,0.237956,-0.412918,-29.954239,-85.286730,39.269668
01428,204659,10.200961,-0.528162,0.692133,-0.146890,0.178779,-0.050104,-0.638791,0.240149,-0.416815,-29.120373,-85.211838,38.348915
01429,204759,10.397929,-0.883218,0.316646,-0.089741,0.233402,-0.018106,-0.638824,0.237088,-0.415468,-28.297242,-85.099601,37.471670
01430,204859,10.453636,-1.129204,0.082157,-0.062975,0.214876,0.013127,-0.637774,0.241178,-0.417764,-27.734711,-84.987457,36.871243
01431,204959,10.494679,-1.216268,-0.100185,-0.096793,0.154177,0.048786,-0.638327,0.241540,-0.414740,-27.599004,-84.896339,36.679758
01432,205059,10.386399,-1.167598,-0.327529,-0.151844,0.072541,0.096688,-0.641787,0.241169,-0.416266,-28.008992,-84.833870,37.004467
01433,205159,10.169947,-0.819703,-0.422980,-0.226615,-0.020545,0.128172,-0.641303,0.243604,-0.415139,-28.907189,-84.809413,37.776388
01434,205259,9.852286,-0.340721,-0.219568,-0.267595,-0.095082,0.125589,-0.641812,0.242592,-0.414690,-30.040658,-84.821681,38.760975
01435,205359,9.666902,0.044231,0.172339,-0.260608,-0.136236,0.096272,-0.641825,0.245533,-0.413538,-31.150170,-84.861088,39.725488
01436,205459,9.511169,0.346297,0.611341,-0.217629,-0.157391,0.058102,-0.642371,0.244922,-0.411065,-32.114621,-84.920731,40.569010
01437,205559,9.361246,0.521045,0.901100,-0.168082,-0.165309,0.022596,-0.646847,0.248979,-0.410863,-32.904627,-84.993985,41.265827
01438,205659,9.124697,0.678846,1.094257,-0.130951,-0.174657,-0.010476,-0.647405,0.246850,-0.407966,-33.545572,-85.081337,41.834296
01439,205759,8.842318,0.768497,1.100535,-0.110608,-0.181345,-0.036268,-0.646440,0.244769,-0.406568,-34.076223,-85.179592,42.303696
01440,205859,8.600810,0.754459,1.015613,-0.103873,-0.187831,-0.048124,-0.650445,0.244285,-0.405595,-34.580704,-85.284390,42.750640
01441,205959,8.454907,0.562217,0.934696,-0.103806,-0.185260,-0.051070,-0.648487,0.245652,-0.403519,-35.078421,-85.388618,43.190775
01442,206059,8.426100,0.292458,0.888675,-0.111354,-0.180851,-0.043404,-0.649510,0.246094,-0.401994,-35.628295,-85.487910,43.678832
01443,206159,8.416878,-0.003315,0.779209,-0.125151,-0.184838,-0.034586,-0.651003,0.246616,-0.401969,-36.279456,-85.585665,44.260490
01444,206259,8.553942,-0.215039,0.714829,-0.134912,-0.191953,-0.023958,-0.651061,0.245475,-0.399021,-37.060856,-85.682468,44.967080
01445,206359,8.706932,-0.347763,0.646351,-0.146113,-0.196033,-0.011915,-0.655559,0.247491,-0.397921,-37.975868,-85.776105,45.801130
01446,206459,8.859538,-0.363030,0.567014,-0.153871,-0.191351,0.000325,-0.655072,0.246463,-0.397472,-38.986929,-85.862212,46.726931
01447,206559,8.998514,-0.283793,0.472444,-0.154500,-0.199425,0.007886,-0.656031,0.246575,-0.399472,-40.127975,-85.947842,47.782587
01448,206659,9.100434,-0.131782,0.443430,-0.149354,-0.222348,0.023439,-0.658144,0.246791,-0.392949,-41.534542,-86.035892,49.107256
01449,206759,9.152122,0.029824,0.496138,-0.136607,-0.245078,0.027577,-0.658114,0.247860,-0.394398,-43.151455,-86.129507,50.649939
01450,206859,9.155226,0.230166,0.517651,-0.119457,-0.273427,0.028108,-0.658150,0.248262,-0.392373,-45.012018,-86.231355,52.446483
01451,206959,9.190452,0.372286,0.645324,-0.096705,-0.305093,0.020704,-0.660170,0.248719,-0.390849,-47.120401,-86.344658,54.504209
01452,207059,9.171456,0.407786,0.741083,-0.064219,-0.304939,0.008892,-0.662715,0.249113,-0.387826,-49.266974,-86.457937,56.618591
01453,207159,9.157861,0.359406,0.743061,-0.029691,-0.285878,-0.000404,-0.663765,0.250479,-0.384751,-51.332613,-86.563391,58.671460
01454,207259,9.159508,0.222851,0.806066,0.003248,-0.247294,-0.007017,-0.663276,0.250447,-0.384251,-53.163255,-86.653995,60.507615
01455,207359,9.303989,0.043642,0.890447,0.035029,-0.196111,-0.005702,-0.660751,0.249009,-0.386326,-54.662231,-86.723511,62.029639
01456,207459,9.568354,-0.096526,0.873934,0.064312,-0.146331,0.005077,-0.663271,0.247980,-0.384878,-55.848802,-86.769603,63.255472
01457,207559,9.781839,-0.182264,0.877114,0.092880,-0.103077,0.025773,-0.664259,0.247521,-0.385403,-56.796636,-86.790767,64.258544
01458,207659,9.808592,-0.081356,0.868257,0.097373,-0.059342,0.038091,-0.665313,0.246396,-0.382456,-57.442930,-86.791606,64.962172
01459,207759,9.684401,0.100228,0.784806,0.083261,-0.009634,0.053097,-0.665292,0.247441,-0.383404,-57.748944,-86.769598,65.316892
01460,207859,9.578741,0.184492,0.638843,0.083828,0.032629,0.061142,-0.667758,0.251016,-0.384227,-57.732547,-86.730727,65.349019
01461,207959,9.618311,0.114315,0.586399,0.116739,0.061082,0.069212,-0.667268,0.246524,-0.384455,-57.501804,-86.679234,65.185335
01462,208059,9.777391,-0.095304,0.602269,0.152288,0.089492,0.076931,-0.665197,0.249177,-0.388326,-57.065390,-86.615168,64.836022
01463,208159,9.876091,-0.208388,0.766704,0.161147,0.134917,0.090736,-0.664710,0.248148,-0.387877,-56.351179,-86.529995,64.213475
01464,208259,9.940890,-0.169747,0.930380,0.143719,0.215216,0.113332,-0.666654,0.249296,-0.390326,-55.189085,-86.407625,63.132123
01465,208359,9.853084,0.024811,0.912335,0.114263,0.300277,0.142012,-0.665584,0.248975,-0.394350,-53.662440,-86.241999,61.668390
01466,208459,9.782367,0.387065,0.725380,0.077113,0.356054,0.167246,-0.664490,0.251691,-0.399220,-52.045379,-86.043053,60.092402
01467,208559,9.945264,0.691396,0.772996,0.046981,0.384706,0.177389,-0.663013,0.247159,-0.398949,-50.474997,-85.826459,58.545511
01468,208659,10.441528,0.807587,1.109603,0.035601,0.429780,0.176488,-0.662405,0.251402,-0.404243,-48.807380,-85.590544,56.894135
01469,208759,11.289734,0.648934,1.448372,0.059276,0.525013,0.175137,-0.662321,0.252117,-0.408716,-46.799463,-85.314707,54.914432
01470,208859,12.129445,0.129022,1.417494,0.126661,0.644120,0.185078,-0.659247,0.252785,-0.413188,-44.473147,-84.981319,52.653082
01471,208959,12.536123,-0.415419,1.125396,0.216373,0.703906,0.188679,-0.659116,0.253620,-0.420160,-42.156193,-84.614113,50.451540
01472,209059,12.978262,-0.833202,1.063116,0.269538,0.733226,0.189093,-0.656015,0.254360,-0.426131,-39.995243,-84.226570,48.435988
01473,209159,13.969197,-1.285315,0.898032,0.269967,0.789937,0.209951,-0.654381,0.254698,-0.433627,-38.000534,-83.799405,46.586391
01474,209259,14.751269,-1.510023,-0.087211,0.234087,0.778921,0.238382,-0.650828,0.255309,-0.437100,-36.420387,-83.361664,45.131763
01475,209359,14.253219,-1.339073,-2.002745,0.137097,0.604792,0.246741,-0.650186,0.258153,-0.444469,-35.582710,-82.998635,44.367732
01476,209459,12.358103,-0.902305,-3.123820,-0.011684,0.309110,0.200923,-0.652692,0.259640,-0.443394,-35.504123,-82.788176,44.282279
01477,209559,11.003986,-0.600400,-2.437399,-0.072607,0.015995,0.128248,-0.653650,0.260748,-0.445343,-35.963464,-82.738535,44.703849
01478,209659,10.052305,-0.428375,-1.325463,-0.028776,-0.176618,0.060145,-0.656149,0.261262,-0.444819,-36.661824,-82.800488,45.391654
01479,209759,9.056453,-0.456612,-0.585813,0.066350,-0.290030,-0.002680,-0.653720,0.263047,-0.441218,-37.404781,-82.934957,46.179176
01480,209859,8.066091,-0.637200,-0.235267,0.119663,-0.360061,-0.051913,-0.653791,0.259390,-0.437897,-38.168529,-83.117152,47.018139
01481,209959,7.187637,-0.870100,0.177398,0.142028,-0.388369,-0.088440,-0.658740,0.262033,-0.439271,-38.911222,-83.323718,47.848455
01482,210059,6.716729,-1.077152,0.668181,0.158826,-0.361205,-0.111996,-0.660311,0.260369,-0.435349,-39.515265,-83.525562,48.548539
01483,210159,6.587514,-1.241711,0.948565,0.204106,-0.281891,-0.125288,-0.663300,0.260417,-0.435350,-39.816841,-83.696596,48.970112
01484,210259,6.810098,-1.416266,1.050295,0.283763,-0.150348,-0.130170,-0.667332,0.254903,-0.433631,-39.624437,-83.811348,48.940549
01485,210359,7.396169,-1.556784,0.989720,0.374830,0.023631,-0.121306,-0.662758,0.254076,-0.438679,-38.824053,-83.845582,48.351947
01486,210459,8.273928,-1.685567,0.894966,0.432869,0.199396,-0.097489,-0.663219,0.253682,-0.440704,-37.510524,-83.790985,47.280633
01487,210559,9.246889,-1.742406,0.798556,0.463181,0.342181,-0.053965,-0.662172,0.250822,-0.443855,-35.946281,-83.652984,45.974370
01488,210659,10.107551,-1.662867,0.619394,0.466461,0.409445,-0.004150,-0.659614,0.246989,-0.448056,-34.456734,-83.463259,44.744751
01489,210759,10.637296,-1.498856,0.309681,0.428195,0.401951,0.048477,-0.659505,0.246281,-0.454104,-33.299890,-83.257161,43.827517
01490,210859,11.117391,-1.315064,0.093410,0.350931,0.349055,0.095583,-0.657964,0.246378,-0.456603,-32.569407,-83.060132,43.294729
01491,210959,11.382287,-1.144542,0.061928,0.293506,0.314416,0.135134,-0.659448,0.246924,-0.457077,-32.144269,-82.867140,43.036225
01492,211059,11.381165,-0.695229,0.050563,0.204682,0.266410,0.137312,-0.656407,0.245028,-0.460177,-31.909075,-82.696670,42.917778
01493,211159,11.049256,-0.369975,0.192100,0.104190,0.209294,0.094674,-0.656359,0.245647,-0.462651,-31.711782,-82.566874,42.779449
01494,211259,10.403933,-0.268958,0.570194,0.056405,0.137270,0.042790,-0.655813,0.246756,-0.465099,-31.519068,-82.487771,42.618091
01495,211359,9.753548,-0.357972,0.970974,0.053554,0.064438,0.002468,-0.655842,0.246185,-0.463625,-31.346519,-82.456262,42.475406
01496,211459,9.168398,-0.425760,1.182192,0.071425,-0.014650,-0.031653,-0.657357,0.245164,-0.462676,-31.215971,-82.473573,42.385417
01497,211559,8.806852,-0.455323,1.261615,0.084730,-0.086459,-0.059647,-0.655354,0.245655,-0.463150,-31.134568,-82.534353,42.352695
01498,211659,8.520053,-0.479556,1.287588,0.093500,-0.137758,-0.085161,-0.657837,0.244722,-0.463702,-31.067580,-82.627828,42.339583
01499,211759,8.347521,-0.478895,1.344935,0.097753,-0.146381,-0.103983,-0.655365,0.244634,-0.462701,-30.944535,-82.731068,42.272415
01500,211859,8.099206,-0.439719,1.355846,0.091624,-0.131144,-0.115088,-0.657398,0.242577,-0.460804,-30.743186,-82.830027,42.122795
01501,211959,8.005275,-0.441096,1.349392,0.091294,-0.116258,-0.121789,-0.658856,0.242199,-0.462829,-30.475459,-82.923498,41.906124
01502,212059,8.225178,-0.514466,1.278653,0.092636,-0.094348,-0.116001,-0.657845,0.240238,-0.463930,-30.172276,-83.004303,41.654545
01503,212159,8.527135,-0.627506,1.128017,0.089985,-0.084968,-0.096977,-0.661329,0.241788,-0.463855,-29.919911,-83.074830,41.452671
01504,212259,8.676620,-0.807614,0.877723,0.073838,-0.111387,-0.076430,-0.659811,0.239346,-0.465481,-29.819884,-83.152535,41.394956
01505,212359,8.870463,-0.970758,0.735367,0.047214,-0.159860,-0.055718,-0.661345,0.238276,-0.463533,-29.937000,-83.248403,41.540566
01506,212459,9.160024,-1.140896,0.710294,0.022570,-0.198738,-0.035117,-0.660816,0.239836,-0.464956,-30.255933,-83.357549,41.875130
01507,212559,9.438582,-1.249974,0.847038,-0.002940,-0.241957,-0.015060,-0.663343,0.240277,-0.462932,-30.797644,-83.481876,42.419154
01508,212659,9.584675,-1.323275,1.069642,-0.033287,-0.267912,0.001558,-0.664365,0.241217,-0.461382,-31.519962,-83.613280,43.127296
01509,212759,9.541888,-1.314513,1.334917,-0.050173,-0.283864,0.016267,-0.662414,0.238598,-0.459510,-32.391676,-83.746821,43.975830
01510,212859,9.417613,-1.227169,1.597366,-0.053984,-0.282059,0.025080,-0.664939,0.240036,-0.457435,-33.336991,-83.875206,44.895986
01511,212959,9.107838,-1.156125,1.773496,-0.046114,-0.265874,0.028630,-0.667484,0.240927,-0.454386,-34.283662,-83.993042,45.821829
01512,213059,8.822806,-1.069121,1.788893,-0.029476,-0.254747,0.032079,-0.666972,0.238476,-0.455513,-35.237796,-84.102817,46.764568
01513,213159,8.731899,-0.928030,1.746590,-0.018552,-0.233412,0.027891,-0.665493,0.240397,-0.454411,-36.130952,-84.202420,47.652127
01514,213259,8.767724,-0.811219,1.714762,-0.003166,-0.201583,0.020458,-0.667494,0.240405,-0.453912,-36.902076,-84.288528,48.425751
01515,213359,8.854078,-0.701057,1.641602,0.006372,-0.174458,0.008834,-0.668022,0.239344,-0.452463,-37.541235,-84.365285,49.072144
01516,213459,8.964056,-0.629779,1.618846,0.002546,-0.155487,-0.007993,-0.669573,0.238725,-0.449490,-38.053176,-84.438678,49.588427
01517,213559,9.180025,-0.648405,1.631401,-0.009570,-0.145209,-0.026220,-0.671012,0.238893,-0.452489,-38.462339,-84.513466,49.994415
01518,213659,9.331051,-0.782458,1.631817,-0.019606,-0.130670,-0.041423,-0.673013,0.238901,-0.451990,-38.761595,-84.586896,50.284173
01519,213759,9.450106,-0.967317,1.542060,-0.022305,-0.110395,-0.052352,-0.670537,0.236346,-0.451617,-38.940185,-84.655047,50.451146
01520,213859,9.482361,-1.152363,1.460933,-0.012242,-0.084387,-0.061553,-0.671063,0.235784,-0.450143,-38.971587,-84.714850,50.476070
01521,213959,9.530453,-1.278086,1.333911,0.000749,-0.057630,-0.065279,-0.669567,0.236756,-0.450091,-38.872860,-84.764024,50.377788
01522,214059,9.610356,-1.412323,1.163775,0.020986,-0.049970,-0.062647,-0.672017,0.233927,-0.452744,-38.743515,-84.808772,50.260411
01523,214159,9.743912,-1.506844,0.907666,0.026645,-0.064317,-0.056172,-0.670526,0.231910,-0.452845,-38.698303,-84.857561,50.230776
01524,214259,9.768994,-1.657590,0.699110,0.044593,-0.080779,-0.049339,-0.674979,0.233050,-0.454295,-38.742985,-84.911229,50.301719
01525,214359,9.825188,-1.792901,0.551399,0.080520,-0.096189,-0.045352,-0.674043,0.230399,-0.451423,-38.851842,-84.970307,50.457746
01526,214459,10.199675,-2.078446,0.694995,0.147157,-0.087434,-0.043792,-0.674530,0.226469,-0.452626,-38.897823,-85.024857,50.588969
01527,214559,10.873489,-2.214393,1.039492,0.213892,-0.042201,-0.036506,-0.677006,0.229522,-0.452974,-38.756984,-85.056552,50.571041
01528,214659,11.485717,-2.053588,1.623415,0.246860,0.019206,-0.026507,-0.675963,0.224668,-0.456227,-38.394034,-85.057089,50.349133
01529,214759,12.049130,-1.675491,2.317054,0.239838,0.083245,-0.026316,-0.675507,0.221575,-0.454380,-37.775686,-85.028431,49.866830
01530,214859,12.677991,-1.037848,2.789415,0.198584,0.164136,-0.033152,-0.676476,0.221164,-0.455905,-36.833041,-84.964634,49.035233
01531,214959,13.227509,-0.160439,2.952681,0.129692,0.303991,-0.045232,-0.675913,0.215868,-0.460182,-35.367823,-84.838593,47.639241
01532,215059,13.447861,0.675289,2.515447,0.057312,0.469785,-0.071323,-0.677851,0.215547,-0.463207,-33.312987,-84.638755,45.609136
01533,215159,13.565465,1.059597,1.673269,0.019780,0.578915,-0.100199,-0.676259,0.213297,-0.468832,-30.951732,-84.387744,43.248854
01534,215259,13.723785,0.898793,0.822219,0.035707,0.606579,-0.125032,-0.673194,0.213940,-0.472804,-28.590983,-84.121007,40.897203
01535,215359,13.571142,0.255263,-0.044457,0.039771,0.565134,-0.145668,-0.674098,0.208740,-0.478581,-26.435317,-83.871813,38.753013
01536,215459,12.768941,-0.500300,-1.054423,0.034771,0.452327,-0.170123,-0.677003,0.209005,-0.483081,-24.579605,-83.679412,36.906778
01537,215559,11.411878,-0.899349,-1.694133,-0.001334,0.280701,-0.181617,-0.672490,0.210002,-0.484528,-23.140900,-83.574065,35.458788
01538,215659,10.137762,-0.850029,-1.750944,-0.054316,0.066842,-0.172518,-0.674436,0.210154,-0.487028,-22.226655,-83.576608,34.507870
01539,215759,9.261334,-0.451558,-1.249093,-0.064910,-0.137620,-0.158482,-0.678963,0.206143,-0.485233,-21.770315,-83.683583,34.011692
01540,215859,8.409181,0.108967,-0.585338,-0.047668,-0.302731,-0.148910,-0.677527,0.204978,-0.482284,-21.655128,-83.876212,33.868766
01541,215959,7.733426,0.549717,0.084977,-0.041558,-0.393889,-0.146057,-0.679588,0.202848,-0.478888,-21.728339,-84.116806,33.918857
01542,216059,7.607333,0.729093,0.722463,-0.058510,-0.365054,-0.141730,-0.683657,0.202695,-0.474391,-21.777564,-84.341146,33.935059
01543,216159,7.685507,0.738891,0.885710,-0.117072,-0.257014,-0.118496,-0.685614,0.201827,-0.476442,-21.752440,-84.503068,33.842842
01544,216259,7.916955,0.566604,0.517014,-0.197247,-0.115184,-0.077310,-0.688115,0.200845,-0.475993,-21.684196,-84.580778,33.661183
01545,216359,8.367176,0.290909,0.021867,-0.269821,0.013257,-0.030949,-0.686082,0.202903,-0.477890,-21.629151,-84.580311,33.451025
01546,216459,8.805541,0.000866,-0.515925,-0.296566,0.075010,0.003871,-0.683581,0.203386,-0.478364,-21.648024,-84.539654,33.299716
01547,216559,9.144722,-0.323271,-0.918255,-0.276037,0.033397,0.033074,-0.688542,0.204509,-0.479315,-21.909802,-84.515041,33.404231
01548,216659,9.683765,-0.775924,-0.886442,-0.232992,-0.028418,0.064175,-0.687541,0.202027,-0.479941,-22.456524,-84.516495,33.819775
01549,216759,10.108057,-1.103509,-0.771790,-0.166641,-0.084196,0.096533,-0.686081,0.203401,-0.477865,-23.274920,-84.539779,34.546413
01550,216859,10.610364,-1.183140,-0.633976,-0.125054,-0.103117,0.119097,-0.689564,0.205450,-0.477765,-24.247130,-84.566743,35.451465
01551,216959,10.829925,-1.044568,-0.583643,-0.093804,-0.107562,0.125926,-0.687597,0.207339,-0.476163,-25.259935,-84.592942,36.415235
01552,217059,10.657790,-0.720171,-0.531373,-0.063255,-0.126125,0.109456,-0.692109,0.206341,-0.474716,-26.224937,-84.631299,37.348515
01553,217159,10.335785,-0.385695,-0.318636,-0.034752,-0.165636,0.082686,-0.688127,0.209741,-0.474037,-27.151592,-84.695371,38.259602
01554,217259,9.987899,-0.073888,0.037879,-0.016731,-0.200502,0.051773,-0.688166,0.208649,-0.472088,-28.021935,-84.784053,39.124394
01555,217359,9.697360,0.160161,0.515371,-0.012286,-0.208711,0.033569,-0.693133,0.206285,-0.473217,-28.842742,-84.880678,39.941878
01556,217459,9.385664,0.404538,0.896716,-0.021749,-0.201638,0.021643,-0.691192,0.208600,-0.470090,-29.609524,-84.976081,40.699558
01557,217559,9.119677,0.610617,1.036033,-0.045427,-0.189654,0.015791,-0.689275,0.208375,-0.466091,-30.344969,-85.066332,41.412059
01558,217659,8.830533,0.701369,1.017132,-0.077082,-0.165910,0.009278,-0.694260,0.205963,-0.466220,-31.004502,-85.146032,42.030076
01559,217759,8.607870,0.689071,0.893963,-0.113052,-0.138542,-0.000552,-0.691720,0.207539,-0.468642,-31.549784,-85.214706,42.512688
01560,217859,8.407770,0.495290,0.699490,-0.140957,-0.112111,-0.012894,-0.695704,0.208100,-0.468617,-31.955812,-85.273898,42.839476
01561,217959,8.314567,0.209952,0.516903,-0.150931,-0.109916,-0.017481,-0.694717,0.208061,-0.468117,-32.341110,-85.333246,43.139703
01562,218059,8.442682,-0.172932,0.449176,-0.143739,-0.126071,-0.015038,-0.694829,0.207771,-0.462119,-32.807740,-85.399461,43.525634
01563,218159,8.653818,-0.442674,0.456836,-0.130824,-0.157057,-0.007764,-0.694790,0.208864,-0.464068,-33.446487,-85.477960,44.091614
01564,218259,8.934542,-0.589107,0.503652,-0.113477,-0.191891,0.001091,-0.696821,0.208301,-0.462095,-34.295021,-85.569604,44.877926
01565,218359,9.143434,-0.611670,0.556618,-0.098908,-0.208790,0.011540,-0.696316,0.206823,-0.462671,-35.307615,-85.664763,45.837050
01566,218459,9.218484,-0.489614,0.572690,-0.087837,-0.214869,0.018087,-0.695877,0.210134,-0.458994,-36.426279,-85.759158,46.908784
01567,218559,9.128937,-0.242676,0.571013,-0.077589,-0.220971,0.022687,-0.697849,0.211210,-0.459943,-37.646463,-85.853097,48.088066
01568,218659,8.961532,-0.001553,0.552634,-0.071481,-0.218738,0.013428,-0.696933,0.208012,-0.456097,-38.848225,-85.947474,49.252245
01569,218759,8.841269,0.224244,0.536960,-0.060419,-0.215944,0.002230,-0.696908,0.211050,-0.456944,-40.013124,-86.042959,50.385689
01570,218859,8.795136,0.358964,0.644814,-0.047535,-0.215449,-0.005847,-0.697942,0.206011,-0.455699,-41.171942,-86.139623,51.520305
01571,218959,8.842010,0.327643,0.787042,-0.023871,-0.202358,-0.012717,-0.699933,0.206541,-0.455674,-42.253892,-86.231776,52.591343
01572,219059,8.975999,0.269601,0.921350,0.007257,-0.172727,-0.011015,-0.698985,0.210865,-0.452447,-43.200893,-86.309514,53.544915
01573,219159,9.097786,0.114839,0.960153,0.045371,-0.136901,-0.005519,-0.698454,0.208462,-0.454573,-43.975962,-86.369259,54.348012
01574,219259,9.270226,-0.092895,1.019233,0.092295,-0.095717,0.003642,-0.698972,0.207425,-0.453624,-44.544246,-86.407816,54.970809
01575,219359,9.519804,-0.259879,0.994995,0.138576,-0.057949,0.019957,-0.697011,0.205827,-0.452200,-44.958379,-86.424062,55.465704
01576,219459,9.621644,-0.306153,0.976293,0.163999,-0.022941,0.038568,-0.698524,0.205304,-0.451227,-45.253056,-86.418382,55.855502
01577,219559,9.515828,-0.205011,0.916711,0.166408,0.012296,0.050124,-0.699478,0.202949,-0.453853,-45.389530,-86.393687,56.088176
01578,219659,9.328497,0.014485,0.926369,0.147693,0.039483,0.058333,-0.698977,0.204934,-0.453751,-45.410733,-86.354675,56.194612
01579,219759,9.229637,0.212821,0.945611,0.140683,0.050561,0.061874,-0.697928,0.203070,-0.456851,-45.385877,-86.309757,56.250875
01580,219859,9.195382,0.253738,0.990803,0.150233,0.042818,0.063848,-0.698404,0.205119,-0.457749,-45.415174,-86.267142,56.366890
01581,219959,9.267747,0.160348,1.058752,0.170479,0.037600,0.076058,-0.695943,0.204010,-0.456300,-45.537261,-86.221616,56.587528
01582,220059,9.401062,0.071648,1.205494,0.189503,0.065939,0.097732,-0.697897,0.204637,-0.458275,-45.599971,-86.155816,56.759596
01583,220159,9.533400,0.090540,1.267464,0.186644,0.144889,0.122611,-0.694414,0.202589,-0.458375,-45.335056,-86.048133,56.601656
01584,220259,9.654954,0.196449,1.203637,0.149725,0.236056,0.150311,-0.694889,0.200177,-0.460002,-44.741869,-85.892220,56.093402
01585,220359,9.767954,0.390567,1.036393,0.087335,0.303225,0.174491,-0.694304,0.201881,-0.464424,-43.998390,-85.698704,55.398497
01586,220459,10.050556,0.669360,0.918479,0.028188,0.322267,0.186734,-0.692705,0.203617,-0.469845,-43.319139,-85.491851,54.733840
01587,220559,10.388917,0.923539,0.941152,-0.006222,0.320844,0.187489,-0.691701,0.202629,-0.470395,-42.728056,-85.284773,54.137670
01588,220659,10.766991,0.889372,1.197534,-0.009947,0.323537,0.172062,-0.689584,0.204903,-0.476790,-42.100152,-85.082037,53.502231
01589,220759,11.320770,0.546346,1.633613,0.027033,0.375066,0.154669,-0.690547,0.203022,-0.478891,-41.200138,-84.863162,52.614704
01590,220859,12.045744,-0.089251,2.017151,0.088661,0.484650,0.146858,-0.686988,0.206623,-0.482211,-39.872073,-84.597967,51.332440
01591,220959,12.688106,-0.737176,2.064269,0.149094,0.604693,0.156620,-0.683383,0.205386,-0.488784,-38.247501,-84.272837,49.786438
01592,221059,13.068467,-1.190892,1.960408,0.183600,0.684092,0.173769,-0.681776,0.206150,-0.494756,-36.593203,-83.901399,48.229491
01593,221159,13.590761,-1.283893,1.861757,0.169106,0.738783,0.190676,-0.679177,0.204406,-0.500854,-35.043294,-83.494507,46.768089
01594,221259,14.488253,-1.234361,1.480869,0.121680,0.811393,0.222622,-0.675074,0.208618,-0.506647,-33.633231,-83.038919,45.418891
01595,221359,15.025841,-1.135298,0.609498,0.082013,0.829677,0.253942,-0.674471,0.209871,-0.512094,-32.488370,-82.561387,44.312752
01596,221459,14.395800,-0.693289,-0.914198,0.034905,0.711573,0.253161,-0.672883,0.210587,-0.517066,-31.759507,-82.139308,43.597972
01597,221559,13.013657,-0.201128,-2.055925,-0.034898,0.462220,0.207755,-0.671301,0.212773,-0.521462,-31.503981,-81.851866,43.320179
01598,221659,11.916835,-0.085586,-2.082730,-0.086632,0.195868,0.138347,-0.671297,0.215264,-0.521335,-31.606724,-81.715367,43.374266
01599,221759,10.878570,-0.193993,-1.650032,-0.069181,-0.013841,0.078943,-0.670829,0.214187,-0.519887,-31.931296,-81.699024,43.662632
01600,221859,9.627755,-0.291796,-1.079443,-0.044084,-0.175537,0.035147,-0.672307,0.217723,-0.520209,-32.435506,-81.774237,44.147021
01601,221959,8.267718,-0.419706,-0.607386,-0.032028,-0.344172,-0.004166,-0.674367,0.216091,-0.516787,-33.179588,-81.942151,44.880547
01602,222059,7.133865,-0.675582,0.081434,-0.016497,-0.501374,-0.046872,-0.676428,0.214460,-0.513365,-34.164993,-82.197018,45.866321
01603,222159,6.444759,-1.031151,0.719706,0.033929,-0.563720,-0.085620,-0.676007,0.212764,-0.509443,-35.205932,-82.491424,46.936630
01604,222259,6.045914,-1.315173,1.077196,0.120609,-0.522862,-0.105065,-0.685009,0.213806,-0.507396,-36.101976,-82.770798,47.910206
01605,222359,5.904283,-1.558374,1.066748,0.227473,-0.402609,-0.109743,-0.685031,0.211765,-0.506498,-36.655182,-82.994625,48.599445
01606,222459,6.044456,-1.733929,0.868750,0.331538,-0.247187,-0.102680,-0.689048,0.209265,-0.505127,-36.767149,-83.144088,48.903984
01607,222559,6.757297,-1.762700,0.677431,0.409732,-0.061892,-0.080531,-0.688505,0.208381,-0.507676,-36.393139,-83.200775,48.764132
01608,222659,7.670550,-1.707680,0.493049,0.441493,0.119933,-0.054284,-0.687518,0.202885,-0.507955,-35.585972,-83.164127,48.206369
01609,222759,8.400474,-1.573915,0.382573,0.410499,0.232250,-0.021583,-0.685972,0.201013,-0.511055,-34.627757,-83.063022,47.478492
01610,222859,9.218407,-1.394193,0.433633,0.339177,0.269852,0.019708,-0.686450,0.201567,-0.512030,-33.796541,-82.929439,46.837216
01611,222959,10.273768,-1.122852,0.503712,0.262760,0.275428,0.082838,-0.684872,0.196802,-0.517281,-33.261470,-82.772293,46.450075
01612,223059,11.213965,-0.672924,0.268946,0.179960,0.268708,0.140423,-0.681354,0.198812,-0.518678,-33.022635,-82.600036,46.313627
01613,223159,11.908560,-0.397552,-0.151172,0.115614,0.260132,0.175130,-0.680812,0.197430,-0.521253,-32.974491,-82.421078,46.332267
01614,223259,11.909108,-0.263936,-0.511942,0.053298,0.227727,0.165851,-0.681317,0.198410,-0.520703,-33.003998,-82.260655,46.393234
01615,223359,11.335614,-0.291056,-0.508638,-0.032723,0.149076,0.107191,-0.680782,0.198498,-0.522702,-33.054639,-82.156389,46.425800
01616,223459,10.762323,-0.376695,-0.094626,-0.109702,0.056271,0.035970,-0.682272,0.201013,-0.522575,-33.111053,-82.118990,46.419673
01617,223559,9.903852,-0.548484,0.456637,-0.138819,-0.035032,-0.030930,-0.681808,0.202404,-0.520500,-33.158589,-82.146365,46.387738
01618,223659,9.451581,-0.747471,1.019683,-0.141124,-0.099137,-0.059073,-0.680803,0.202412,-0.520999,-33.255724,-82.213298,46.404541
01619,223759,9.139016,-0.812057,1.383576,-0.140491,-0.140436,-0.067182,-0.680844,0.205281,-0.518348,-33.420844,-82.302519,46.490318
01620,223859,8.774761,-0.843797,1.562276,-0.126986,-0.172637,-0.081292,-0.683400,0.204654,-0.514875,-33.606990,-82.411516,46.605100
01621,223959,8.474579,-0.825067,1.679494,-0.095617,-0.183501,-0.095232,-0.684381,0.203223,-0.515951,-33.755037,-82.530034,46.699554
01622,224059,8.203277,-0.793680,1.661158,-0.056288,-0.168786,-0.105837,-0.684426,0.204099,-0.513402,-33.808694,-82.644859,46.721522
01623,224159,8.024642,-0.719210,1.581557,-0.027621,-0.137296,-0.112081,-0.684429,0.202106,-0.513503,-33.744605,-82.746637,46.641340
01624,224259,7.916767,-0.697100,1.450763,-0.016417,-0.114114,-0.120771,-0.684521,0.202363,-0.508480,-33.580317,-82.840064,46.466651
01625,224359,8.034399,-0.759957,1.366663,-0.020890,-0.094606,-0.126340,-0.684975,0.201495,-0.511030,-33.343036,-82.925816,46.215857
01626,224459,8.245032,-0.855214,1.275818,-0.039075,-0.077943,-0.118405,-0.688422,0.203142,-0.512954,-33.098811,-83.000927,45.947613
01627,224559,8.495090,-0.920856,1.222357,-0.062806,-0.086436,-0.102951,-0.685428,0.200627,-0.513580,-32.945701,-83.075148,45.757509
01628,224659,8.767709,-1.020857,1.232398,-0.091658,-0.097124,-0.086011,-0.686961,0.199558,-0.511632,-32.901049,-83.149165,45.660031
01629,224759,9.032831,-1.153545,1.223047,-0.113169,-0.098479,-0.066352,-0.690974,0.199549,-0.510134,-32.950430,-83.217679,45.644859
01630,224859,9.170154,-1.231089,1.250293,-0.133009,-0.115202,-0.042959,-0.691461,0.200577,-0.510583,-33.151502,-83.286885,45.770994
01631,224959,9.162033,-1.254752,1.367250,-0.146473,-0.128600,-0.025651,-0.689497,0.200474,-0.509083,-33.471155,-83.356955,46.008737
01632,225059,9.097378,-1.192900,1.493221,-0.150441,-0.131386,-0.016600,-0.688556,0.200313,-0.506083,-33.844149,-83.425270,46.297858
01633,225159,8.956115,-1.074901,1.695692,-0.153192,-0.125936,-0.015717,-0.691522,0.202900,-0.506957,-34.213903,-83.490452,46.582094
01634,225259,8.791967,-1.033861,1.787995,-0.149515,-0.120214,-0.024905,-0.694054,0.200352,-0.505085,-34.533213,-83.555658,46.817648
01635,225359,8.642252,-1.010380,1.860099,-0.140737,-0.123459,-0.034556,-0.691597,0.202209,-0.502984,-34.821889,-83.625349,47.027410
01636,225459,8.543101,-1.001562,1.889213,-0.135518,-0.137990,-0.047868,-0.697083,0.198808,-0.503163,-35.099730,-83.706068,47.229251
01637,225559,8.508136,-0.971012,1.919929,-0.129009,-0.148007,-0.056972,-0.696097,0.198271,-0.502689,-35.371311,-83.794327,47.428517
01638,225659,8.521965,-0.933086,1.970070,-0.118284,-0.148080,-0.062693,-0.696135,0.197676,-0.500715,-35.618688,-83.884376,47.609589
01639,225759,8.624107,-0.890216,1.992187,-0.106714,-0.135568,-0.062947,-0.694653,0.196133,-0.500291,-35.824771,-83.968565,47.755773
01640,225859,8.762249,-0.856427,1.889556,-0.097326,-0.110231,-0.064495,-0.697706,0.196012,-0.496793,-35.941628,-84.041424,47.817633
01641,225959,8.908071,-0.845336,1.693074,-0.086783,-0.093232,-0.069813,-0.699152,0.197651,-0.499217,-35.975108,-84.108146,47.801734
01642,226059,9.041825,-0.897401,1.543050,-0.081138,-0.095992,-0.074282,-0.699179,0.192621,-0.498471,-35.994255,-84.177621,47.774684
01643,226159,9.204696,-0.982808,1.489985,-0.073637,-0.101692,-0.085159,-0.699189,0.192098,-0.497997,-35.977916,-84.253370,47.716290
01644,226259,9.486393,-1.090037,1.538518,-0.067173,-0.097025,-0.086460,-0.700650,0.195184,-0.499344,-35.934965,-84.327356,47.634885
