PacketCounter,SampleTimeFine,Acc_X,Acc_Y,Acc_Z,Gyr_X,Gyr_Y,Gyr_Z,Mag_X,Mag_Y,Mag_Z,Roll,Pitch,Yaw
00924,329799,0.097520,-0.012841,9.848434,-0.000258,0.000582,0.002346,0.902923,-0.542103,-0.610297,-0.175207,-0.537998,0.000000
00925,329899,0.101247,-0.009896,9.833290,0.002524,0.002623,0.001400,0.901947,-0.546001,-0.612000,-0.174328,-0.536947,0.001004
00926,329999,0.090236,-0.018341,9.827621,0.000986,0.001922,0.002176,0.900454,-0.545479,-0.611975,-0.174381,-0.536444,0.002081
00927,330099,0.097859,-0.017342,9.836299,0.001288,0.000712,0.002103,0.901933,-0.543558,-0.610874,-0.174320,-0.536341,0.001924
00928,330199,0.099355,-0.015011,9.829379,0.002750,0.000731,0.002135,0.904938,-0.545052,-0.611949,-0.173383,-0.536085,0.002913
00929,330299,0.102129,-0.024465,9.843171,0.001151,-0.000165,0.001285,0.902493,-0.545390,-0.614474,-0.173543,-0.536955,0.003678
00930,330399,0.095016,-0.024580,9.836281,-0.000329,0.000709,0.002084,0.900455,-0.544981,-0.611950,-0.174387,-0.537145,0.004352
00931,330499,0.103584,-0.024341,9.812117,0.000767,-0.000299,0.000735,0.900936,-0.544040,-0.610900,-0.174582,-0.537717,0.003644
00932,330599,0.099729,-0.020377,9.840781,0.002856,-0.000103,0.002901,0.903444,-0.544530,-0.611924,-0.173632,-0.538078,0.004724
00933,330699,0.093041,-0.009091,9.823400,-0.000018,0.000650,0.000363,0.900943,-0.545012,-0.611450,-0.174242,-0.538180,0.004433
00934,330799,0.088560,-0.005746,9.844131,0.000736,0.000743,0.001578,0.901472,-0.543453,-0.612873,-0.174663,-0.538398,0.004008
00935,330899,0.112498,-0.013813,9.826953,0.000339,0.001085,0.002639,0.901456,-0.542007,-0.611797,-0.175343,-0.538273,0.003219
00936,330999,0.102241,-0.012994,9.802360,0.001112,0.000459,0.002365,0.899486,-0.544892,-0.613450,-0.175488,-0.538916,0.004049
00937,331099,0.101467,-0.001965,9.817113,0.001026,0.003003,0.001672,0.902448,-0.544514,-0.611924,-0.175577,-0.537599,0.004331
00938,331199,0.090175,-0.022376,9.839004,0.000982,-0.000465,0.002474,0.901435,-0.543550,-0.610874,-0.175689,-0.538215,0.004341
00939,331299,0.103475,-0.013741,9.814383,0.002653,0.002039,0.002446,0.899451,-0.543494,-0.611374,-0.174895,-0.537665,0.004203
00940,331399,0.097737,-0.025357,9.823341,0.000976,0.001259,0.002641,0.901453,-0.544000,-0.611899,-0.175062,-0.537443,0.004646
00941,331499,0.088820,-0.020631,9.832944,0.001928,0.001984,0.002205,0.901933,-0.543558,-0.610874,-0.174632,-0.536616,0.004515
00942,331599,0.074290,-0.013404,9.828103,0.001238,0.000498,0.001561,0.902480,-0.541950,-0.613296,-0.174916,-0.536955,0.003240
00943,331699,0.088845,-0.009893,9.817165,0.002475,0.000513,0.002074,0.902430,-0.544064,-0.610899,-0.174131,-0.536924,0.003352
00944,331799,0.096459,-0.025638,9.833307,0.001185,0.001425,0.001234,0.900459,-0.547946,-0.612602,-0.173918,-0.536779,0.005351
00945,331899,0.109818,-0.044356,9.833844,0.001646,0.002372,0.002121,0.902448,-0.544514,-0.611924,-0.173662,-0.535831,0.005851
00946,331999,0.099288,-0.025356,9.824360,0.001343,0.000389,0.001114,0.903503,-0.542891,-0.614846,-0.173934,-0.536359,0.005080
00947,332099,0.081224,-0.024364,9.815574,0.002004,0.001069,0.002270,0.901969,-0.543960,-0.612899,-0.173597,-0.536348,0.005375
00948,332199,0.079259,-0.027690,9.805906,0.000538,0.000059,0.000631,0.900514,-0.542843,-0.614847,-0.174337,-0.537345,0.004129
00949,332299,0.092387,-0.016014,9.828097,0.002356,0.001456,0.001459,0.901944,-0.542537,-0.611323,-0.173776,-0.536897,0.002992
00950,332399,0.110635,-0.004501,9.837228,0.000625,-0.000303,0.002960,0.901940,-0.544530,-0.611424,-0.174063,-0.537452,0.003908
00951,332499,0.094025,-0.029181,9.832180,0.001997,0.000015,0.002653,0.899470,-0.543446,-0.612374,-0.173734,-0.538203,0.003975
00952,332599,0.107122,-0.012754,9.812433,0.000426,0.001073,0.003335,0.902522,-0.544819,-0.615948,-0.174481,-0.538561,0.005624
00953,332699,0.098965,-0.019016,9.814888,0.001924,0.000039,0.002168,0.901497,-0.544876,-0.614449,-0.174239,-0.539391,0.006486
00954,332799,0.091175,-0.018171,9.825213,0.000689,0.003202,0.003036,0.902450,-0.543517,-0.611873,-0.174606,-0.537959,0.006877
00955,332899,0.099535,-0.024366,9.830505,0.002465,0.000457,0.003767,0.900966,-0.542473,-0.612323,-0.174083,-0.538312,0.007025
00956,332999,0.098801,-0.013263,9.817756,0.000217,0.000972,0.000300,0.899966,-0.544451,-0.612425,-0.174685,-0.538468,0.006355
00957,333099,0.105095,-0.025098,9.838355,-0.000433,0.001443,0.002800,0.899417,-0.542096,-0.609299,-0.175604,-0.537971,0.005461
00958,333199,0.098012,-0.011040,9.833934,0.001916,0.003678,0.000806,0.899969,-0.542956,-0.612349,-0.175346,-0.536581,0.004241
00959,333299,0.101249,-0.000527,9.827966,0.001067,0.001854,0.001960,0.900459,-0.542490,-0.611823,-0.175571,-0.536120,0.003390
00960,333399,0.093548,-0.026217,9.842343,0.000570,0.001589,0.002203,0.901487,-0.545398,-0.613975,-0.176027,-0.535996,0.004534
00961,333499,0.084721,-0.019711,9.822851,-0.000348,-0.000105,0.001776,0.903462,-0.544980,-0.612949,-0.176946,-0.536513,0.005101
00962,333599,0.100679,-0.013169,9.834206,0.001301,0.000218,0.002126,0.902465,-0.545462,-0.612974,-0.176890,-0.536937,0.006159
00963,333699,0.107233,-0.006482,9.840555,0.001186,0.001363,0.002799,0.901490,-0.543904,-0.613899,-0.177102,-0.536938,0.006768
00964,333799,0.098378,-0.011130,9.834850,0.001694,-0.000006,0.002788,0.902988,-0.541934,-0.613796,-0.177159,-0.537584,0.006241
00965,333899,0.094108,-0.021675,9.817094,0.000471,0.000749,0.003233,0.902477,-0.543943,-0.613398,-0.177733,-0.537769,0.007080
00966,333999,0.093244,-0.025841,9.839249,0.001412,-0.000089,0.000850,0.902942,-0.546515,-0.612025,-0.177444,-0.538179,0.007898
00967,334099,0.103666,-0.004231,9.821905,0.000140,0.001554,0.000625,0.901475,-0.546917,-0.613551,-0.177980,-0.537996,0.008949
00968,334199,0.101296,-0.022283,9.816260,0.000468,0.001260,0.002898,0.899948,-0.544499,-0.611425,-0.178362,-0.537838,0.009684
00969,334299,0.099354,-0.017600,9.832942,0.000650,-0.000587,0.002399,0.899968,-0.543454,-0.612374,-0.178790,-0.538876,0.009609
00970,334399,0.105927,-0.014411,9.832823,0.000756,0.000283,0.000647,0.902972,-0.545446,-0.613474,-0.179071,-0.539279,0.009883
00971,334499,0.105060,-0.034097,9.825504,0.001539,0.000340,0.001693,0.901967,-0.545454,-0.612975,-0.178873,-0.539669,0.010693
00972,334599,0.094701,-0.019508,9.818472,0.003063,0.002514,0.002078,0.902423,-0.543091,-0.610348,-0.177777,-0.538426,0.010142
00973,334699,0.104783,-0.022274,9.828091,0.001485,0.000393,0.002681,0.900983,-0.543422,-0.613373,-0.177807,-0.538952,0.010320
00974,334799,0.104792,-0.002349,9.821481,-0.000367,0.000823,0.001645,0.902436,-0.546033,-0.611501,-0.178539,-0.538813,0.011310
00975,334899,0.091041,0.003211,9.844572,0.003124,0.002414,0.001192,0.902985,-0.543429,-0.613873,-0.177652,-0.538074,0.010783
00976,334999,0.105918,-0.016370,9.826661,0.001689,0.000836,0.003716,0.902494,-0.544394,-0.614423,-0.177573,-0.538347,0.012273
00977,335099,0.094328,-0.009804,9.814197,0.001968,-0.000560,0.000708,0.903951,-0.544514,-0.612423,-0.177145,-0.539009,0.012031
00978,335199,0.110544,-0.025290,9.828169,0.000620,0.001059,0.001451,0.902963,-0.545470,-0.612974,-0.177468,-0.538903,0.012759
00979,335299,0.104684,-0.031578,9.822459,0.000760,0.001076,0.002484,0.898474,-0.543430,-0.612374,-0.177835,-0.539129,0.012520
00980,335399,0.098123,-0.019421,9.830141,0.001197,0.000445,0.001785,0.900463,-0.545455,-0.612475,-0.177799,-0.539531,0.013223
00981,335499,0.089305,-0.005830,9.833974,0.001342,0.000380,0.002687,0.900975,-0.542947,-0.612848,-0.177898,-0.539993,0.013052
00982,335599,0.083814,-0.028330,9.835596,0.001222,0.001612,0.001798,0.900959,-0.541501,-0.611772,-0.178085,-0.539615,0.011447
00983,335699,0.104399,-0.016982,9.815466,0.000605,-0.000147,0.001035,0.900973,-0.543944,-0.612899,-0.178526,-0.540379,0.010943
00984,335799,0.102521,-0.011143,9.815545,0.000565,0.001792,0.001387,0.899500,-0.542377,-0.613823,-0.179184,-0.540306,0.009788
00985,335899,0.092929,-0.023636,9.825624,0.002150,0.002565,0.001950,0.903459,-0.546475,-0.613025,-0.178556,-0.539288,0.011298
00986,335999,0.085727,-0.018051,9.815467,0.002012,0.000295,0.000873,0.901427,-0.542578,-0.610323,-0.178087,-0.539417,0.009702
00987,336099,0.106219,-0.002750,9.821351,0.001293,0.002953,0.001152,0.900990,-0.544892,-0.613949,-0.178145,-0.538547,0.009904
00988,336199,0.097522,-0.014772,9.833915,0.002390,0.000673,-0.000010,0.902477,-0.543943,-0.613398,-0.177589,-0.538784,0.008912
00989,336299,0.092780,-0.032340,9.822382,0.001982,0.001836,0.001225,0.899997,-0.542883,-0.613848,-0.177398,-0.538648,0.007993
00990,336399,0.102423,-0.026475,9.825249,0.000784,0.002701,0.002438,0.900002,-0.545351,-0.614475,-0.177767,-0.538078,0.009223
00991,336499,0.110543,-0.017079,9.826357,0.000694,0.001460,0.000490,0.903943,-0.544039,-0.611898,-0.178055,-0.537529,0.008483
00992,336599,0.114227,-0.019742,9.838557,0.000707,0.000221,0.000689,0.900475,-0.543936,-0.612899,-0.178434,-0.538138,0.007787
00993,336699,0.097355,-0.017225,9.821582,0.000885,0.000555,0.001359,0.900976,-0.542449,-0.612823,-0.178814,-0.538511,0.006657
00994,336799,0.095568,-0.007679,9.822792,0.000828,0.001020,0.001190,0.899487,-0.544394,-0.613424,-0.179135,-0.538815,0.006562
00995,336899,0.099505,-0.005657,9.837425,0.001350,0.001199,0.001868,0.900967,-0.541975,-0.612297,-0.179241,-0.538751,0.005418
00996,336999,0.111055,-0.033319,9.832258,0.001102,0.001452,0.000604,0.900455,-0.544981,-0.611950,-0.179237,-0.538517,0.005207
00997,337099,0.102273,-0.021263,9.832597,0.001066,0.000527,0.001972,0.899462,-0.542972,-0.611849,-0.179404,-0.538901,0.004650
00998,337199,0.096164,-0.011222,9.836723,0.001756,0.002716,0.001874,0.900465,-0.544458,-0.612425,-0.179109,-0.538011,0.004930
00999,337299,0.097599,-0.011247,9.846890,0.001486,0.000432,0.002700,0.900974,-0.543446,-0.612873,-0.179079,-0.538451,0.005160
01000,337399,0.094124,-0.022023,9.825790,0.001739,0.000434,0.002535,0.899963,-0.546443,-0.612526,-0.178665,-0.538904,0.006927
01001,337499,0.092104,-0.016789,9.817393,0.001491,0.001637,0.000475,0.901989,-0.542915,-0.613847,-0.178729,-0.538705,0.005669
01002,337599,0.093679,-0.021051,9.844626,0.000306,0.001846,0.002787,0.902449,-0.544016,-0.611899,-0.179252,-0.538068,0.006153
01003,337699,0.087378,-0.004205,9.847654,-0.000990,0.001492,0.003526,0.902023,-0.544811,-0.615948,-0.180779,-0.538207,0.007906
01004,337799,0.099466,-0.026846,9.835369,0.001587,-0.000199,0.001531,0.901441,-0.545020,-0.611450,-0.180456,-0.538758,0.008185
01005,337899,0.090955,-0.024353,9.825566,0.002844,0.004038,0.001815,0.899963,-0.546443,-0.612526,-0.179408,-0.537149,0.009503
01006,337999,0.110770,-0.010214,9.811563,0.001046,0.001566,0.002147,0.901472,-0.543453,-0.612873,-0.179625,-0.536899,0.009388
01007,338099,0.100651,-0.005763,9.833665,0.001491,0.002613,0.001316,0.900513,-0.543341,-0.614873,-0.179748,-0.536409,0.008923
01008,338199,0.084982,-0.009331,9.852148,0.000443,0.002591,0.002383,0.901490,-0.543405,-0.613873,-0.180391,-0.535708,0.009024
01009,338299,0.107062,-0.006576,9.834665,0.001555,0.000490,0.000884,0.900462,-0.545953,-0.612501,-0.180105,-0.536094,0.009548
01010,338399,0.088040,-0.032727,9.839065,0.001992,0.001730,0.002147,0.902900,-0.544642,-0.609425,-0.179424,-0.535155,0.009783
01011,338499,0.077280,-0.012649,9.844721,0.000598,0.002489,0.002571,0.903947,-0.541548,-0.611771,-0.179939,-0.534038,0.008785
01012,338599,0.102239,-0.011093,9.823746,0.001823,0.000145,0.001448,0.901490,-0.543405,-0.613873,-0.179786,-0.534744,0.008364
01013,338699,0.096078,-0.023468,9.833414,0.001922,0.001782,0.002113,0.900033,-0.543285,-0.615873,-0.179751,-0.534905,0.008462
01014,338799,0.108819,-0.011946,9.836663,0.000252,0.002442,0.003185,0.900511,-0.544836,-0.614949,-0.180494,-0.534506,0.009927
01015,338899,0.110204,-0.026053,9.830416,0.000871,0.001312,0.001688,0.901461,-0.544474,-0.612424,-0.180701,-0.534341,0.010074
01016,338999,0.097373,-0.021940,9.823443,0.001359,0.003586,0.001517,0.900485,-0.543414,-0.613373,-0.180780,-0.533100,0.009627
01017,339099,0.096784,-0.021708,9.818924,0.002687,0.000403,0.002306,0.902439,-0.544538,-0.611424,-0.179864,-0.533240,0.010056
01018,339199,0.102316,-0.010417,9.830965,0.002231,0.002330,0.000543,0.900971,-0.544940,-0.612950,-0.179299,-0.532610,0.009852
01019,339299,0.098048,0.001620,9.833433,0.001194,0.002589,0.000870,0.899507,-0.543350,-0.614373,-0.179554,-0.532165,0.009099
01020,339399,0.094690,-0.028398,9.833945,0.002623,0.000794,0.001193,0.899489,-0.543398,-0.613374,-0.178914,-0.532614,0.008467
01021,339499,0.094106,-0.002935,9.829516,0.000932,0.001532,0.000641,0.901454,-0.543003,-0.611848,-0.179137,-0.532275,0.007145
01022,339599,0.113717,0.004710,9.820903,0.001616,0.001519,0.001473,0.900472,-0.545431,-0.612975,-0.178896,-0.532153,0.007777
01023,339699,0.096381,-0.042294,9.826924,0.001622,0.001932,0.001708,0.900004,-0.544354,-0.614424,-0.178842,-0.532037,0.008100
01024,339799,0.086220,-0.016187,9.826976,0.001503,0.000436,0.002241,0.901502,-0.542385,-0.614322,-0.178977,-0.532654,0.007612
01025,339899,0.083391,-0.017264,9.815509,0.000814,0.000996,0.002712,0.899997,-0.542883,-0.613848,-0.179447,-0.533007,0.007645
01026,339999,0.114853,-0.014103,9.811695,0.001850,0.002165,0.002647,0.902493,-0.545390,-0.614474,-0.179185,-0.532535,0.009042
01027,340099,0.088986,-0.025127,9.829873,0.003093,0.000309,0.002494,0.902459,-0.543493,-0.612373,-0.178181,-0.532873,0.009082
01028,340199,0.096740,-0.012644,9.820348,0.001440,-0.000403,0.001543,0.899438,-0.546009,-0.611002,-0.177860,-0.533667,0.009855
01029,340299,0.095945,-0.018619,9.831161,0.002231,0.001226,0.002416,0.899451,-0.543494,-0.611374,-0.177290,-0.533603,0.009753
01030,340399,0.092127,-0.037281,9.832461,0.001636,0.001399,0.002032,0.900488,-0.541919,-0.613297,-0.177308,-0.533622,0.008765
01031,340499,0.092429,-0.007122,9.832270,-0.000195,0.003144,0.002485,0.900026,-0.542313,-0.615322,-0.178508,-0.532939,0.008527
01032,340599,0.100237,-0.024759,9.824581,0.001722,0.001818,0.000674,0.900013,-0.544330,-0.614924,-0.178433,-0.532947,0.008343
01033,340699,0.091734,-0.030290,9.838951,0.002835,0.000303,0.002470,0.901952,-0.543011,-0.611848,-0.177572,-0.533269,0.008028
01034,340799,0.087900,-0.024031,9.838766,0.001607,0.000953,0.000874,0.902466,-0.544964,-0.612949,-0.177355,-0.533300,0.007972
01035,340899,0.102269,-0.008780,9.839232,0.001954,0.002313,0.002892,0.900006,-0.542859,-0.614348,-0.177215,-0.532961,0.008177
01036,340999,0.094115,-0.016972,9.820879,0.000938,0.000614,0.002393,0.901501,-0.542883,-0.614347,-0.177642,-0.533470,0.008054
01037,341099,0.104527,-0.015683,9.822304,0.000353,0.001481,0.001681,0.901518,-0.543831,-0.615398,-0.178415,-0.533605,0.008165
01038,341199,0.091780,-0.023377,9.836918,0.000375,-0.001115,0.001454,0.899962,-0.541983,-0.611798,-0.179030,-0.534907,0.006810
01039,341299,0.087606,-0.015556,9.821868,0.002948,-0.000601,0.002204,0.901414,-0.544595,-0.609925,-0.177846,-0.535519,0.007003
01040,341399,0.102706,-0.027492,9.830154,0.000442,0.001073,0.001201,0.901968,-0.544458,-0.612924,-0.178328,-0.535519,0.006860
01041,341499,0.101469,-0.025761,9.830833,0.000882,0.000763,0.002655,0.900964,-0.543968,-0.612399,-0.178565,-0.535712,0.007291
01042,341599,0.109797,-0.008593,9.833988,0.002391,0.003889,0.003622,0.901983,-0.541444,-0.613271,-0.178172,-0.534176,0.006941
01043,341699,0.098298,-0.019281,9.828849,0.001258,0.002337,0.002888,0.900017,-0.542337,-0.614822,-0.178501,-0.533881,0.007016
01044,341799,0.095102,-0.031837,9.834654,0.000337,0.001997,0.002134,0.902478,-0.543445,-0.613373,-0.179148,-0.533382,0.006858
01045,341899,0.101969,-0.019170,9.807825,0.001696,0.000408,0.002391,0.903019,-0.545326,-0.615973,-0.179089,-0.534060,0.008087
01046,341999,0.101896,-0.018035,9.827168,0.001862,0.002030,0.001692,0.901916,-0.542609,-0.609823,-0.178645,-0.533146,0.006852
01047,342099,0.088425,-0.010142,9.837885,0.001531,0.002036,0.002003,0.901472,-0.543453,-0.612873,-0.178577,-0.532646,0.006660
01048,342199,0.101091,-0.010844,9.834480,-0.000735,0.000337,0.003127,0.903933,-0.544562,-0.611424,-0.179603,-0.532720,0.007251
01049,342299,0.103608,-0.029844,9.850699,0.001604,-0.000551,0.003281,0.899030,-0.542297,-0.615322,-0.179785,-0.534217,0.007756
01050,342399,0.104767,-0.030312,9.826816,0.001176,0.000971,0.002082,0.902954,-0.545494,-0.612475,-0.179739,-0.534128,0.008427
01051,342499,0.104522,-0.011279,9.818256,0.000598,0.000974,0.002000,0.900972,-0.544442,-0.612924,-0.180145,-0.534266,0.008785
01052,342599,0.093724,-0.016755,9.830576,0.000853,0.000201,0.001566,0.902948,-0.543525,-0.611873,-0.180362,-0.534565,0.008098
01053,342699,0.081993,-0.011327,9.830886,0.001544,0.000588,0.001576,0.902439,-0.544538,-0.611424,-0.180086,-0.534615,0.007919
01054,342799,0.103659,-0.037739,9.858395,0.000315,0.001800,0.001995,0.898986,-0.545881,-0.613501,-0.180621,-0.534494,0.009283
01055,342899,0.101016,-0.026054,9.817285,0.001356,0.001853,0.003630,0.900481,-0.545905,-0.613500,-0.180555,-0.534220,0.011423
01056,342999,0.099432,-0.028594,9.822322,0.001683,0.000736,0.001588,0.904452,-0.543027,-0.612347,-0.180356,-0.534157,0.010442
01057,343099,0.107385,-0.007393,9.832753,0.002055,0.001907,0.002305,0.900480,-0.546403,-0.613526,-0.179854,-0.533854,0.012062
01058,343199,0.109019,-0.019953,9.840822,0.000198,0.000317,0.001946,0.902457,-0.544490,-0.612424,-0.180435,-0.534186,0.012211
01059,343299,0.106367,-0.016319,9.813965,0.002470,0.001517,0.002164,0.903943,-0.544039,-0.611898,-0.179693,-0.533651,0.012078
01060,343399,0.094317,-0.019458,9.839285,0.002744,0.000874,0.001228,0.900449,-0.543012,-0.611349,-0.178844,-0.533712,0.011070
01061,343499,0.077321,-0.014621,9.838427,0.000997,0.001776,0.002526,0.901481,-0.543429,-0.613373,-0.179121,-0.533421,0.011199
01062,343599,0.101651,-0.007367,9.837825,0.002200,0.000709,0.001612,0.899966,-0.544451,-0.612425,-0.178578,-0.533733,0.011331
01063,343699,0.099816,-0.017675,9.830356,0.000832,0.000323,0.002615,0.904954,-0.546000,-0.612999,-0.178725,-0.533920,0.012450
01064,343799,0.108161,-0.022561,9.848298,0.002067,0.001758,0.002454,0.900494,-0.543888,-0.613899,-0.178407,-0.533779,0.012896
01065,343899,0.107377,-0.017665,9.826928,0.001531,-0.000101,0.002868,0.902457,-0.544490,-0.612424,-0.178230,-0.534353,0.013541
01066,343999,0.076660,-0.042536,9.818406,0.000950,0.002736,0.002317,0.900486,-0.542915,-0.613348,-0.178574,-0.533594,0.013344
01067,344099,0.099665,-0.025239,9.829659,0.000574,0.001448,0.002252,0.901021,-0.543325,-0.615372,-0.179255,-0.533777,0.013547
01068,344199,0.104234,-0.011813,9.841866,0.002225,0.001997,0.002168,0.904436,-0.547037,-0.612051,-0.178472,-0.532920,0.014827
01069,344299,0.083394,-0.025331,9.819658,0.001615,0.003727,0.002816,0.898974,-0.542442,-0.612324,-0.178405,-0.531595,0.014635
01070,344399,0.099779,-0.017893,9.816671,0.000883,0.001916,0.002128,0.898472,-0.544427,-0.612425,-0.178641,-0.531338,0.015136
01071,344499,0.100418,-0.023409,9.818090,0.001418,0.000692,0.001187,0.902505,-0.543871,-0.614897,-0.178751,-0.531778,0.014817
01072,344599,0.098513,-0.046068,9.817965,0.000756,0.001116,0.001573,0.901963,-0.542489,-0.612323,-0.179140,-0.531713,0.013738
01073,344699,0.097019,-0.015464,9.835810,0.000956,0.000961,0.003064,0.902998,-0.541412,-0.614271,-0.179628,-0.531906,0.013154
01074,344799,0.081982,-0.011163,9.814579,0.001257,0.001906,0.002273,0.903445,-0.544032,-0.611898,-0.179588,-0.531202,0.013030
01075,344899,0.083364,-0.016448,9.815615,0.001517,-0.000622,0.001155,0.901951,-0.544008,-0.611899,-0.179407,-0.532064,0.012409
01076,344999,0.093289,-0.029441,9.803628,0.000712,-0.001863,0.002095,0.901487,-0.545398,-0.613975,-0.179766,-0.533904,0.013314
01077,345099,0.099893,-0.017097,9.812284,0.002536,0.001168,0.002683,0.903425,-0.545076,-0.610950,-0.178856,-0.533490,0.013792
01078,345199,0.108167,-0.005292,9.834201,0.004051,0.001034,0.002105,0.900989,-0.545390,-0.613975,-0.177308,-0.533713,0.014723
01079,345299,0.094239,-0.018792,9.831697,0.001392,0.000394,0.002282,0.902992,-0.544402,-0.614423,-0.177363,-0.534213,0.015164
01080,345399,0.103952,-0.010173,9.817147,0.000155,-0.000029,0.001069,0.902475,-0.544940,-0.613449,-0.178013,-0.534869,0.015087
01081,345499,0.104773,-0.019696,9.819722,0.001414,0.000115,0.001854,0.899947,-0.544997,-0.611451,-0.177815,-0.535391,0.015421
01082,345599,0.103308,-0.024000,9.829016,0.003600,0.001417,0.002687,0.902456,-0.545486,-0.612475,-0.176396,-0.535093,0.016392
01083,345699,0.089238,-0.013566,9.819675,0.001716,0.001735,0.001973,0.900491,-0.545382,-0.613975,-0.176190,-0.534952,0.017252
01084,345799,0.109250,-0.011891,9.825092,0.000860,-0.000982,0.000901,0.899484,-0.545889,-0.613501,-0.176408,-0.536381,0.017745
01085,345899,0.097205,-0.017736,9.829308,-0.000168,0.002271,0.002651,0.901933,-0.543558,-0.610874,-0.177151,-0.535459,0.017597
01086,345999,0.082398,-0.030151,9.832008,0.001411,0.002411,0.001222,0.901961,-0.543485,-0.612373,-0.177100,-0.534644,0.016799
01087,346099,0.108901,-0.013682,9.802128,0.002260,0.001745,0.000733,0.902964,-0.544972,-0.612949,-0.176501,-0.534189,0.016452
01088,346199,0.097195,-0.004899,9.833456,0.002340,0.001735,0.001679,0.901472,-0.543453,-0.612873,-0.175963,-0.533865,0.016007
01089,346299,0.087603,-0.027609,9.807820,-0.000245,0.001527,0.000690,0.903951,-0.544514,-0.612423,-0.176779,-0.533403,0.015287
01090,346399,0.101017,-0.022442,9.829635,0.000986,0.000386,0.002697,0.902965,-0.544474,-0.612924,-0.176948,-0.533728,0.015832
01091,346499,0.090909,-0.022224,9.831644,0.001055,0.001458,0.002930,0.902496,-0.543397,-0.614372,-0.177258,-0.533663,0.016233
01092,346599,0.106360,-0.005859,9.833508,0.000520,-0.000758,0.003181,0.900964,-0.543968,-0.612399,-0.177704,-0.534736,0.016865
01093,346699,0.095162,-0.011793,9.822846,0.002015,0.001754,0.002568,0.903454,-0.544008,-0.612398,-0.177266,-0.534181,0.016991
01094,346799,0.095496,-0.019986,9.838505,0.001808,0.002474,0.000670,0.903952,-0.544015,-0.612398,-0.176933,-0.533182,0.016005
01095,346899,0.082575,-0.035521,9.827472,0.003251,0.000371,0.003085,0.902448,-0.544514,-0.611924,-0.175735,-0.533436,0.016657
01096,346999,0.093229,-0.023332,9.811777,0.000690,0.000577,0.002066,0.900984,-0.542923,-0.613348,-0.176217,-0.533875,0.016308
01097,347099,0.095886,-0.021600,9.808094,0.000750,0.001096,0.001138,0.899983,-0.545399,-0.613475,-0.176525,-0.534079,0.016648
01098,347199,0.085219,-0.005453,9.823126,0.001248,0.000920,0.002515,0.904453,-0.542529,-0.612322,-0.176603,-0.533936,0.015989
01099,347299,0.094133,-0.005457,9.826000,0.001298,0.002076,0.002437,0.903489,-0.545406,-0.614474,-0.176644,-0.533430,0.016934
01100,347399,0.093438,-0.014383,9.853990,0.002070,0.001663,0.001813,0.900954,-0.544490,-0.611924,-0.176130,-0.533062,0.016942
01101,347499,0.102160,-0.017263,9.825052,0.001462,0.001262,0.002845,0.902483,-0.545414,-0.613974,-0.176052,-0.533041,0.018133
01102,347599,0.081164,-0.019503,9.809977,0.001466,-0.000005,0.001158,0.900970,-0.545439,-0.612975,-0.175901,-0.533742,0.018330
01103,347699,0.092966,-0.007470,9.838439,-0.000605,0.001206,0.002730,0.903472,-0.544458,-0.613423,-0.177013,-0.533619,0.018911
01104,347799,0.097415,-0.022251,9.814084,0.000137,0.000904,0.002138,0.901951,-0.543509,-0.611873,-0.177653,-0.533612,0.018592
01105,347899,0.100851,-0.033064,9.804905,0.001202,0.000851,0.001006,0.903493,-0.542915,-0.614347,-0.177881,-0.533821,0.017643
01106,347999,0.097970,-0.038186,9.833259,0.001159,0.000761,0.002110,0.901934,-0.543059,-0.610848,-0.177886,-0.533780,0.016966
01107,348099,0.099356,-0.014498,9.823788,0.002285,0.002168,0.001735,0.900476,-0.543438,-0.612874,-0.177386,-0.533283,0.016645
01108,348199,0.109564,-0.007628,9.844853,0.003306,0.001729,0.001524,0.901977,-0.544932,-0.613449,-0.176237,-0.532978,0.016818
01109,348299,0.100189,-0.032807,9.836812,0.001937,0.001693,0.001582,0.903001,-0.544876,-0.614948,-0.175980,-0.532796,0.017153
01110,348399,0.096075,-0.023455,9.822059,0.001966,0.000762,0.002893,0.902968,-0.542481,-0.612822,-0.175701,-0.532923,0.016903
01111,348499,0.097586,-0.016364,9.809977,0.001061,0.000934,0.001644,0.899451,-0.543494,-0.611374,-0.175798,-0.533035,0.016407
01112,348599,0.103219,-0.016203,9.817536,0.002289,0.001410,0.002407,0.901963,-0.542489,-0.612323,-0.175303,-0.532810,0.015870
01113,348699,0.070471,-0.012006,9.833122,0.001812,0.000830,0.002957,0.901952,-0.543011,-0.611848,-0.175017,-0.532856,0.015796
01114,348799,0.103148,-0.028171,9.807134,0.000949,0.000308,0.001414,0.902034,-0.544289,-0.616422,-0.175480,-0.533716,0.016068
01115,348899,0.092429,-0.006112,9.816058,0.002770,0.002781,0.002486,0.901515,-0.545326,-0.615474,-0.174778,-0.533075,0.017278
01116,348999,0.096696,-0.014222,9.811146,0.002434,0.001600,0.001107,0.900472,-0.545431,-0.612975,-0.174080,-0.532897,0.017452
01117,349099,0.103683,-0.030339,9.840336,0.002576,0.004453,0.002688,0.899469,-0.543944,-0.612400,-0.173369,-0.531113,0.017889
01118,349199,0.090279,-0.009384,9.855802,0.001661,0.002133,0.001972,0.903448,-0.542537,-0.611822,-0.173179,-0.530316,0.016918
01119,349299,0.093317,-0.003832,9.837728,0.000293,-0.001222,0.003683,0.900963,-0.544466,-0.612424,-0.173735,-0.531665,0.018039
01120,349399,0.089856,-0.019953,9.817070,0.000698,0.000797,0.003167,0.900483,-0.539452,-0.612670,-0.174378,-0.531980,0.016835
01121,349499,0.086572,-0.017769,9.832752,-0.000257,0.000674,0.001221,0.902467,-0.543967,-0.612898,-0.175282,-0.532194,0.016252
01122,349599,0.087819,0.000510,9.825558,0.001039,0.001516,-0.000115,0.900482,-0.544908,-0.613450,-0.175441,-0.532127,0.015613
01123,349699,0.085559,-0.037373,9.838755,0.001453,0.001402,0.002003,0.902406,-0.542143,-0.609298,-0.175207,-0.531533,0.014176
01124,349799,0.101356,-0.002680,9.820492,0.000553,0.001736,0.001164,0.902478,-0.542947,-0.613347,-0.175738,-0.531206,0.013227
01125,349899,0.107572,-0.005378,9.817523,-0.000010,0.001140,0.001488,0.902964,-0.544972,-0.612949,-0.176434,-0.531114,0.013135
01126,349999,0.082850,-0.017668,9.827453,0.002773,0.000496,0.001285,0.900447,-0.544008,-0.611400,-0.175505,-0.531408,0.012645
01127,350099,0.106187,-0.028811,9.841908,0.002853,0.001666,0.002649,0.901952,-0.543011,-0.611848,-0.174616,-0.530985,0.012404
01128,350199,0.105394,-0.017976,9.825117,0.002456,0.001562,0.001772,0.901971,-0.542963,-0.612848,-0.174028,-0.530740,0.011805
01129,350299,0.109382,-0.038966,9.829636,0.001547,0.001422,0.002090,0.903472,-0.544458,-0.613423,-0.173899,-0.530516,0.011827
01130,350399,0.111128,-0.026684,9.833343,0.001727,0.001418,0.001675,0.902459,-0.543493,-0.612373,-0.173655,-0.530261,0.011232
01131,350499,0.098743,-0.031172,9.825034,0.000273,0.002147,0.000827,0.902006,-0.544362,-0.614923,-0.174388,-0.529904,0.010973
01132,350599,0.091192,-0.020207,9.820433,0.000971,0.003099,0.001755,0.901471,-0.543952,-0.612899,-0.174603,-0.528813,0.010846
01133,350699,0.085447,-0.020792,9.856428,0.000093,0.001858,0.001418,0.901538,-0.542787,-0.616346,-0.175649,-0.528835,0.010659
01134,350799,0.096898,-0.029414,9.827436,0.000636,0.001115,0.001106,0.901998,-0.543389,-0.614372,-0.176188,-0.529017,0.010127
01135,350899,0.091030,-0.027588,9.827931,0.002257,0.002146,0.000621,0.901958,-0.544980,-0.612450,-0.175558,-0.528377,0.009603
01136,350999,0.092122,-0.035516,9.833117,0.002371,0.002714,0.002342,0.900945,-0.544016,-0.611399,-0.174866,-0.527376,0.009685
01137,351099,0.098165,-0.012827,9.828646,0.000504,0.002013,0.002005,0.902924,-0.546563,-0.611026,-0.175038,-0.526566,0.010154
01138,351199,0.101913,-0.005899,9.818603,0.001497,0.002524,0.001018,0.899997,-0.542883,-0.613848,-0.175104,-0.526039,0.009612
01139,351299,0.101648,-0.025536,9.834696,0.002898,0.002463,0.002108,0.901979,-0.543437,-0.613373,-0.174280,-0.525346,0.009522
01140,351399,0.109066,-0.015140,9.827585,0.000742,0.000824,0.001314,0.902953,-0.545993,-0.612500,-0.174458,-0.525396,0.009630
01141,351499,0.091910,-0.018802,9.831858,0.001667,0.000365,0.001932,0.902475,-0.544940,-0.613449,-0.174248,-0.525861,0.009937
01142,351599,0.099350,-0.020024,9.842599,0.001515,0.001439,0.000508,0.901968,-0.544458,-0.612924,-0.174113,-0.525696,0.009244
01143,351699,0.107530,-0.003551,9.827567,-0.000434,0.002362,0.001752,0.900408,-0.545101,-0.609451,-0.174822,-0.524713,0.009153
01144,351799,0.093366,0.000646,9.818083,0.002009,-0.000880,0.002771,0.902956,-0.544000,-0.612399,-0.174388,-0.525750,0.009353
01145,351899,0.080131,-0.016289,9.829003,0.001598,0.001123,0.001246,0.902498,-0.542401,-0.614321,-0.174424,-0.525909,0.008485
01146,351999,0.100302,-0.016789,9.802073,0.001005,0.000128,-0.000095,0.903470,-0.545454,-0.613474,-0.174536,-0.526441,0.007666
01147,352099,0.097986,-0.025457,9.825945,0.000844,0.000563,-0.000503,0.901480,-0.543928,-0.613399,-0.174845,-0.526872,0.006365
01148,352199,0.103879,-0.016030,9.809874,-0.000150,-0.002067,0.002207,0.902966,-0.543976,-0.612898,-0.175675,-0.528640,0.006327
01149,352299,0.102307,-0.015414,9.818960,0.002211,0.001795,0.002378,0.901470,-0.544450,-0.612924,-0.175147,-0.528299,0.006773
01150,352399,0.090720,-0.024662,9.835768,0.001874,0.001046,0.001330,0.902014,-0.539379,-0.614669,-0.175223,-0.528606,0.005032
01151,352499,0.097076,-0.024668,9.817154,0.002011,0.000160,0.001709,0.902505,-0.543871,-0.614897,-0.174973,-0.529355,0.005069
01152,352599,0.099579,-0.020177,9.826822,0.001591,0.000900,0.002423,0.901935,-0.542561,-0.610823,-0.174744,-0.529281,0.004443
01153,352699,0.089705,-0.011705,9.838290,-0.000089,0.001337,0.001282,0.900424,-0.546548,-0.610527,-0.175238,-0.528983,0.004753
01154,352799,0.088347,-0.013640,9.821916,0.002993,0.001189,0.002138,0.903442,-0.545526,-0.611974,-0.174099,-0.528735,0.004938
01155,352899,0.091751,-0.023667,9.826488,0.001130,0.000698,0.000549,0.902432,-0.543067,-0.610848,-0.174091,-0.528744,0.003350
01156,352999,0.085442,-0.017662,9.826231,0.000731,0.000270,0.003152,0.901526,-0.544306,-0.615923,-0.174646,-0.529602,0.004701
01157,353099,0.097059,-0.002735,9.816845,0.002342,0.003904,0.002524,0.904467,-0.544971,-0.613448,-0.174012,-0.527899,0.004993
01158,353199,0.097605,-0.009898,9.826500,0.002387,0.002017,0.003008,0.901459,-0.545470,-0.612475,-0.173296,-0.527372,0.006054
01159,353299,0.092861,-0.028815,9.828294,0.001421,0.001753,0.000672,0.903934,-0.543565,-0.611373,-0.173115,-0.526733,0.004562
01160,353399,0.108528,-0.006755,9.822029,0.000945,0.000132,0.001870,0.903442,-0.545526,-0.611974,-0.173150,-0.527098,0.004567
01161,353499,0.095442,-0.002801,9.818608,0.000017,0.000182,0.001759,0.903960,-0.544988,-0.612949,-0.173810,-0.527512,0.004418
01162,353599,0.103751,-0.020770,9.836794,0.002352,0.002116,0.001041,0.900487,-0.542417,-0.613322,-0.173354,-0.527131,0.003680
01163,353699,0.104320,-0.019650,9.832626,0.001747,-0.000736,0.001574,0.901516,-0.544828,-0.615448,-0.173251,-0.528515,0.004216
01164,353799,0.100241,-0.009525,9.825504,0.001837,0.000048,0.001482,0.903448,-0.542537,-0.611822,-0.172927,-0.528946,0.003014
01165,353899,0.084801,-0.020029,9.812295,0.000332,-0.000389,0.000349,0.899928,-0.545045,-0.610451,-0.173261,-0.529688,0.002313
01166,353999,0.091792,-0.017880,9.822709,0.000043,0.001074,0.002469,0.901979,-0.543437,-0.613373,-0.174052,-0.529786,0.002476
01167,354099,0.099767,-0.015989,9.802932,0.002152,0.000463,0.001659,0.901469,-0.544948,-0.612950,-0.173520,-0.530206,0.002662
01168,354199,0.097200,-0.018555,9.823687,0.000863,0.001521,0.001853,0.899507,-0.543848,-0.614399,-0.173925,-0.530324,0.003203
01169,354299,0.082502,-0.015588,9.834964,0.000958,0.001878,0.002182,0.900494,-0.543888,-0.613899,-0.174224,-0.530114,0.003680
01170,354399,0.107351,-0.019151,9.817446,0.003174,0.001145,0.001069,0.900981,-0.544418,-0.613424,-0.173175,-0.530236,0.003523
01171,354499,0.102955,-0.028063,9.811688,0.001332,0.000113,0.001399,0.903462,-0.544980,-0.612949,-0.173082,-0.530720,0.003253
01172,354599,0.084973,-0.021438,9.828639,0.001628,0.000355,0.001877,0.901968,-0.544458,-0.612924,-0.172870,-0.531169,0.003320
01173,354699,0.086122,-0.017332,9.832949,0.001123,0.001580,0.001713,0.900949,-0.542023,-0.611298,-0.172977,-0.530838,0.002382
01174,354799,0.096843,-0.031918,9.838439,0.001959,0.001871,0.001150,0.900487,-0.542417,-0.613322,-0.172737,-0.530589,0.001706
01175,354899,0.098669,-0.031103,9.830856,0.000234,-0.000233,0.001754,0.901999,-0.542891,-0.614347,-0.173515,-0.531546,0.001454
01176,354999,0.081924,-0.011771,9.819491,0.001118,0.002724,0.001801,0.900977,-0.541951,-0.612797,-0.173738,-0.530721,0.000830
01177,355099,0.093665,-0.026899,9.819728,0.001487,-0.000774,0.002730,0.901930,-0.545052,-0.610950,-0.173431,-0.531594,0.001224
01178,355199,0.100683,-0.029147,9.817190,0.000870,0.001478,0.002655,0.902413,-0.543115,-0.609848,-0.173496,-0.531050,0.000670
01179,355299,0.091646,-0.021158,9.824951,-0.000079,0.002596,0.001643,0.901973,-0.541967,-0.612797,-0.174390,-0.530232,-0.000197
01180,355399,0.089998,-0.005586,9.831769,0.002180,0.001789,0.001911,0.899535,-0.543776,-0.615898,-0.174159,-0.530350,0.000715
01181,355499,0.095503,-0.015870,9.816761,0.001278,0.002332,0.001643,0.901041,-0.542281,-0.616321,-0.174533,-0.530122,0.000764
01182,355599,0.082004,-0.030977,9.825385,0.002575,-0.000257,0.003293,0.901989,-0.543413,-0.613873,-0.173913,-0.531031,0.001474
01183,355699,0.093593,-0.040140,9.843058,0.002041,0.000547,0.003048,0.901963,-0.547447,-0.613076,-0.173318,-0.531345,0.003152
01184,355799,0.103526,-0.020333,9.825695,0.002638,0.000641,0.000406,0.902977,-0.542955,-0.613347,-0.172620,-0.531627,0.001782
01185,355899,0.102464,-0.016542,9.816117,-0.000236,0.001734,0.003054,0.902996,-0.542409,-0.614321,-0.173682,-0.531390,0.001932
01186,355999,0.073094,-0.031451,9.809633,0.001985,0.003630,-0.000412,0.901482,-0.542931,-0.613348,-0.173378,-0.530064,0.000382
01187,356099,0.090622,-0.032691,9.831955,0.003230,0.003760,0.002649,0.903002,-0.544378,-0.614923,-0.172395,-0.528712,0.001029
01188,356199,0.097907,-0.027697,9.818168,0.000648,0.001941,0.000813,0.901989,-0.543413,-0.613873,-0.172871,-0.528373,0.000344
01189,356299,0.098348,-0.033048,9.816337,0.001282,0.000351,0.001038,0.903470,-0.545454,-0.613474,-0.172821,-0.528777,0.000057
01190,356399,0.098733,-0.018286,9.828025,0.000872,-0.000452,0.001136,0.903434,-0.545052,-0.611449,-0.172877,-0.529431,-0.000656
01191,356499,0.090891,-0.020249,9.812923,0.002188,0.003028,0.002640,0.902437,-0.545534,-0.611475,-0.172181,-0.528155,-0.000185
01192,356599,0.095490,-0.007353,9.825512,0.002480,0.003580,0.000752,0.902994,-0.543405,-0.614372,-0.171632,-0.526869,-0.000984
01193,356699,0.095002,-0.032851,9.839524,0.001164,0.002948,0.001573,0.902483,-0.540456,-0.613220,-0.171924,-0.525894,-0.002285
01194,356799,0.097015,-0.017103,9.826434,0.000699,0.000180,0.001928,0.900984,-0.542923,-0.613348,-0.172382,-0.526583,-0.002333
01195,356899,0.110167,-0.010628,9.846611,0.000866,0.002305,0.002701,0.900976,-0.542449,-0.612823,-0.172735,-0.526005,-0.002177
01196,356999,0.098326,-0.025086,9.832115,0.003081,0.001409,0.000844,0.901945,-0.546997,-0.612051,-0.171491,-0.525744,-0.002116
01197,357099,0.091532,-0.025410,9.822149,-0.000465,0.001504,0.002527,0.899497,-0.543872,-0.613899,-0.172632,-0.525818,-0.001150
01198,357199,0.107670,-0.009146,9.810150,0.000933,0.000837,0.000522,0.900498,-0.541397,-0.613772,-0.173067,-0.526230,-0.002297
01199,357299,0.101759,-0.018628,9.828575,0.002756,0.001546,0.000531,0.900512,-0.543840,-0.614898,-0.172408,-0.526325,-0.002498
01200,357399,0.116155,-0.000727,9.829742,0.002809,0.000178,0.001145,0.900445,-0.545005,-0.611450,-0.171406,-0.526827,-0.002632
01201,357499,0.089799,-0.024332,9.836042,0.000863,0.000014,0.004744,0.903932,-0.545060,-0.611449,-0.171480,-0.527188,-0.001376
01202,357599,0.102341,-0.026995,9.815616,0.002433,0.000008,0.001443,0.898916,-0.544081,-0.609401,-0.170620,-0.527679,-0.001704
01203,357699,0.092064,-0.009146,9.825761,0.002261,0.002689,0.002169,0.902486,-0.543919,-0.613898,-0.170144,-0.526883,-0.001546
01204,357799,0.088624,-0.019216,9.825796,0.002837,-0.000571,0.003154,0.902488,-0.542923,-0.613847,-0.169393,-0.527958,-0.001133
01205,357899,0.096561,-0.025673,9.826864,0.000234,0.001668,0.001602,0.901498,-0.544378,-0.614424,-0.170106,-0.527858,-0.000873
01206,357999,0.096558,-0.003676,9.815497,0.001632,0.001129,0.002827,0.902436,-0.546033,-0.611501,-0.169707,-0.527675,-0.000155
01207,358099,0.096543,-0.010153,9.839202,0.000349,0.002263,0.002487,0.902965,-0.544474,-0.612924,-0.170220,-0.526981,0.000068
01208,358199,0.083090,-0.029718,9.817059,0.002584,0.000938,0.001025,0.903425,-0.545076,-0.610950,-0.169263,-0.526804,-0.000824
01209,358299,0.108101,-0.012891,9.822119,0.002123,0.001896,0.002390,0.901960,-0.543984,-0.612399,-0.168765,-0.526340,-0.000698
01210,358399,0.096940,-0.030084,9.830428,0.002882,0.001483,0.000689,0.903502,-0.543389,-0.614872,-0.168011,-0.526284,-0.001556
01211,358499,0.098552,-0.009941,9.802944,0.000894,0.001919,0.002501,0.903980,-0.543943,-0.613898,-0.168297,-0.525837,-0.001494
01212,358599,0.088291,-0.020766,9.813858,0.003180,0.001489,0.002784,0.903484,-0.542939,-0.613847,-0.167334,-0.525677,-0.001458
01213,358699,0.079038,-0.007939,9.843367,-0.000347,-0.000167,0.001318,0.902463,-0.546459,-0.613025,-0.168152,-0.526398,-0.001261
01214,358799,0.099432,-0.015975,9.814686,0.000606,0.000132,0.001158,0.901974,-0.546427,-0.613525,-0.168468,-0.527031,-0.000971
01215,358899,0.099385,-0.017455,9.833445,0.002509,0.002900,0.002452,0.900996,-0.541404,-0.613771,-0.167999,-0.526231,-0.001074
01216,358999,0.091267,-0.020094,9.823699,0.002042,0.002290,0.000829,0.900528,-0.545286,-0.615974,-0.167755,-0.525993,-0.000532
01217,359099,0.096112,-0.006731,9.827048,0.002295,0.000980,0.001940,0.901945,-0.542039,-0.611297,-0.167177,-0.525970,-0.001408
01218,359199,0.099586,-0.013272,9.821344,0.001880,0.001001,0.001617,0.902959,-0.542505,-0.612322,-0.166867,-0.525972,-0.002333
01219,359299,0.103793,-0.031465,9.826620,0.001358,0.002231,0.001135,0.902991,-0.545398,-0.614474,-0.166861,-0.525456,-0.002350
01220,359399,0.099500,-0.028971,9.840454,0.001046,0.001400,0.001816,0.902943,-0.546017,-0.612000,-0.166827,-0.525154,-0.002259
01221,359499,0.100930,-0.014333,9.824056,0.001990,0.001176,0.001271,0.903942,-0.544538,-0.611923,-0.166304,-0.524931,-0.003079
01222,359599,0.089341,-0.014603,9.812809,0.001856,0.001824,0.002872,0.901975,-0.545928,-0.613500,-0.165942,-0.524604,-0.001954
01223,359699,0.084447,-0.002408,9.830064,-0.000828,0.000499,0.001316,0.902498,-0.542401,-0.614321,-0.167341,-0.525135,-0.002577
01224,359799,0.082899,-0.014845,9.835078,-0.000184,0.004093,0.001782,0.902025,-0.543815,-0.615897,-0.168421,-0.523782,-0.002171
01225,359899,0.115988,-0.019905,9.824916,0.001297,0.002957,0.001450,0.898491,-0.544379,-0.613425,-0.168502,-0.523041,-0.001611
01226,359999,0.084226,-0.013449,9.833539,-0.000015,0.001476,0.002785,0.899966,-0.544949,-0.612450,-0.169217,-0.522944,-0.000602
01227,360099,0.097765,-0.026025,9.839214,0.002174,0.002516,0.002290,0.902965,-0.544474,-0.612924,-0.168687,-0.522122,-0.000450
01228,360199,0.080565,-0.012260,9.829086,0.000894,0.000779,0.002641,0.901938,-0.546025,-0.611501,-0.168728,-0.522190,0.000237
01229,360299,0.090233,-0.022702,9.824253,0.001621,0.001977,0.002532,0.903464,-0.543983,-0.612898,-0.168532,-0.521649,0.000304
01230,360399,0.102230,-0.012425,9.823525,0.002981,0.000693,0.000820,0.902977,-0.542955,-0.613347,-0.167640,-0.521938,-0.000715
01231,360499,0.095989,-0.024275,9.854020,0.002135,0.002245,0.004182,0.902018,-0.542843,-0.615346,-0.167415,-0.521601,0.000703
01232,360599,0.081734,-0.015222,9.822643,0.002090,0.001242,0.001753,0.902928,-0.544072,-0.610899,-0.166809,-0.521312,0.000056
01233,360699,0.086184,-0.017020,9.818077,0.001296,-0.000161,0.002428,0.899487,-0.544394,-0.613424,-0.166883,-0.522293,0.000977
01234,360799,0.098463,-0.019394,9.825666,0.002121,0.002137,0.002425,0.901490,-0.543904,-0.613899,-0.166509,-0.521890,0.001482
01235,360899,0.090433,-0.029246,9.825148,0.002238,0.002166,0.000888,0.899001,-0.542867,-0.613848,-0.166151,-0.521638,0.001259
01236,360999,0.101782,-0.018267,9.825516,0.001147,0.000699,0.002168,0.904934,-0.542086,-0.611296,-0.166182,-0.521604,0.000036
01237,361099,0.097479,-0.018684,9.811175,0.002242,-0.000159,0.001742,0.904458,-0.544996,-0.612949,-0.165563,-0.522222,-0.000286
01238,361199,0.084939,-0.007268,9.818763,0.002516,-0.000169,0.001097,0.899962,-0.546942,-0.612552,-0.164734,-0.523056,0.000278
01239,361299,0.107000,-0.033193,9.829755,0.000028,0.002960,0.001764,0.902947,-0.544024,-0.611899,-0.165384,-0.521887,-0.000197
01240,361399,0.093932,-0.014559,9.837914,0.002143,0.000343,0.002648,0.900549,-0.544242,-0.616923,-0.165213,-0.522873,0.001271
01241,361499,0.099206,-0.008272,9.823740,0.002359,0.001337,0.003137,0.900963,-0.544466,-0.612424,-0.164583,-0.522801,0.002134
01242,361599,0.093747,-0.020604,9.826631,0.002095,0.000821,0.001146,0.899488,-0.543896,-0.613399,-0.164215,-0.523227,0.002140
01243,361699,0.099598,-0.022949,9.823490,0.001098,0.001608,0.002414,0.902964,-0.544972,-0.612949,-0.164283,-0.522924,0.002489
01244,361799,0.098582,-0.015608,9.834868,0.001629,0.000562,0.000531,0.902428,-0.545060,-0.610950,-0.163901,-0.523052,0.001499
01245,361899,0.099031,-0.029435,9.815402,0.000825,0.002823,0.002657,0.902478,-0.543445,-0.613373,-0.164240,-0.522149,0.001741
01246,361999,0.094932,-0.012154,9.831220,0.000828,-0.000484,-0.000061,0.900476,-0.543438,-0.612874,-0.164558,-0.523216,0.000673
01247,362099,0.111033,-0.016719,9.825159,0.002197,0.001053,0.001745,0.901528,-0.543309,-0.615872,-0.164302,-0.523642,0.000989
01248,362199,0.095091,-0.016991,9.831638,0.001391,0.001864,0.001431,0.901464,-0.542979,-0.612348,-0.164273,-0.523255,0.000376
01249,362299,0.095119,-0.008450,9.821160,0.001165,0.003359,0.002551,0.900992,-0.543896,-0.613899,-0.164453,-0.522185,0.001030
01250,362399,0.095561,-0.045177,9.818543,0.001285,0.000665,0.001260,0.904938,-0.545052,-0.611949,-0.164300,-0.522204,0.000238
01251,362499,0.098777,-0.019662,9.827590,0.002241,0.000226,0.002556,0.900953,-0.544988,-0.611950,-0.163677,-0.522717,0.000825
01252,362599,0.102665,-0.016176,9.812434,0.001125,0.002746,0.001006,0.902438,-0.545036,-0.611450,-0.163624,-0.521650,0.000195
01253,362699,0.109997,-0.017320,9.819860,0.001732,0.001887,0.001000,0.901540,-0.541790,-0.616296,-0.163732,-0.521668,-0.000218
01254,362799,0.089585,-0.033534,9.815181,0.002199,0.000504,0.001549,0.902958,-0.543003,-0.612348,-0.163217,-0.521973,-0.000986
01255,362899,0.107378,-0.023807,9.829456,-0.000962,0.001441,0.002440,0.902963,-0.545470,-0.612974,-0.164443,-0.521768,-0.000486
01256,362999,0.088967,-0.025316,9.839500,0.000686,0.001557,0.000679,0.902467,-0.544466,-0.612924,-0.164769,-0.521538,-0.001172
01257,363099,0.101125,-0.018415,9.823771,0.001534,0.002305,0.002226,0.901440,-0.546017,-0.611501,-0.164462,-0.520776,-0.000670
01258,363199,0.078958,-0.030720,9.826578,0.001726,0.002540,0.002469,0.901975,-0.540472,-0.612721,-0.164387,-0.520050,-0.001321
01259,363299,0.086415,-0.017572,9.833604,0.000975,0.000471,0.001140,0.900018,-0.541839,-0.614797,-0.164850,-0.520817,-0.001618
01260,363399,0.097492,-0.013071,9.825940,0.002078,0.002494,0.000765,0.902016,-0.543839,-0.615397,-0.164590,-0.520339,-0.001857
01261,363499,0.101162,-0.022565,9.832061,0.002811,0.001306,0.000405,0.902964,-0.544972,-0.612949,-0.163668,-0.520224,-0.002634
01262,363599,0.104288,-0.004317,9.827233,0.001310,0.001495,0.000114,0.902920,-0.548556,-0.611128,-0.163309,-0.519770,-0.002993
01263,363699,0.104362,-0.024199,9.841330,0.001494,0.000964,0.002263,0.900972,-0.544442,-0.612924,-0.163208,-0.519975,-0.002514
01264,363799,0.125730,-0.005704,9.834445,0.001859,0.000726,0.002480,0.899489,-0.543398,-0.613374,-0.163003,-0.520466,-0.001866
01265,363899,0.095722,0.000209,9.818823,0.001838,0.002497,0.001665,0.902488,-0.542923,-0.613847,-0.162808,-0.519820,-0.002205
01266,363999,0.094602,-0.034224,9.826601,0.002713,0.000527,0.002361,0.904478,-0.544449,-0.613923,-0.162018,-0.520167,-0.002042
01267,364099,0.093350,-0.019452,9.823519,0.000191,0.000541,0.001517,0.900491,-0.545382,-0.613975,-0.162696,-0.520736,-0.001479
01268,364199,0.090109,-0.031692,9.826667,0.002322,0.001959,0.001957,0.901467,-0.546443,-0.613026,-0.162026,-0.520323,-0.000722
01269,364299,0.112149,-0.007451,9.814955,0.002174,0.001883,0.000402,0.902972,-0.545446,-0.613474,-0.161483,-0.519928,-0.001246
01270,364399,0.090359,-0.027877,9.819364,0.000491,-0.000574,0.000467,0.901507,-0.544852,-0.614949,-0.162057,-0.521182,-0.001402
01271,364499,0.101891,-0.022338,9.816821,0.000173,0.002616,0.002212,0.902992,-0.544900,-0.614449,-0.162760,-0.520466,-0.000838
01272,364599,0.090926,-0.024633,9.836233,0.000778,0.001223,0.001050,0.901013,-0.542353,-0.614822,-0.163282,-0.520744,-0.001300
01273,364699,0.086396,-0.022508,9.841169,0.001434,0.002318,0.001358,0.903462,-0.544980,-0.612949,-0.163146,-0.520021,-0.001526
01274,364799,0.090743,-0.021042,9.818029,0.000844,-0.000267,0.002431,0.900489,-0.546379,-0.614026,-0.163411,-0.521039,-0.000196
01275,364899,0.100344,-0.023688,9.818525,0.001221,0.000600,0.002317,0.905439,-0.543067,-0.611847,-0.163380,-0.521095,-0.000804
01276,364999,0.080402,-0.009233,9.843672,0.001954,0.001913,0.002936,0.898980,-0.544410,-0.612925,-0.163051,-0.520874,0.000248
01277,365099,0.088726,-0.017192,9.835298,0.001561,0.002687,0.002598,0.901020,-0.543823,-0.615398,-0.163106,-0.520345,0.001162
01278,365199,0.097243,-0.015526,9.820140,-0.000203,0.001365,0.001189,0.903484,-0.542939,-0.613847,-0.164055,-0.520285,0.000461
01279,365299,0.076991,-0.013160,9.824252,0.001728,-0.001822,0.001791,0.901477,-0.545921,-0.613500,-0.163779,-0.522086,0.001076
01280,365399,0.101511,-0.012327,9.846754,0.002065,0.002442,0.003058,0.901988,-0.543911,-0.613898,-0.163423,-0.521484,0.001877
01281,365499,0.104513,-0.023955,9.842051,0.002575,0.001158,0.002698,0.902966,-0.543976,-0.612898,-0.162688,-0.521460,0.002200
01282,365599,0.086494,-0.007765,9.820349,0.001501,0.002509,0.002707,0.901456,-0.542007,-0.611797,-0.162606,-0.520675,0.001931
01283,365699,0.102334,-0.034744,9.827841,0.000377,0.000986,0.003039,0.903485,-0.542441,-0.613822,-0.163253,-0.520835,0.002141
01284,365799,0.088597,-0.018255,9.832591,0.000896,0.000591,0.002050,0.899998,-0.542385,-0.613823,-0.163657,-0.521429,0.002172
01285,365899,0.099360,-0.028740,9.825094,0.001501,0.001715,0.001520,0.902468,-0.543469,-0.612873,-0.163559,-0.521122,0.001720
01286,365999,0.094711,-0.025515,9.818472,0.001030,0.002802,0.002298,0.902952,-0.546491,-0.612525,-0.163574,-0.520084,0.002399
01287,366099,0.091614,-0.030860,9.827245,0.002276,0.000807,0.002981,0.901999,-0.542891,-0.614347,-0.163175,-0.520480,0.002969
01288,366199,0.108811,-0.024274,9.836924,0.001890,0.000311,0.001446,0.902969,-0.541983,-0.612797,-0.162906,-0.520966,0.002006
01289,366299,0.091677,-0.008602,9.816742,0.000499,0.000735,0.002877,0.899544,-0.543751,-0.616398,-0.163666,-0.521734,0.003442
01290,366399,0.113258,-0.027043,9.859974,0.001228,0.001138,0.002947,0.902478,-0.543445,-0.613373,-0.163765,-0.521804,0.003888
01291,366499,0.093963,-0.003189,9.833951,0.000391,0.001653,0.002627,0.903978,-0.544940,-0.613948,-0.164291,-0.521525,0.004493
01292,366599,0.103928,-0.036778,9.820075,0.002384,0.001541,0.000175,0.901939,-0.545527,-0.611475,-0.163508,-0.521181,0.003613
01293,366699,0.086262,-0.023668,9.824313,0.001245,0.003467,0.001292,0.901972,-0.542465,-0.612822,-0.163605,-0.519916,0.002810
01294,366799,0.093573,-0.017937,9.848090,0.002388,0.002917,0.001177,0.901526,-0.544306,-0.615923,-0.163184,-0.519270,0.003092
01295,366899,0.101276,-0.014270,9.835637,0.000864,0.001542,0.001904,0.902007,-0.543863,-0.614898,-0.163581,-0.519288,0.003421
01296,366999,0.101663,-0.018283,9.819026,0.000832,0.001661,0.002631,0.904018,-0.543349,-0.615871,-0.164052,-0.519223,0.004013
01297,367099,0.083158,-0.020928,9.814710,0.001561,-0.000186,0.000796,0.901951,-0.544008,-0.611899,-0.163836,-0.519937,0.003173
01298,367199,0.108293,-0.030536,9.840996,0.001836,0.002110,0.001768,0.902428,-0.545558,-0.610975,-0.163336,-0.519193,0.003081
01299,367299,0.098247,-0.023482,9.847624,0.003691,0.000962,0.000404,0.902456,-0.545486,-0.612475,-0.161869,-0.519257,0.002475
01300,367399,0.102965,-0.023623,9.818722,0.002521,0.000765,0.001220,0.900486,-0.542915,-0.613348,-0.161276,-0.519675,0.002014
01301,367499,0.087198,-0.005062,9.846562,0.001555,0.000433,0.001854,0.903005,-0.542883,-0.614846,-0.161297,-0.520283,0.001949
01302,367599,0.094883,-0.005527,9.828670,0.000586,0.001619,0.001856,0.902992,-0.544900,-0.614449,-0.161761,-0.520139,0.002348
01303,367699,0.094183,-0.013000,9.827185,-0.000100,0.000442,0.002215,0.902953,-0.545993,-0.612500,-0.162444,-0.520461,0.002876
01304,367799,0.112548,-0.009214,9.817244,0.003217,0.002135,0.002992,0.901460,-0.544972,-0.612450,-0.161297,-0.519914,0.003696
01305,367899,0.093069,-0.019518,9.834218,-0.000061,0.000434,0.001958,0.901999,-0.542891,-0.614347,-0.162223,-0.520530,0.003688
01306,367999,0.096530,-0.010776,9.830118,0.001113,0.001933,0.001893,0.900970,-0.545937,-0.613000,-0.162279,-0.520165,0.004286
01307,368099,0.104069,-0.033997,9.818924,0.001631,-0.000110,0.002361,0.902994,-0.543405,-0.614372,-0.162200,-0.521027,0.004566
01308,368199,0.106036,-0.027508,9.827847,0.000743,0.000989,0.001722,0.901011,-0.543349,-0.614872,-0.162695,-0.521424,0.004719
01309,368299,0.093579,-0.004376,9.834737,0.002306,0.001216,0.002555,0.903477,-0.546925,-0.614050,-0.162058,-0.521407,0.005962
01310,368399,0.096322,-0.035261,9.822966,0.000497,0.002525,-0.000222,0.902966,-0.543477,-0.612873,-0.162514,-0.520618,0.004509
01311,368499,0.096957,-0.033440,9.817047,0.000842,0.001486,0.002402,0.900433,-0.541565,-0.610273,-0.162735,-0.520345,0.003699
01312,368599,0.094654,-0.018209,9.814536,0.001364,-0.000522,0.002998,0.901012,-0.542851,-0.614847,-0.162898,-0.521610,0.004454
01313,368699,0.096335,-0.014283,9.825808,0.002173,-0.000658,0.002608,0.899522,-0.545793,-0.615500,-0.162545,-0.523051,0.006017
01314,368799,0.091758,-0.026348,9.838426,0.000574,-0.000665,0.003236,0.900981,-0.544418,-0.613424,-0.163003,-0.524228,0.007027
01315,368899,0.096249,-0.025106,9.833240,0.000851,-0.000242,0.001675,0.902966,-0.543477,-0.612873,-0.163261,-0.525010,0.006633
01316,368999,0.108998,-0.010642,9.834200,0.001042,-0.000706,0.000747,0.904459,-0.544497,-0.612923,-0.163341,-0.525960,0.005896
01317,369099,0.104944,-0.027283,9.828318,0.002672,0.000752,0.003870,0.901474,-0.542457,-0.612823,-0.162628,-0.526267,0.006565
01318,369199,0.103040,-0.003601,9.836548,0.002186,-0.001368,0.001229,0.901996,-0.544386,-0.614423,-0.162196,-0.527884,0.006524
01319,369299,0.087193,-0.021987,9.817166,-0.000945,0.001143,0.001028,0.899995,-0.543880,-0.613899,-0.163575,-0.528132,0.006271
01320,369399,0.099487,-0.014483,9.810699,0.001358,0.001310,0.001062,0.903982,-0.542947,-0.613847,-0.163599,-0.528068,0.005492
01321,369499,0.088962,-0.027525,9.819741,0.001241,0.001048,0.002425,0.900992,-0.543896,-0.613899,-0.163715,-0.528310,0.005974
01322,369599,0.090747,-0.032912,9.825314,0.001023,0.002682,0.002413,0.903452,-0.545502,-0.612474,-0.163761,-0.527310,0.006438
01323,369699,0.101886,-0.010054,9.821624,0.002001,0.001011,0.002151,0.901453,-0.543502,-0.611874,-0.163318,-0.527360,0.006223
01324,369799,0.097527,-0.027325,9.839810,0.001165,0.001414,0.000576,0.901490,-0.543405,-0.613873,-0.163478,-0.527375,0.005477
01325,369899,0.083699,-0.025085,9.810848,0.000440,0.001401,0.002492,0.900992,-0.543896,-0.613899,-0.164055,-0.527415,0.006003
01326,369999,0.114738,-0.032810,9.823348,0.001893,0.003179,0.001574,0.900997,-0.540906,-0.613746,-0.163901,-0.526478,0.005147
01327,370099,0.100803,-0.013742,9.820825,0.003726,0.000609,0.002684,0.900478,-0.542441,-0.612823,-0.162594,-0.526925,0.005219
01328,370199,0.093819,-0.029785,9.810734,0.000263,0.000938,0.002370,0.900927,-0.544064,-0.610400,-0.163040,-0.526896,0.005046
01329,370299,0.100288,-0.016579,9.842355,0.002376,0.001744,0.001888,0.899958,-0.543976,-0.611900,-0.162393,-0.526608,0.004967
01330,370399,0.084900,-0.019581,9.829868,0.000710,0.002084,0.000781,0.903015,-0.542361,-0.615321,-0.162926,-0.526312,0.004213
01331,370499,0.100697,-0.023220,9.815336,0.001499,0.001677,0.001008,0.901473,-0.542955,-0.612848,-0.162851,-0.526088,0.003408
01332,370599,0.110799,-0.001204,9.828974,0.002079,0.001587,0.001811,0.901469,-0.545446,-0.612975,-0.162360,-0.525886,0.003765
01333,370699,0.098584,-0.002485,9.821440,-0.000225,0.002828,0.001002,0.901440,-0.546017,-0.611501,-0.163066,-0.524827,0.003526
01334,370799,0.098423,-0.003874,9.832395,0.000637,0.001382,0.001710,0.901465,-0.547439,-0.613076,-0.163330,-0.524720,0.004385
01335,370899,0.085019,-0.004973,9.827805,0.001440,0.001722,0.001918,0.901969,-0.543960,-0.612899,-0.163246,-0.524434,0.004342
01336,370999,0.104040,-0.016886,9.821285,0.002437,0.001448,0.001579,0.900977,-0.541951,-0.612797,-0.162677,-0.524387,0.003614
01337,371099,0.097088,-0.004203,9.819312,0.001946,0.001253,0.002015,0.902975,-0.543952,-0.613398,-0.162319,-0.524363,0.003632
01338,371199,0.092662,0.005076,9.820807,0.001661,-0.000745,0.001726,0.902973,-0.544948,-0.613449,-0.162086,-0.525470,0.003762
01339,371299,0.088517,-0.027846,9.830093,0.000525,-0.000443,0.001006,0.902982,-0.544924,-0.613949,-0.162531,-0.526451,0.003574
01340,371399,0.083030,-0.011731,9.826357,0.001934,0.001916,0.001868,0.902467,-0.543967,-0.612898,-0.162152,-0.526024,0.003458
01341,371499,0.093951,-0.017113,9.833498,0.002302,0.002266,0.001462,0.903980,-0.543943,-0.613898,-0.161599,-0.525410,0.003183
01342,371599,0.089821,-0.008763,9.840281,0.001705,0.001760,0.002594,0.901494,-0.546869,-0.614551,-0.161371,-0.525236,0.004662
01343,371699,0.086900,-0.019004,9.827811,0.001558,0.001277,0.001840,0.901980,-0.542939,-0.613347,-0.161284,-0.525266,0.004382
01344,371799,0.080875,-0.020671,9.837830,0.002447,0.000167,0.004184,0.900513,-0.543341,-0.614873,-0.160810,-0.526146,0.005956
01345,371899,0.101690,-0.031902,9.827668,0.001584,0.001341,0.004561,0.903454,-0.544008,-0.612398,-0.160598,-0.525942,0.007220
01346,371999,0.101137,-0.022861,9.816069,0.000220,0.001461,0.003664,0.902927,-0.544570,-0.610924,-0.161057,-0.525549,0.007860
01347,372099,0.099834,-0.021825,9.821213,0.001526,0.000669,0.002520,0.901968,-0.544458,-0.612924,-0.160911,-0.525858,0.008277
01348,372199,0.097334,-0.011612,9.841461,0.001090,0.001572,0.001325,0.902524,-0.543823,-0.615897,-0.161212,-0.525914,0.008394
01349,372299,0.101104,-0.034637,9.812445,0.000738,0.000546,0.002453,0.904988,-0.542938,-0.614346,-0.161610,-0.526286,0.008457
01350,372399,0.105043,-0.016963,9.832758,0.000160,0.001287,0.003046,0.902507,-0.542875,-0.614846,-0.162420,-0.526418,0.009107
01351,372499,0.080448,-0.019781,9.842563,-0.000902,0.001083,0.002795,0.902019,-0.542345,-0.615321,-0.163893,-0.526746,0.009601
01352,372599,0.086889,-0.020955,9.833021,0.001520,0.002721,0.001757,0.899946,-0.545495,-0.611476,-0.163649,-0.525833,0.009696
01353,372699,0.100906,-0.009309,9.827936,0.001761,0.001418,0.003349,0.902973,-0.544948,-0.613449,-0.163369,-0.525694,0.010753
01354,372799,0.107703,-0.023143,9.830809,0.001144,0.000174,0.002889,0.899957,-0.544475,-0.611925,-0.163412,-0.526299,0.011303
01355,372899,0.092410,-0.004435,9.829337,0.001461,0.001968,0.002112,0.899975,-0.544924,-0.612950,-0.163318,-0.525966,0.011736
01356,372999,0.081401,-0.013326,9.842837,0.000654,0.001470,0.001444,0.902961,-0.541010,-0.612246,-0.163727,-0.525757,0.010395
01357,373099,0.086627,-0.016147,9.831113,0.000884,0.000643,0.003685,0.898485,-0.542410,-0.612823,-0.164082,-0.526292,0.011167
01358,373199,0.101668,-0.026247,9.836097,0.001297,0.002172,0.002936,0.902455,-0.545985,-0.612500,-0.163976,-0.525641,0.012082
01359,373299,0.108048,-0.019594,9.817989,0.001079,0.001391,0.002833,0.901996,-0.544386,-0.614423,-0.164182,-0.525673,0.012939
01360,373399,0.098490,-0.036732,9.817523,0.001035,0.000136,0.002219,0.900043,-0.543261,-0.616372,-0.164611,-0.526733,0.013681
01361,373499,0.108058,-0.017052,9.821393,0.001994,0.002405,0.002405,0.901486,-0.545897,-0.614000,-0.164219,-0.526145,0.014649
01362,373599,0.087049,-0.034114,9.829134,0.002271,-0.000182,0.002202,0.900954,-0.543992,-0.611899,-0.163612,-0.526903,0.014589
01363,373699,0.077283,-0.012684,9.828419,0.002809,0.000617,0.001907,0.902948,-0.543525,-0.611873,-0.162676,-0.527101,0.014098
01364,373799,0.096118,-0.011043,9.819610,0.002970,0.002552,0.002905,0.901441,-0.545020,-0.611450,-0.161601,-0.526208,0.014597
01365,373899,0.099214,-0.024913,9.811266,0.002005,0.002878,0.001659,0.902975,-0.543952,-0.613398,-0.161209,-0.525251,0.014381
01366,373999,0.118932,-0.021947,9.843810,0.002067,0.002974,0.001404,0.903465,-0.542987,-0.612847,-0.160771,-0.524181,0.013619
01367,374099,0.113132,-0.023678,9.837212,0.001284,0.002129,0.001759,0.902478,-0.542947,-0.613347,-0.160835,-0.523698,0.013229
01368,374199,0.096532,-0.011940,9.836907,0.001213,0.001170,0.002653,0.900448,-0.543510,-0.611374,-0.160836,-0.523679,0.013255
01369,374299,0.110024,-0.022149,9.810889,0.000147,0.000845,0.001723,0.903484,-0.542939,-0.613847,-0.161563,-0.523924,0.012860
01370,374399,0.126299,-0.006844,9.818948,0.002058,0.001275,0.001157,0.901985,-0.545406,-0.613974,-0.161139,-0.523975,0.012930
01371,374499,0.095690,-0.020720,9.840084,0.000218,0.000837,0.000368,0.901446,-0.542529,-0.611323,-0.161707,-0.524109,0.011306
01372,374599,0.098542,-0.029733,9.836209,0.002652,0.000159,0.002318,0.901977,-0.544932,-0.613449,-0.160932,-0.524755,0.011814
01373,374699,0.104114,-0.025352,9.817893,0.001189,0.001512,0.001877,0.902503,-0.544868,-0.614948,-0.161080,-0.524739,0.012314
01374,374799,0.105021,-0.020994,9.840620,0.000348,0.000419,0.000696,0.905417,-0.545108,-0.610949,-0.161388,-0.524817,0.011159
01375,374899,0.109865,-0.019616,9.820636,0.002090,0.002866,0.003343,0.901461,-0.544474,-0.612424,-0.160901,-0.523854,0.011967
01376,374999,0.106322,-0.011427,9.829176,0.001455,0.000502,0.002098,0.902419,-0.545084,-0.610450,-0.160606,-0.524002,0.011731
01377,375099,0.101638,-0.020131,9.832889,0.001287,0.000364,0.000239,0.901002,-0.543373,-0.614373,-0.160733,-0.524702,0.010934
01378,375199,0.111155,-0.012943,9.835571,0.002390,0.000514,0.001799,0.899993,-0.544876,-0.613950,-0.160174,-0.525301,0.011401
01379,375299,0.095513,-0.013114,9.840090,0.001082,0.000915,0.000285,0.897505,-0.543840,-0.613900,-0.160434,-0.525820,0.010933
01380,375399,0.112023,-0.016255,9.823567,0.001100,0.000686,0.002187,0.903945,-0.543043,-0.611847,-0.160472,-0.525945,0.010388
01381,375499,0.106083,-0.021228,9.837808,0.000587,0.003181,0.002924,0.900462,-0.545953,-0.612501,-0.160812,-0.524837,0.011437
01382,375599,0.100044,-0.005980,9.815086,0.000479,0.002229,0.003131,0.902504,-0.544369,-0.614923,-0.161386,-0.524417,0.012517
01383,375699,0.103831,-0.023904,9.804684,-0.000759,0.001107,0.001244,0.901989,-0.543413,-0.613873,-0.162634,-0.524590,0.012103
01384,375799,0.092122,-0.006073,9.814000,0.000617,0.000054,0.000561,0.901499,-0.543880,-0.614398,-0.163113,-0.525432,0.011566
01385,375899,0.100443,-0.033370,9.820069,0.000454,0.001744,0.002750,0.900039,-0.545254,-0.616474,-0.163808,-0.525545,0.013170
01386,375999,0.071035,-0.014396,9.819825,0.000477,0.002715,0.001754,0.900965,-0.542971,-0.612348,-0.164285,-0.524716,0.012676
01387,376099,0.104473,-0.018252,9.824783,0.001197,0.000398,0.000956,0.899985,-0.544402,-0.613424,-0.164382,-0.525339,0.012410
01388,376199,0.109027,-0.029330,9.810026,0.001006,0.002592,0.000121,0.901980,-0.542939,-0.613347,-0.164593,-0.524622,0.011115
01389,376299,0.100773,-0.009902,9.830380,0.001688,0.001226,0.002011,0.901979,-0.543437,-0.613373,-0.164406,-0.524678,0.011047
01390,376399,0.107434,-0.009371,9.832836,0.001344,0.001410,0.002511,0.900506,-0.542369,-0.614322,-0.164541,-0.524814,0.011278
01391,376499,0.087779,-0.012635,9.828741,0.000888,0.001351,0.002676,0.898999,-0.543864,-0.613899,-0.164889,-0.524995,0.012037
01392,376599,0.107770,-0.019088,9.828176,0.000571,0.003046,0.002492,0.900963,-0.544466,-0.612424,-0.165269,-0.523956,0.012398
01393,376699,0.083682,-0.028169,9.820295,0.001975,0.000652,0.003715,0.901981,-0.542441,-0.613322,-0.164957,-0.524352,0.013007
01394,376799,0.100035,-0.009060,9.822662,0.001585,0.002787,0.001146,0.898976,-0.546403,-0.613026,-0.164761,-0.523589,0.013418
01395,376899,0.108053,-0.027289,9.824927,0.002163,0.001053,0.001216,0.904018,-0.543847,-0.615897,-0.164403,-0.523865,0.013361
01396,376999,0.099595,-0.026672,9.840358,0.002590,0.000444,0.002042,0.900484,-0.543912,-0.613399,-0.163713,-0.524444,0.013535
01397,377099,0.090489,-0.002727,9.822959,0.001668,0.000775,0.003589,0.902538,-0.540810,-0.616244,-0.163798,-0.525040,0.014159
01398,377199,0.100180,-0.015119,9.826613,0.002030,0.000562,0.002643,0.901987,-0.544410,-0.613924,-0.163419,-0.525508,0.014811
01399,377299,0.111249,-0.015194,9.827418,0.002302,0.000671,0.000536,0.903461,-0.545478,-0.612974,-0.162751,-0.525733,0.014264
01400,377399,0.102247,-0.006228,9.827251,0.002343,0.002153,0.001677,0.901460,-0.544972,-0.612450,-0.162087,-0.525176,0.014252
01401,377499,0.093309,-0.028423,9.837551,0.002377,0.001252,0.002229,0.901935,-0.547519,-0.611577,-0.161263,-0.524981,0.015057
01402,377599,0.091292,-0.013005,9.829718,0.000521,-0.000281,0.002257,0.899960,-0.542980,-0.611849,-0.161702,-0.525878,0.014774
01403,377699,0.084845,-0.033906,9.827126,-0.000159,0.002348,0.002259,0.902988,-0.541934,-0.613796,-0.162629,-0.525307,0.014420
01404,377799,0.116730,-0.021361,9.821320,0.002245,-0.000132,0.002427,0.901041,-0.542281,-0.616321,-0.162360,-0.526481,0.014913
01405,377899,0.097916,-0.019709,9.816391,0.002502,0.000405,0.002922,0.901441,-0.545519,-0.611475,-0.161534,-0.526822,0.015557
01406,377999,0.091081,-0.019405,9.817846,0.000910,0.002202,0.002137,0.902478,-0.542947,-0.613347,-0.161797,-0.526301,0.015348
01407,378099,0.084018,-0.015912,9.809745,0.001756,0.000252,0.000740,0.901002,-0.543373,-0.614373,-0.161644,-0.527060,0.014776
01408,378199,0.103913,-0.028460,9.825033,0.002231,0.000023,0.001674,0.901011,-0.543848,-0.614898,-0.161240,-0.527986,0.014976
01409,378299,0.092658,-0.025349,9.818930,0.000759,0.000423,0.001667,0.902471,-0.541975,-0.612797,-0.161580,-0.528450,0.014106
01410,378399,0.097995,-0.008272,9.814352,0.002825,0.000137,0.001086,0.902477,-0.543943,-0.613398,-0.160708,-0.529095,0.013580
01411,378499,0.092592,-0.033642,9.836459,0.000849,0.000185,0.002324,0.900001,-0.545849,-0.614500,-0.161029,-0.529901,0.014700
01412,378599,0.102130,-0.020212,9.830772,0.001110,-0.001644,0.002710,0.903471,-0.544956,-0.613449,-0.161098,-0.531492,0.015330
01413,378699,0.115348,-0.011809,9.826536,0.002410,0.001673,0.000315,0.901989,-0.542915,-0.613847,-0.160525,-0.531340,0.014192
01414,378799,0.102558,-0.016717,9.825575,0.001639,-0.000536,0.001095,0.900468,-0.542465,-0.612323,-0.160347,-0.532401,0.013156
01415,378899,0.086094,-0.014497,9.821398,0.001085,0.002277,0.002195,0.903975,-0.541974,-0.613296,-0.160500,-0.531764,0.012580
01416,378999,0.097007,-0.016213,9.828891,0.002439,0.002533,0.001585,0.903442,-0.545526,-0.611974,-0.159692,-0.530826,0.012386
01417,379099,0.080716,-0.016054,9.829557,0.001047,0.000618,0.001422,0.900962,-0.544964,-0.612450,-0.159775,-0.531165,0.012243
01418,379199,0.115139,-0.009687,9.820891,0.001450,0.001207,0.000942,0.900951,-0.545985,-0.612001,-0.159565,-0.531109,0.012008
01419,379299,0.097749,-0.011338,9.835638,0.001691,0.001627,0.001912,0.901445,-0.543027,-0.611348,-0.159265,-0.530785,0.011349
01420,379399,0.089688,-0.015850,9.820593,0.000601,0.002158,0.001063,0.901471,-0.543952,-0.612899,-0.159652,-0.530279,0.010788
01421,379499,0.097357,-0.032477,9.841538,0.001510,-0.000098,0.001705,0.902514,-0.543847,-0.615397,-0.159659,-0.531236,0.011005
01422,379599,0.090654,-0.019855,9.821965,0.002191,0.002757,0.002312,0.903480,-0.544932,-0.613949,-0.159137,-0.530358,0.011481
01423,379699,0.094345,-0.017029,9.826017,0.000874,0.001154,0.001534,0.903004,-0.543381,-0.614872,-0.159481,-0.530535,0.011338
01424,379799,0.087967,-0.021718,9.831190,0.000289,0.000680,0.001908,0.901478,-0.545422,-0.613475,-0.160040,-0.530896,0.011774
01425,379899,0.100170,-0.010225,9.824597,0.000326,-0.000939,0.001117,0.902475,-0.544940,-0.613449,-0.160566,-0.532139,0.011554
01426,379999,0.100609,0.006253,9.819777,0.001115,0.002504,0.002027,0.902049,-0.540778,-0.616744,-0.160983,-0.531806,0.011451
01427,380099,0.083963,-0.022922,9.825850,0.002727,0.001010,0.002285,0.899056,-0.543221,-0.616872,-0.160468,-0.532446,0.012382
01428,380199,0.097869,-0.005266,9.837931,0.000436,-0.000088,0.001956,0.900494,-0.543888,-0.613899,-0.161029,-0.533359,0.012567
01429,380299,0.098768,-0.029422,9.818274,0.000107,0.000186,0.001245,0.899483,-0.546885,-0.613551,-0.161682,-0.534076,0.013170
01430,380399,0.096049,-0.012366,9.819509,0.002013,0.002017,0.002315,0.903452,-0.545004,-0.612449,-0.161163,-0.533478,0.013410
01431,380499,0.114036,-0.028499,9.818758,0.003260,0.002047,0.001425,0.902473,-0.545936,-0.613500,-0.159981,-0.532994,0.013672
01432,380599,0.083397,-0.034779,9.834994,0.000868,0.001969,0.001235,0.902470,-0.542473,-0.612822,-0.160234,-0.532561,0.012706
01433,380699,0.090304,-0.020357,9.835583,0.001427,-0.000181,0.000878,0.901013,-0.542353,-0.614822,-0.160315,-0.533616,0.011996
01434,380799,0.090934,-0.034897,9.834970,0.002351,0.000329,0.001052,0.899488,-0.543896,-0.613399,-0.159765,-0.534296,0.011602
01435,380899,0.097483,-0.027845,9.831656,0.002856,0.002186,0.001802,0.902447,-0.545012,-0.611949,-0.158753,-0.533610,0.011501
01436,380999,0.094076,-0.014070,9.830357,0.003736,0.002372,0.004349,0.903462,-0.544980,-0.612949,-0.157296,-0.532856,0.013000
01437,381099,0.097101,-0.031885,9.817142,0.000200,0.000991,0.001446,0.902968,-0.542481,-0.612822,-0.157926,-0.532959,0.012136
01438,381199,0.087560,-0.009409,9.832860,0.002852,0.001921,0.002060,0.901501,-0.542883,-0.614347,-0.157149,-0.532732,0.012137
01439,381299,0.099980,-0.010418,9.827561,0.001000,0.000994,0.001192,0.901473,-0.542955,-0.612848,-0.157334,-0.532903,0.011345
01440,381399,0.090253,-0.025498,9.820307,0.001962,0.001833,0.000574,0.900004,-0.544354,-0.614424,-0.157049,-0.532783,0.011020
01441,381499,0.108444,-0.031304,9.829743,0.001237,0.002184,0.002052,0.901957,-0.545478,-0.612475,-0.156998,-0.532166,0.011327
01442,381599,0.104880,-0.020457,9.822214,0.001943,0.000858,0.001465,0.900973,-0.543944,-0.612899,-0.156629,-0.532428,0.011012
01443,381699,0.085817,-0.019698,9.825689,0.002715,0.001116,0.002150,0.900964,-0.543968,-0.612399,-0.155792,-0.532496,0.010991
01444,381799,0.108893,-0.019482,9.831953,0.000573,-0.000399,0.002499,0.901989,-0.542915,-0.613847,-0.156282,-0.533528,0.011120
01445,381899,0.093834,-0.005911,9.844530,0.002720,-0.000094,0.002195,0.902061,-0.544715,-0.617947,-0.155732,-0.534709,0.012435
01446,381999,0.093102,-0.022484,9.817154,0.002308,0.000255,0.002686,0.900005,-0.543856,-0.614399,-0.155271,-0.535493,0.013131
01447,382099,0.090477,-0.019748,9.833795,0.000843,-0.000184,0.001909,0.899957,-0.544475,-0.611925,-0.155477,-0.536298,0.013037
01448,382199,0.105241,-0.026986,9.822238,0.001655,0.001380,0.001870,0.899936,-0.546017,-0.611002,-0.155119,-0.536096,0.013181
01449,382299,0.076508,-0.017236,9.820063,0.001976,0.001474,0.001240,0.900495,-0.542891,-0.613848,-0.154825,-0.536128,0.012625
01450,382399,0.082353,-0.014567,9.842551,0.000867,0.000662,0.001399,0.900484,-0.543912,-0.613399,-0.155111,-0.536563,0.012370
01451,382499,0.088140,-0.033059,9.810478,0.000813,0.001771,0.001675,0.900042,-0.543760,-0.616398,-0.155624,-0.536653,0.012881
01452,382599,0.101630,-0.009564,9.821338,0.000074,0.001377,0.002256,0.900525,-0.541823,-0.615296,-0.156540,-0.536884,0.012877
01453,382699,0.097379,-0.010520,9.819009,0.001122,0.003460,0.002470,0.900989,-0.545390,-0.613975,-0.156667,-0.535710,0.013764
01454,382799,0.101905,-0.004455,9.821040,0.003875,0.000135,0.003730,0.899964,-0.545945,-0.612501,-0.155141,-0.536349,0.015275
01455,382899,0.088554,-0.008095,9.805030,0.002190,0.001722,0.001944,0.900045,-0.542265,-0.616322,-0.154900,-0.536492,0.015423
01456,382999,0.103170,-0.011002,9.815228,0.001261,-0.000369,0.002657,0.901485,-0.541436,-0.613271,-0.155005,-0.537504,0.015017
01457,383099,0.092881,-0.005620,9.824074,0.001851,0.001599,0.001273,0.904469,-0.543975,-0.613398,-0.154644,-0.537202,0.014486
01458,383199,0.102110,-0.033739,9.817369,0.002762,0.001304,0.002295,0.899507,-0.543350,-0.614373,-0.153941,-0.537414,0.014807
01459,383299,0.104012,-0.002754,9.833993,-0.000228,0.002014,0.001791,0.903446,-0.548491,-0.612627,-0.154622,-0.536765,0.015821
01460,383399,0.102094,-0.013142,9.818870,0.000042,0.001149,0.002703,0.903419,-0.543107,-0.610348,-0.155169,-0.536520,0.015279
01461,383499,0.094720,-0.020895,9.819764,0.002269,-0.000060,0.003348,0.902976,-0.543453,-0.613373,-0.154622,-0.537248,0.015850
01462,383599,0.095143,-0.025332,9.840406,0.000140,0.002005,0.001430,0.900996,-0.541404,-0.613771,-0.155404,-0.536971,0.014896
01463,383699,0.086560,-0.021040,9.830380,0.001125,0.000547,0.002741,0.902017,-0.543341,-0.615372,-0.155650,-0.537576,0.015557
01464,383799,0.088761,-0.005705,9.827459,0.000357,0.000651,0.001385,0.901967,-0.544956,-0.612949,-0.156138,-0.537879,0.015407
01465,383899,0.099632,-0.006572,9.823586,0.002260,0.002722,0.002715,0.901958,-0.544980,-0.612450,-0.155514,-0.536952,0.015917
01466,383999,0.102979,-0.015929,9.825033,0.002752,-0.000122,0.001311,0.903471,-0.544956,-0.613449,-0.154631,-0.537670,0.015749
01467,384099,0.091487,-0.006849,9.828044,0.000845,0.001467,0.000449,0.901490,-0.543405,-0.613873,-0.154942,-0.537646,0.014828
01468,384199,0.093523,-0.013731,9.836871,0.001270,0.000301,0.001234,0.901014,-0.541855,-0.614796,-0.155120,-0.538423,0.014123
01469,384299,0.093663,-0.024516,9.829599,0.000974,-0.000016,0.002583,0.900977,-0.541951,-0.612797,-0.155353,-0.539202,0.013795
01470,384399,0.096603,-0.018983,9.834643,0.002344,0.002508,0.002065,0.901500,-0.543381,-0.614373,-0.154843,-0.538620,0.013904
01471,384499,0.106279,-0.011179,9.828217,0.000428,0.003065,0.001468,0.902475,-0.544940,-0.613449,-0.155310,-0.537562,0.013866
01472,384599,0.100831,-0.017541,9.820218,0.003560,0.000885,0.001610,0.901457,-0.546965,-0.612551,-0.153896,-0.537684,0.014370
01473,384699,0.084220,-0.011998,9.816909,0.001122,-0.000094,0.001930,0.898926,-0.543060,-0.609850,-0.153876,-0.538332,0.013482
01474,384799,0.100153,-0.023236,9.850962,0.000823,0.001705,0.002371,0.899520,-0.541831,-0.614797,-0.154348,-0.538376,0.013540
01475,384899,0.087675,-0.014551,9.811152,-0.000146,0.001521,0.001486,0.900492,-0.544884,-0.613950,-0.155215,-0.538342,0.013740
01476,384999,0.097046,-0.014087,9.836287,0.002505,0.000411,0.001555,0.901963,-0.547447,-0.613076,-0.154412,-0.538745,0.014437
01477,385099,0.097723,-0.004718,9.801370,0.000796,0.001074,0.001725,0.904014,-0.545840,-0.615998,-0.154765,-0.538954,0.015266
01478,385199,0.110498,0.003360,9.825356,0.001816,0.002361,0.003082,0.900941,-0.546507,-0.611526,-0.154319,-0.538173,0.016298
01479,385299,0.092003,-0.013979,9.819073,0.000103,0.000901,0.001439,0.901472,-0.543453,-0.612873,-0.154996,-0.538383,0.015733
01480,385399,0.093175,-0.025222,9.820938,-0.000063,-0.000510,0.001203,0.901023,-0.541831,-0.615296,-0.155961,-0.539664,0.015080
01481,385499,0.081300,-0.029679,9.826786,-0.000266,0.001593,0.002217,0.901995,-0.544884,-0.614449,-0.156896,-0.539554,0.015699
01482,385599,0.100284,-0.013559,9.830613,0.001733,0.002068,0.002225,0.899956,-0.544973,-0.611950,-0.156577,-0.539054,0.015916
01483,385699,0.101409,-0.026594,9.825826,0.002242,0.000395,0.002905,0.902955,-0.544498,-0.612424,-0.155952,-0.539414,0.016343
01484,385799,0.093158,-0.018623,9.835923,0.001184,0.000796,0.002698,0.899459,-0.544466,-0.611925,-0.155972,-0.539673,0.016694
01485,385899,0.097613,-0.021539,9.818185,0.001526,0.001247,0.002457,0.899467,-0.544940,-0.612450,-0.155814,-0.539710,0.017166
01486,385999,0.092906,-0.017704,9.804620,0.000973,0.004121,0.002244,0.900987,-0.541429,-0.613271,-0.156086,-0.538171,0.016547
01487,386099,0.106230,-0.021001,9.825719,0.000218,0.001512,0.002634,0.900981,-0.544418,-0.613424,-0.156721,-0.538078,0.017100
01488,386199,0.112791,-0.012312,9.842664,0.001750,-0.000395,0.000009,0.903425,-0.545076,-0.610950,-0.156251,-0.538736,0.015687
01489,386299,0.086148,0.009673,9.838207,0.000495,0.002277,0.002140,0.904456,-0.545992,-0.612999,-0.156586,-0.537970,0.016118
01490,386399,0.092829,-0.006171,9.827382,0.000576,0.002045,0.001891,0.900970,-0.545937,-0.613000,-0.156944,-0.537508,0.016601
01491,386499,0.112970,-0.025475,9.826768,0.002675,0.001192,0.000907,0.900980,-0.545414,-0.613475,-0.156137,-0.537589,0.016468
01492,386599,0.092848,-0.011168,9.818429,0.001768,0.001060,0.002803,0.900007,-0.542361,-0.614322,-0.156010,-0.537925,0.016729
01493,386699,0.099109,-0.016635,9.819943,0.001851,0.001252,0.001763,0.901980,-0.542939,-0.613347,-0.155718,-0.537960,0.016270
01494,386799,0.095855,-0.013798,9.833372,0.003061,0.000262,0.001765,0.900990,-0.544892,-0.613949,-0.154736,-0.538624,0.016570
01495,386899,0.092737,-0.033785,9.825224,0.001222,0.000152,0.002511,0.902976,-0.543453,-0.613373,-0.154776,-0.539230,0.016642
01496,386999,0.098059,-0.006066,9.828419,0.001498,0.000655,0.001452,0.903481,-0.544434,-0.613923,-0.154648,-0.539553,0.016483
01497,387099,0.101264,-0.033778,9.835607,0.002323,0.000447,0.001926,0.899969,-0.542956,-0.612349,-0.154067,-0.540057,0.016013
01498,387199,0.099784,0.001359,9.828056,0.001968,0.002305,0.002117,0.900483,-0.544410,-0.613424,-0.153704,-0.539537,0.016287
01499,387299,0.105586,-0.024326,9.823401,0.002659,0.001520,0.001709,0.900972,-0.544442,-0.612924,-0.152905,-0.539401,0.016203
01500,387399,0.085578,-0.009067,9.834976,0.002425,0.001735,0.003039,0.901011,-0.543349,-0.614872,-0.152390,-0.539328,0.016961
01501,387499,0.091475,-0.026255,9.828366,0.000639,0.002431,0.002099,0.902446,-0.545510,-0.611975,-0.152638,-0.538497,0.017131
01502,387599,0.075278,-0.019505,9.837503,0.001175,0.001983,0.001972,0.903472,-0.544458,-0.613423,-0.152673,-0.538019,0.017167
01503,387699,0.119022,-0.037507,9.822501,0.000334,0.002106,0.003350,0.902435,-0.541573,-0.610772,-0.153139,-0.537350,0.016644
01504,387799,0.109790,-0.019707,9.824838,0.001066,0.003179,0.001681,0.904942,-0.542561,-0.611822,-0.153162,-0.536022,0.015513
01505,387899,0.111619,-0.028202,9.837712,0.002752,0.001496,0.002631,0.899969,-0.542956,-0.612349,-0.152348,-0.535933,0.015524
01506,387999,0.099067,-0.010128,9.826333,0.001804,0.001135,0.000874,0.901958,-0.544980,-0.612450,-0.151978,-0.535927,0.014952
01507,388099,0.112147,-0.009635,9.827072,0.000097,0.000832,0.003488,0.900004,-0.544354,-0.614424,-0.152772,-0.536364,0.016288
01508,388199,0.091190,-0.010504,9.809758,0.001670,0.002653,0.001270,0.900466,-0.543960,-0.612399,-0.152534,-0.535576,0.015770
01509,388299,0.108985,-0.008351,9.821135,0.000110,0.000415,0.000454,0.901049,-0.542755,-0.616846,-0.153467,-0.536445,0.015350
01510,388399,0.089059,-0.021233,9.836174,0.001666,0.002342,0.000064,0.900954,-0.543992,-0.611899,-0.153184,-0.535770,0.014011
01511,388499,0.113167,-0.009024,9.822535,-0.000601,-0.001257,0.000603,0.900506,-0.541871,-0.614297,-0.154405,-0.537421,0.012934
01512,388599,0.113662,-0.015640,9.824748,0.002455,0.001406,0.001873,0.899463,-0.542474,-0.611823,-0.153742,-0.537372,0.012323
01513,388699,0.095905,-0.026814,9.831965,0.002507,0.000328,0.004224,0.899949,-0.544000,-0.611400,-0.152987,-0.537846,0.013367
01514,388799,0.097673,-0.028186,9.831238,0.000294,0.000986,0.002775,0.899442,-0.543518,-0.610875,-0.153486,-0.537933,0.013394
01515,388899,0.105267,-0.019394,9.822262,0.000678,0.000623,0.003482,0.903445,-0.544032,-0.611898,-0.153730,-0.538116,0.013751
01516,388999,0.080722,-0.023035,9.828366,0.002380,0.002432,0.002817,0.903992,-0.542424,-0.614321,-0.153172,-0.537476,0.013735
01517,389099,0.097713,-0.016663,9.826976,0.000441,0.000539,0.002675,0.903012,-0.543855,-0.615397,-0.153770,-0.538027,0.014372
01518,389199,0.091312,-0.026382,9.834481,0.001200,0.000160,0.001921,0.901978,-0.543936,-0.613398,-0.153830,-0.538674,0.014290
01519,389299,0.094541,-0.018325,9.811670,0.002277,0.000319,0.001800,0.902447,-0.545012,-0.611949,-0.153148,-0.539063,0.014058
01520,389399,0.101965,0.000434,9.822853,0.002413,0.002681,0.001468,0.901444,-0.543526,-0.611374,-0.152413,-0.538130,0.013234
01521,389499,0.103626,-0.017273,9.835453,0.002452,0.001375,0.002028,0.902486,-0.543919,-0.613898,-0.151777,-0.538103,0.013253
01522,389599,0.100050,-0.037170,9.839243,0.002818,-0.000695,0.003680,0.899983,-0.545399,-0.613475,-0.150930,-0.539308,0.014824
01523,389699,0.110587,-0.031144,9.839661,0.000854,0.001165,0.001639,0.898973,-0.542940,-0.612349,-0.151217,-0.539451,0.014444
01524,389799,0.093822,-0.027063,9.828961,0.001680,0.000752,0.002440,0.902458,-0.543992,-0.612399,-0.150936,-0.539651,0.014385
01525,389899,0.090634,-0.031428,9.849901,0.002099,0.002314,0.000229,0.903934,-0.544064,-0.611398,-0.150312,-0.538807,0.012677
01526,389999,0.086640,0.006055,9.821755,0.001589,0.000999,0.002891,0.901970,-0.543461,-0.612873,-0.150139,-0.538939,0.012909
01527,390099,0.084758,-0.017685,9.809805,0.000995,0.001574,0.003033,0.902457,-0.544490,-0.612424,-0.150244,-0.538662,0.013318
01528,390199,0.103731,-0.040173,9.803803,0.000881,0.001300,0.002227,0.899991,-0.540915,-0.613246,-0.150609,-0.538794,0.012885
01529,390299,0.103411,-0.023056,9.829641,0.002303,0.001281,0.001562,0.899988,-0.542907,-0.613348,-0.150110,-0.538908,0.012618
01530,390399,0.089356,-0.012075,9.837808,0.001488,0.002844,0.002830,0.901968,-0.544458,-0.612924,-0.149974,-0.537969,0.013075
01531,390499,0.114819,-0.017383,9.824038,0.002170,0.000553,0.002559,0.901912,-0.544602,-0.609925,-0.149264,-0.538094,0.012770
01532,390599,0.106603,-0.018370,9.821725,-0.000456,-0.000372,0.001980,0.901443,-0.544024,-0.611399,-0.150168,-0.538903,0.012380
01533,390699,0.103780,-0.008098,9.816081,0.000797,0.000927,0.001252,0.902982,-0.545422,-0.613974,-0.150431,-0.539087,0.012216
01534,390799,0.104881,-0.025778,9.830738,0.001488,0.001202,0.001301,0.898508,-0.544828,-0.614450,-0.150443,-0.539367,0.012780
01535,390899,0.090270,-0.008105,9.836066,0.003678,0.001000,0.001459,0.900495,-0.542891,-0.613848,-0.149172,-0.539661,0.012479
01536,390999,0.099957,-0.020373,9.846247,0.001230,0.001695,0.002697,0.899977,-0.543928,-0.612899,-0.149239,-0.539479,0.013024
01537,391099,0.102441,0.009274,9.836460,-0.000002,0.001366,0.000449,0.901951,-0.544008,-0.611899,-0.149891,-0.539315,0.011780
01538,391199,0.093574,0.004241,9.819162,0.002984,0.000829,0.000899,0.901990,-0.542417,-0.613822,-0.148991,-0.539648,0.010801
01539,391299,0.108611,-0.017232,9.830917,0.000502,0.001102,0.002705,0.902954,-0.544996,-0.612449,-0.149349,-0.539613,0.011047
01540,391399,0.090074,-0.003993,9.811807,0.002442,0.000627,0.001204,0.902487,-0.543421,-0.613873,-0.148724,-0.540023,0.010428
01541,391499,0.101263,-0.023711,9.837813,0.001470,0.001315,0.001744,0.902469,-0.542971,-0.612847,-0.148611,-0.539963,0.009788
01542,391599,0.087632,-0.023883,9.827639,0.001357,0.002888,0.001806,0.901997,-0.543887,-0.614398,-0.148644,-0.539135,0.009829
01543,391699,0.091350,-0.015489,9.813708,0.000540,-0.000610,0.001871,0.901948,-0.545502,-0.611975,-0.148956,-0.540079,0.009779
01544,391799,0.102031,-0.009577,9.815443,0.001365,-0.000118,0.000541,0.902935,-0.545542,-0.611475,-0.148734,-0.540656,0.008697
01545,391899,0.095086,-0.035803,9.835012,0.001041,0.002198,0.003213,0.901021,-0.542827,-0.615347,-0.149061,-0.540360,0.009667
01546,391999,0.100334,-0.016997,9.836978,0.002976,0.000203,0.001728,0.903017,-0.546322,-0.616024,-0.148174,-0.541108,0.010414
01547,392099,0.108942,-0.015042,9.841776,0.000412,0.000065,0.000552,0.900006,-0.542859,-0.614348,-0.148806,-0.541999,0.009792
01548,392199,0.096055,-0.015525,9.797592,0.002964,0.001166,0.000888,0.903453,-0.544506,-0.612424,-0.147743,-0.541913,0.008797
01549,392299,0.100760,-0.008094,9.836704,0.002207,0.000885,0.001552,0.903430,-0.547045,-0.611551,-0.146998,-0.541869,0.008599
01550,392399,0.097513,-0.016868,9.812195,0.002572,0.000731,0.001964,0.902458,-0.543992,-0.612399,-0.146201,-0.542086,0.008247
01551,392499,0.105438,-0.014755,9.828354,0.003239,0.000780,0.002178,0.903491,-0.543911,-0.614398,-0.145121,-0.542395,0.008258
01552,392599,0.100718,-0.022463,9.836955,0.001140,0.002583,0.000736,0.899505,-0.544844,-0.614450,-0.145304,-0.541839,0.008333
01553,392699,0.083906,-0.019610,9.816391,0.002071,0.000843,0.001681,0.900436,-0.545029,-0.610951,-0.144726,-0.541945,0.008082
01554,392799,0.116171,-0.011739,9.804762,0.001804,0.000571,0.002806,0.902002,-0.546355,-0.615025,-0.144478,-0.542445,0.009404
01555,392899,0.100934,-0.018482,9.828950,0.001495,0.002320,0.001777,0.901005,-0.546837,-0.615050,-0.144413,-0.541983,0.010414
01556,392999,0.093310,-0.017218,9.827305,0.001887,0.001843,0.002843,0.900943,-0.545012,-0.611450,-0.143968,-0.541534,0.010840
01557,393099,0.101516,-0.025628,9.822423,0.000808,0.001870,0.002949,0.900464,-0.544956,-0.612450,-0.144212,-0.541176,0.011592
01558,393199,0.104824,-0.023125,9.825523,-0.000181,0.002589,0.001901,0.900512,-0.544338,-0.614923,-0.145178,-0.540621,0.012107
01559,393299,0.095689,-0.026443,9.811074,0.001075,0.001095,0.002128,0.901026,-0.545792,-0.615999,-0.145440,-0.540957,0.013263
01560,393399,0.106078,-0.009788,9.808058,0.002070,0.000857,0.001208,0.902450,-0.543517,-0.611873,-0.144912,-0.541072,0.012272
01561,393499,0.107977,-0.028057,9.824557,0.001102,0.001629,0.002157,0.901956,-0.545977,-0.612500,-0.144929,-0.540769,0.012638
01562,393599,0.096120,-0.004125,9.846313,0.002059,0.001662,0.001634,0.899964,-0.545945,-0.612501,-0.144439,-0.540541,0.012951
01563,393699,0.100550,-0.020772,9.830994,0.000741,0.001146,0.000792,0.902006,-0.544362,-0.614923,-0.144837,-0.540747,0.012631
01564,393799,0.089941,-0.015122,9.809285,0.000603,-0.000067,0.001015,0.903013,-0.543357,-0.615372,-0.145343,-0.541656,0.012160
01565,393899,0.094201,-0.011585,9.822132,0.001639,0.003244,0.001946,0.901528,-0.543309,-0.615872,-0.145323,-0.540778,0.012488
01566,393999,0.087456,-0.015012,9.831626,0.001644,0.001366,0.002282,0.901977,-0.544932,-0.613449,-0.145112,-0.540723,0.012874
01567,394099,0.106536,-0.028206,9.835775,0.002426,0.001599,0.002842,0.902973,-0.544948,-0.613449,-0.144434,-0.540490,0.013475
01568,394199,0.101170,-0.010930,9.822858,0.001253,0.001398,0.001612,0.900436,-0.545029,-0.610951,-0.144331,-0.540282,0.013149
01569,394299,0.096944,-0.019711,9.815723,0.000619,0.001268,0.000394,0.901491,-0.542907,-0.613847,-0.144781,-0.540382,0.012070
01570,394399,0.103516,-0.011006,9.824800,0.000699,-0.000496,0.002576,0.900019,-0.540843,-0.614746,-0.145331,-0.541668,0.012054
01571,394499,0.081156,-0.015728,9.831638,-0.000197,0.001485,0.001479,0.902938,-0.543550,-0.611373,-0.146062,-0.541358,0.011075
01572,394599,0.107714,-0.021103,9.839751,0.003357,0.001649,0.002074,0.903483,-0.543437,-0.613872,-0.144897,-0.541138,0.010858
01573,394699,0.106808,-0.021117,9.842909,0.001591,0.000067,-0.000476,0.903968,-0.545462,-0.613474,-0.144645,-0.541733,0.009545
01574,394799,0.098390,-0.021513,9.819766,0.000207,0.003262,0.000505,0.900918,-0.543590,-0.609874,-0.145097,-0.540377,0.007967
01575,394899,0.092651,-0.016309,9.820569,0.000974,0.000562,0.002904,0.902955,-0.544498,-0.612424,-0.145203,-0.540664,0.008254
01576,394999,0.110101,-0.021171,9.820189,0.001366,0.002678,0.001412,0.902513,-0.544345,-0.615422,-0.145264,-0.540009,0.008339
01577,395099,0.107649,-0.016437,9.828067,0.000548,0.000419,0.002729,0.902520,-0.545816,-0.615999,-0.145796,-0.540663,0.009652
01578,395199,0.109699,-0.022897,9.818031,0.002742,0.003221,0.001459,0.902954,-0.545494,-0.612475,-0.144861,-0.539417,0.009385
01579,395299,0.085556,-0.015627,9.824979,0.002584,-0.000608,0.001473,0.904933,-0.547543,-0.612076,-0.143899,-0.540202,0.009299
01580,395399,0.091464,-0.024718,9.824980,0.001357,0.000342,0.002301,0.900974,-0.543446,-0.612873,-0.143880,-0.540763,0.009336
01581,395499,0.104969,-0.013207,9.818548,0.002478,0.000494,0.001634,0.902489,-0.542425,-0.613822,-0.143262,-0.541267,0.008768
01582,395599,0.074507,-0.026753,9.843469,0.002035,0.000452,0.002609,0.902027,-0.542819,-0.615846,-0.143021,-0.541969,0.009331
01583,395699,0.101418,-0.033442,9.813458,0.001886,0.000474,0.002094,0.902983,-0.544426,-0.613923,-0.142691,-0.542428,0.009460
01584,395799,0.092045,-0.012729,9.831453,0.001284,0.001501,0.001459,0.904921,-0.544103,-0.610898,-0.142494,-0.541975,0.008294
01585,395899,0.101416,-0.007905,9.826471,0.001577,0.002570,0.002839,0.902485,-0.544418,-0.613923,-0.142356,-0.541257,0.008904
01586,395999,0.110567,-0.016521,9.806402,-0.000425,0.001806,0.002012,0.900481,-0.545905,-0.613500,-0.143342,-0.541004,0.009539
01587,396099,0.076911,-0.005066,9.851611,0.000747,0.001744,0.001366,0.902001,-0.541894,-0.614296,-0.143766,-0.540861,0.008866
01588,396199,0.093531,-0.010486,9.834874,0.001574,0.000375,0.002881,0.903016,-0.541862,-0.615295,-0.143761,-0.541536,0.009143
01589,396299,0.100005,-0.021819,9.828915,0.002012,0.002654,0.003454,0.901475,-0.541959,-0.612797,-0.143395,-0.540770,0.009427
01590,396399,0.097730,-0.010549,9.816796,0.001856,0.000314,0.000915,0.901966,-0.545953,-0.613000,-0.143005,-0.541265,0.009151
01591,396499,0.090967,-0.031753,9.826745,0.000710,0.001729,0.001807,0.902429,-0.544562,-0.610924,-0.143183,-0.540787,0.008578
01592,396599,0.091151,-0.015320,9.833253,0.002775,0.000528,0.001614,0.902951,-0.546989,-0.612551,-0.142199,-0.541060,0.008700
01593,396699,0.090011,-0.025748,9.813095,0.001509,0.001284,0.002601,0.902456,-0.544988,-0.612449,-0.142002,-0.540951,0.008991
01594,396799,0.102268,-0.018577,9.837579,0.000566,-0.000813,0.004000,0.901040,-0.542779,-0.616346,-0.142662,-0.542456,0.010593
01595,396899,0.096393,-0.028173,9.827465,0.000562,0.000705,0.002668,0.902031,-0.545784,-0.616499,-0.143228,-0.543003,0.011991
01596,396999,0.097774,-0.021294,9.815806,-0.000171,-0.000089,0.001395,0.904463,-0.542505,-0.612822,-0.144024,-0.543664,0.010887
01597,397099,0.112043,-0.024790,9.813578,0.003529,0.001000,0.001501,0.900437,-0.544531,-0.610925,-0.142629,-0.543688,0.010358
01598,397199,0.107680,-0.010002,9.843626,0.002314,0.003674,0.001705,0.902928,-0.544072,-0.610899,-0.141889,-0.542081,0.009540
01599,397299,0.094570,-0.006477,9.825529,0.000647,0.001796,0.000948,0.902504,-0.544369,-0.614923,-0.142333,-0.541888,0.009256
01600,397399,0.103851,-0.011003,9.819162,-0.000329,0.001057,0.002881,0.900518,-0.540850,-0.614746,-0.143466,-0.542254,0.009528
01601,397499,0.090587,-0.013719,9.821266,0.000665,0.000363,0.002650,0.902019,-0.542345,-0.615321,-0.143990,-0.542968,0.009923
01602,397599,0.091604,-0.017922,9.824331,0.002466,0.002362,0.000754,0.901996,-0.544386,-0.614423,-0.143371,-0.542430,0.009490
01603,397699,0.087942,-0.025983,9.823312,0.001927,0.002768,0.002423,0.902955,-0.544498,-0.612424,-0.142933,-0.541455,0.009499
01604,397799,0.100683,-0.016224,9.832956,0.002065,0.001841,-0.001054,0.899473,-0.546909,-0.613052,-0.142449,-0.541173,0.008625
01605,397899,0.085141,-0.011292,9.814227,0.001424,0.000696,0.001944,0.901475,-0.541461,-0.612772,-0.142424,-0.541536,0.007950
01606,397999,0.097500,-0.013363,9.830170,0.001360,-0.001070,0.002668,0.899479,-0.543920,-0.612899,-0.142428,-0.542959,0.008521
01607,398099,0.100437,-0.016448,9.818930,0.001527,0.000416,0.001047,0.901537,-0.543285,-0.616372,-0.142497,-0.543731,0.008484
01608,398199,0.087371,-0.016878,9.831435,0.001382,0.001033,0.001514,0.903001,-0.544876,-0.614948,-0.142498,-0.543940,0.008587
01609,398299,0.092326,-0.019515,9.820140,0.002084,0.000762,0.002265,0.901461,-0.544474,-0.612424,-0.142000,-0.544176,0.008686
01610,398399,0.100922,-0.012112,9.833086,0.003030,0.000869,-0.000370,0.903435,-0.544554,-0.611424,-0.140844,-0.544188,0.006855
01611,398499,0.093254,-0.016171,9.824700,0.002319,0.001159,0.002071,0.898993,-0.542393,-0.613323,-0.140367,-0.544417,0.006883
01612,398599,0.093732,-0.011148,9.847791,0.001555,0.001735,0.002697,0.900015,-0.543334,-0.614873,-0.140375,-0.544377,0.007674
01613,398699,0.097725,-0.039073,9.824341,-0.000271,-0.000917,0.001287,0.904487,-0.544425,-0.614423,-0.141270,-0.545603,0.007255
01614,398799,0.087822,-0.027320,9.827166,0.001291,-0.001238,0.002277,0.903953,-0.543517,-0.612373,-0.141191,-0.546886,0.006832
01615,398899,0.112520,-0.010793,9.847510,0.001382,0.000634,0.001505,0.901947,-0.546001,-0.612000,-0.141018,-0.547107,0.006673
01616,398999,0.095548,-0.014693,9.827919,0.001940,0.002750,0.001257,0.902984,-0.543927,-0.613898,-0.140660,-0.546265,0.006190
01617,399099,0.090520,-0.004547,9.847409,0.001836,0.001959,0.001439,0.902469,-0.542971,-0.612847,-0.140338,-0.545834,0.005454
01618,399199,0.093531,-0.019358,9.832109,0.001528,0.002074,0.003392,0.902010,-0.541870,-0.614796,-0.140353,-0.545530,0.006071
01619,399299,0.093779,-0.012986,9.814858,0.001506,-0.000177,0.000761,0.899994,-0.544378,-0.613924,-0.140298,-0.546488,0.005801
01620,399399,0.105785,-0.018163,9.821518,0.002061,0.003534,0.002701,0.903480,-0.544932,-0.613949,-0.139848,-0.545161,0.006311
01621,399499,0.096709,-0.011133,9.837592,0.000040,0.000237,0.001027,0.902925,-0.546065,-0.611001,-0.140362,-0.545491,0.005562
01622,399599,0.090852,-0.000632,9.840203,0.000505,0.001773,0.001941,0.901960,-0.543984,-0.612399,-0.140767,-0.545133,0.005306
01623,399699,0.113107,-0.028061,9.822500,0.002217,0.000702,0.000413,0.899951,-0.543004,-0.611349,-0.140191,-0.545414,0.004018
01624,399799,0.101059,-0.019839,9.844167,0.001177,0.001709,0.001091,0.901021,-0.542827,-0.615347,-0.140423,-0.545391,0.003788
01625,399899,0.098524,-0.020354,9.824598,0.001374,0.000785,0.001586,0.901002,-0.543373,-0.614373,-0.140476,-0.545809,0.003748
01626,399999,0.108574,-0.023046,9.814293,0.002136,0.000398,0.001126,0.901947,-0.546001,-0.612000,-0.139870,-0.546170,0.003378
01627,400099,0.095139,-0.014189,9.813089,0.002378,0.002111,0.001725,0.902403,-0.543638,-0.609374,-0.139027,-0.545370,0.002239
01628,400199,0.103766,-0.013165,9.830409,0.000651,-0.000010,0.001284,0.899977,-0.543430,-0.612874,-0.139429,-0.546168,0.001888
01629,400299,0.101561,-0.024088,9.827329,0.001569,0.003023,0.002277,0.899491,-0.542401,-0.613323,-0.139374,-0.545305,0.002057
01630,400399,0.100027,-0.028426,9.837116,0.000848,0.001237,0.001600,0.900506,-0.542369,-0.614322,-0.139763,-0.545501,0.001892
01631,400499,0.093659,-0.010964,9.837634,0.001670,0.001650,0.002897,0.901977,-0.544932,-0.613449,-0.139543,-0.545278,0.002606
01632,400599,0.090915,-0.013237,9.821427,0.000163,0.000366,0.002145,0.902949,-0.543027,-0.611848,-0.140114,-0.545660,0.002009
01633,400699,0.091454,-0.011273,9.828717,0.003363,0.001277,0.001304,0.902992,-0.544900,-0.614449,-0.138951,-0.545689,0.001853
01634,400799,0.098182,-0.019615,9.831888,0.002219,0.000339,0.002117,0.900439,-0.543534,-0.610874,-0.138334,-0.546107,0.001519
01635,400899,0.104514,-0.016562,9.820885,0.001758,0.000044,0.001072,0.898988,-0.544884,-0.613450,-0.138121,-0.546934,0.001642
01636,400999,0.127642,-0.005623,9.827203,0.002293,0.000623,0.002914,0.901997,-0.538929,-0.613644,-0.137699,-0.547427,0.001117
01637,401099,0.102579,-0.019249,9.810246,0.002893,0.001336,0.001959,0.902524,-0.543325,-0.615872,-0.136937,-0.547582,0.001364
01638,401199,0.107509,-0.022865,9.810853,0.001327,-0.000258,0.001253,0.900985,-0.542425,-0.613322,-0.136977,-0.548533,0.000728
01639,401299,0.081262,-0.018850,9.832538,0.000194,0.001383,0.002048,0.902910,-0.543622,-0.609874,-0.137402,-0.548168,-0.000238
01640,401399,0.104964,-0.003830,9.821618,0.003484,0.000236,0.002214,0.901953,-0.542513,-0.611823,-0.136103,-0.548674,-0.000768
01641,401499,0.102632,-0.030207,9.800644,0.001742,0.002207,0.001630,0.901489,-0.544402,-0.613924,-0.135885,-0.548201,-0.000724
01642,401599,0.093272,-0.014308,9.826935,0.000817,0.001273,0.002497,0.903497,-0.540922,-0.614245,-0.136259,-0.548267,-0.001166
01643,401699,0.094225,-0.022669,9.818752,0.002051,0.002264,0.001561,0.902007,-0.543863,-0.614898,-0.135921,-0.547826,-0.001151
01644,401799,0.102470,-0.032315,9.840078,0.000913,0.001862,0.001225,0.903951,-0.544514,-0.612423,-0.136032,-0.547330,-0.002074
01645,401899,0.111283,-0.022252,9.807766,0.002412,0.000590,0.001376,0.903987,-0.545414,-0.614473,-0.135380,-0.547704,-0.002321
01646,401999,0.094699,-0.021618,9.835458,-0.000701,0.000855,0.001081,0.901932,-0.544056,-0.610899,-0.136385,-0.547758,-0.003368
01647,402099,0.100502,-0.007270,9.824682,0.001864,0.001151,0.001789,0.903993,-0.541926,-0.614295,-0.136123,-0.547861,-0.004070
01648,402199,0.085397,-0.016836,9.836216,0.002743,0.001305,0.002431,0.899481,-0.542425,-0.612823,-0.135370,-0.547938,-0.003749
01649,402299,0.089201,-0.019288,9.856755,0.002076,0.000180,0.002726,0.902019,-0.542345,-0.615321,-0.135088,-0.548748,-0.003247
01650,402399,0.110881,-0.029058,9.844573,0.001819,0.001727,0.001858,0.903416,-0.544602,-0.610424,-0.134579,-0.548194,-0.004147
01651,402499,0.098760,-0.003756,9.850110,0.002898,0.002404,0.001732,0.901413,-0.545093,-0.609951,-0.133459,-0.547293,-0.004737
01652,402599,0.093150,-0.021582,9.835691,0.001124,0.000726,0.001837,0.901933,-0.543558,-0.610874,-0.133436,-0.547432,-0.005445
01653,402699,0.070400,-0.019852,9.812445,0.001017,0.001199,0.000632,0.900455,-0.544981,-0.611950,-0.133530,-0.547418,-0.006042
01654,402799,0.114686,-0.021529,9.813768,0.001221,0.000347,0.001040,0.901001,-0.543872,-0.614398,-0.133665,-0.548078,-0.006193
01655,402899,0.080478,-0.009169,9.841294,0.001550,0.002309,0.001784,0.900994,-0.542401,-0.613822,-0.133619,-0.547596,-0.006299
01656,402999,0.095073,-0.020832,9.823330,0.001947,0.002236,0.001356,0.898977,-0.545905,-0.613001,-0.133259,-0.547112,-0.005772
01657,403099,0.081576,-0.014140,9.817846,0.001794,0.002049,0.001319,0.902450,-0.543517,-0.611873,-0.132898,-0.546551,-0.006665
01658,403199,0.091660,-0.016933,9.826476,0.001739,0.000727,0.002159,0.899487,-0.544394,-0.613424,-0.132712,-0.546970,-0.005964
01659,403299,0.118005,-0.026145,9.824861,0.002751,0.001345,-0.000024,0.898506,-0.546323,-0.614526,-0.131973,-0.547129,-0.005735
01660,403399,0.095671,-0.011331,9.820938,-0.000107,0.000744,0.002063,0.903502,-0.543389,-0.614872,-0.132854,-0.547503,-0.005803
01661,403499,0.093022,-0.021642,9.827793,0.000759,0.000051,0.003158,0.900937,-0.543542,-0.610874,-0.133074,-0.548066,-0.005551
01662,403599,0.103238,-0.015954,9.838820,0.002845,0.000427,0.002122,0.899513,-0.540360,-0.614221,-0.132394,-0.548792,-0.005520
01663,403699,0.098801,-0.036275,9.801984,0.001735,0.000587,0.002649,0.903408,-0.544128,-0.609899,-0.131924,-0.548860,-0.006150
01664,403799,0.093530,-0.029630,9.818841,0.002210,0.001490,0.003069,0.901951,-0.544008,-0.611899,-0.131338,-0.548627,-0.005856
01665,403899,0.098816,-0.020000,9.822184,0.001068,-0.000685,0.002458,0.900493,-0.544386,-0.613924,-0.131543,-0.549848,-0.005110
01666,403999,0.094703,-0.014399,9.823837,0.002356,0.003451,0.002137,0.902493,-0.545390,-0.614474,-0.130969,-0.548642,-0.004680
01667,404099,0.103411,-0.015962,9.846110,0.002203,0.001512,0.002698,0.900500,-0.545358,-0.614475,-0.130535,-0.548631,-0.003515
01668,404199,0.105376,-0.002467,9.812887,0.002459,0.002288,0.001029,0.902452,-0.542521,-0.611822,-0.129816,-0.547948,-0.004788
01669,404299,0.092874,-0.020130,9.833028,0.003020,0.002828,0.002829,0.904964,-0.545976,-0.613499,-0.128742,-0.546917,-0.004556
01670,404399,0.081481,-0.025818,9.817446,0.000922,0.002518,0.000938,0.900962,-0.544964,-0.612450,-0.128919,-0.546168,-0.004974
01671,404499,0.099283,-0.021464,9.813745,0.002682,0.001583,0.001377,0.900992,-0.543896,-0.613899,-0.128200,-0.546086,-0.005040
01672,404599,0.089940,-0.024896,9.837115,0.000642,0.000918,0.003062,0.901504,-0.540890,-0.614246,-0.128737,-0.546442,-0.004738
01673,404699,0.082900,-0.036076,9.833141,0.002397,0.003093,0.003918,0.901462,-0.543976,-0.612399,-0.128100,-0.545356,-0.003743
01674,404799,0.108074,-0.017966,9.818025,0.003274,0.002082,0.002222,0.902929,-0.543574,-0.610874,-0.126840,-0.544683,-0.004412
01675,404899,0.094717,-0.020087,9.823019,0.002323,0.000623,0.002764,0.902439,-0.544538,-0.611424,-0.126148,-0.544891,-0.004385
01676,404999,0.107730,-0.010408,9.813119,0.002174,0.001694,0.001229,0.901911,-0.545100,-0.609951,-0.125449,-0.544387,-0.005324
01677,405099,0.099808,-0.010243,9.809769,0.001662,0.001222,0.002241,0.900995,-0.541903,-0.613797,-0.125367,-0.544543,-0.005232
01678,405199,0.092111,-0.015753,9.851575,0.002680,-0.000201,0.000569,0.901012,-0.542851,-0.614847,-0.124729,-0.545577,-0.005725
01679,405299,0.077263,-0.012518,9.845591,0.001451,0.000538,0.001173,0.904455,-0.546490,-0.613025,-0.124524,-0.545840,-0.006408
01680,405399,0.086216,-0.012915,9.808379,0.001374,-0.000805,0.001919,0.903455,-0.543509,-0.612373,-0.124425,-0.546916,-0.007085
01681,405499,0.095296,-0.035157,9.820468,0.003250,0.000228,0.001347,0.904434,-0.548033,-0.612101,-0.123100,-0.547257,-0.007654
01682,405599,0.105924,-0.033640,9.816677,0.001249,0.000835,0.001069,0.901967,-0.544956,-0.612949,-0.123104,-0.547472,-0.008126
01683,405699,0.104703,-0.013791,9.836228,0.002589,0.003006,0.000790,0.901011,-0.543349,-0.614872,-0.122511,-0.546659,-0.008385
01684,405799,0.102858,-0.019104,9.835577,0.003889,0.000161,0.002115,0.903459,-0.546475,-0.613025,-0.120941,-0.547178,-0.008339
01685,405899,0.088216,-0.005629,9.822358,0.002040,0.002412,0.002322,0.899483,-0.541429,-0.612772,-0.120636,-0.546643,-0.008102
01686,405999,0.088559,-0.017508,9.811813,0.002179,0.000264,0.003076,0.900963,-0.544466,-0.612424,-0.120127,-0.547195,-0.007369
01687,406099,0.105741,-0.031094,9.818346,0.001764,0.000307,0.002100,0.903408,-0.544128,-0.609899,-0.119658,-0.547438,-0.008328
01688,406199,0.090955,-0.022038,9.813697,0.002160,0.000264,0.002643,0.902968,-0.542481,-0.612822,-0.119181,-0.547975,-0.008553
01689,406299,0.092197,-0.010872,9.820378,0.001477,0.000111,0.003291,0.899476,-0.545415,-0.612975,-0.119120,-0.548697,-0.007070
01690,406399,0.098888,-0.016791,9.822595,0.002321,-0.000089,0.001574,0.898961,-0.544459,-0.611925,-0.118541,-0.549492,-0.006816
01691,406499,0.098246,-0.032277,9.830733,0.003392,0.002068,0.001145,0.900994,-0.542401,-0.613822,-0.117458,-0.549153,-0.007257
01692,406599,0.084874,-0.025300,9.804255,-0.001405,0.001525,0.001162,0.901469,-0.545446,-0.612975,-0.118989,-0.548984,-0.007477
01693,406699,0.076633,-0.009871,9.803743,0.002321,0.001358,0.001772,0.902976,-0.543453,-0.613373,-0.118424,-0.548917,-0.007947
01694,406799,0.089575,-0.016470,9.831416,0.002417,-0.000750,0.002208,0.901488,-0.544900,-0.613949,-0.117839,-0.550132,-0.007471
01695,406899,0.100691,-0.020584,9.816689,0.001783,0.001917,0.000722,0.903030,-0.544305,-0.616422,-0.117728,-0.549957,-0.007815
01696,406999,0.100069,-0.039343,9.818716,0.001655,0.001588,0.003073,0.901473,-0.542955,-0.612848,-0.117571,-0.549785,-0.007376
01697,407099,0.098928,-0.028589,9.806574,0.001564,0.000435,0.002775,0.902016,-0.543839,-0.615397,-0.117574,-0.550427,-0.006587
01698,407199,0.087084,-0.020495,9.839089,0.000915,0.002276,0.000861,0.903452,-0.545502,-0.612474,-0.117702,-0.549708,-0.007523
01699,407299,0.104964,-0.019796,9.799797,0.002067,0.001808,0.002431,0.901500,-0.548339,-0.615126,-0.117306,-0.549483,-0.006150
01700,407399,0.090502,-0.004944,9.827471,0.003598,0.000154,0.002301,0.903944,-0.543541,-0.611873,-0.115907,-0.549949,-0.006791
01701,407499,0.104127,-0.004286,9.846265,0.001813,0.002106,0.000823,0.901517,-0.544330,-0.615423,-0.115761,-0.549651,-0.006922
01702,407599,0.104571,-0.038854,9.820027,0.001145,0.001925,0.000423,0.901978,-0.543936,-0.613398,-0.115881,-0.549294,-0.007837
01703,407699,0.091229,-0.032959,9.825201,0.001652,0.001237,0.002288,0.904957,-0.544505,-0.612923,-0.115611,-0.549163,-0.008337
01704,407799,0.093744,-0.016471,9.812713,0.001915,0.000526,0.001888,0.901468,-0.545945,-0.613000,-0.115241,-0.549559,-0.008064
01705,407899,0.095022,0.005285,9.823317,0.002162,0.002293,0.002682,0.901975,-0.545928,-0.613500,-0.114751,-0.548960,-0.007357
01706,407999,0.098924,-0.019708,9.821475,0.001779,0.001499,0.002057,0.898958,-0.545953,-0.612001,-0.114464,-0.548825,-0.006620
01707,408099,0.100469,-0.023772,9.808172,0.001208,0.001347,0.001955,0.902025,-0.543815,-0.615897,-0.114700,-0.548987,-0.006211
01708,408199,0.077091,-0.032644,9.823567,0.001386,0.001364,0.001513,0.904019,-0.542850,-0.615846,-0.114806,-0.549073,-0.006633
01709,408299,0.097802,-0.023597,9.826178,0.001372,0.001997,0.002056,0.902968,-0.542481,-0.612822,-0.114788,-0.548616,-0.007160
01710,408399,0.097774,-0.012161,9.836942,0.002659,0.000394,0.002641,0.902942,-0.547013,-0.612051,-0.113886,-0.548937,-0.006782
01711,408499,0.079276,-0.028199,9.830445,-0.000346,-0.001127,0.002392,0.902954,-0.545494,-0.612475,-0.114764,-0.550185,-0.006714
01712,408599,0.109458,-0.041102,9.834207,0.001735,0.000352,0.001202,0.900458,-0.542988,-0.611848,-0.114526,-0.550685,-0.007293
01713,408699,0.094101,-0.023496,9.807140,0.001476,0.000656,0.001503,0.900539,-0.544266,-0.616423,-0.114661,-0.551327,-0.006657
01714,408799,0.100005,-0.005609,9.828670,0.001960,0.001926,0.002079,0.900486,-0.542915,-0.613348,-0.114383,-0.551037,-0.006491
01715,408899,0.098081,-0.016050,9.823950,0.001637,0.003477,0.002125,0.902516,-0.542850,-0.615346,-0.114356,-0.549931,-0.006354
01716,408999,0.097801,-0.018423,9.827275,0.002319,0.001543,0.000282,0.903923,-0.545084,-0.610950,-0.113600,-0.549507,-0.008020
01717,409099,0.094880,-0.011499,9.831036,0.000969,0.001781,0.002367,0.900439,-0.543534,-0.610874,-0.113744,-0.549108,-0.008022
01718,409199,0.090565,-0.029134,9.808290,0.002716,-0.000291,0.002134,0.902008,-0.542867,-0.614847,-0.113085,-0.550143,-0.007851
01719,409299,0.107173,-0.019024,9.841366,0.000891,0.001605,0.001065,0.900550,-0.543245,-0.616872,-0.113604,-0.550295,-0.007541
01720,409399,0.098198,-0.018679,9.825391,0.001361,0.001347,0.001273,0.901509,-0.543357,-0.614872,-0.113717,-0.550405,-0.007687
01721,409499,0.099298,-0.023400,9.841920,0.000993,0.002237,0.001107,0.902968,-0.542481,-0.612822,-0.113912,-0.549809,-0.008752
01722,409599,0.089175,-0.029592,9.828062,0.003309,0.001691,0.000727,0.901967,-0.544956,-0.612949,-0.112755,-0.549532,-0.009393
01723,409699,0.089837,-0.035411,9.819682,0.003664,0.001188,0.001677,0.902420,-0.544586,-0.610425,-0.111260,-0.549341,-0.010113
01724,409799,0.098990,-0.034922,9.827084,0.001230,0.000745,0.001080,0.901463,-0.543478,-0.612374,-0.111312,-0.549610,-0.010783
01725,409899,0.096261,-0.029766,9.829290,0.000892,0.002924,0.002305,0.900976,-0.542449,-0.612823,-0.111627,-0.548701,-0.010721
01726,409999,0.098438,-0.021308,9.824640,0.001965,0.001075,0.001232,0.899541,-0.545246,-0.616474,-0.111493,-0.549130,-0.009836
01727,410099,0.105109,-0.006329,9.817077,0.002111,0.001419,0.002313,0.900946,-0.543518,-0.611374,-0.111006,-0.548957,-0.009880
01728,410199,0.102403,-0.011292,9.836204,0.001547,0.001282,0.002533,0.901948,-0.545502,-0.611975,-0.110807,-0.548831,-0.009562
01729,410299,0.093302,-0.015753,9.840376,0.001365,0.001998,0.001528,0.900476,-0.543438,-0.612874,-0.110838,-0.548461,-0.009688
01730,410399,0.092114,-0.021898,9.819920,0.001620,0.002636,0.002461,0.902427,-0.546057,-0.611001,-0.110522,-0.547459,-0.009588
01731,410499,0.102406,-0.022805,9.825482,0.003294,0.002315,0.001902,0.901942,-0.543534,-0.611374,-0.109335,-0.546738,-0.010056
01732,410599,0.096727,-0.012226,9.812439,0.002664,0.001677,0.002179,0.900032,-0.544282,-0.615923,-0.108790,-0.546784,-0.009002
01733,410699,0.103473,-0.019730,9.838164,0.001456,0.000856,0.002480,0.902461,-0.542497,-0.612322,-0.108723,-0.546968,-0.009254
01734,410799,0.095797,-0.028630,9.823257,-0.000389,0.000720,0.001158,0.902951,-0.542031,-0.611797,-0.109676,-0.547180,-0.010536
01735,410899,0.099984,-0.020970,9.824837,0.001346,0.001497,0.003297,0.902402,-0.544136,-0.609400,-0.109480,-0.546750,-0.010566
01736,410999,0.092294,-0.009732,9.826374,0.001622,-0.000412,0.000799,0.901495,-0.546371,-0.614525,-0.109365,-0.547791,-0.010547
01737,411099,0.088190,-0.019202,9.824145,0.001162,0.001106,0.001830,0.897985,-0.543398,-0.612874,-0.109578,-0.548030,-0.009920
01738,411199,0.091488,-0.033406,9.839344,0.001151,0.000335,0.002365,0.900964,-0.543470,-0.612374,-0.109702,-0.548553,-0.009747
01739,411299,0.109450,-0.013605,9.831870,0.000554,0.001247,0.001544,0.901444,-0.543526,-0.611374,-0.110095,-0.548459,-0.010318
01740,411399,0.090795,-0.023384,9.841967,0.003499,0.000501,0.001855,0.901969,-0.543960,-0.612899,-0.108865,-0.548878,-0.010480
01741,411499,0.101173,-0.006425,9.830547,0.001588,0.000603,0.000951,0.900969,-0.546435,-0.613026,-0.108699,-0.549243,-0.010505
01742,411599,0.088796,-0.008955,9.806282,0.000953,0.001032,0.002976,0.899988,-0.542907,-0.613348,-0.109027,-0.549487,-0.009696
01743,411699,0.101629,-0.014003,9.829921,0.002634,0.001382,0.001126,0.901004,-0.542377,-0.614322,-0.108423,-0.549574,-0.010094
01744,411799,0.098396,-0.028090,9.813578,0.000777,0.001201,0.000798,0.899966,-0.544949,-0.612450,-0.108747,-0.549619,-0.010337
01745,411899,0.107666,-0.020788,9.825285,0.001383,0.003109,0.001433,0.903006,-0.542385,-0.614821,-0.108843,-0.548677,-0.010902
01746,411999,0.091364,-0.025278,9.825666,0.001124,0.002013,0.001866,0.904418,-0.547085,-0.611051,-0.108747,-0.547939,-0.011350
01747,412099,0.087434,-0.023938,9.831000,0.001924,-0.000123,0.000262,0.903454,-0.544008,-0.612398,-0.108349,-0.548621,-0.012812
01748,412199,0.084462,-0.018856,9.833039,0.001645,0.001525,0.001997,0.903950,-0.545012,-0.612449,-0.108090,-0.548324,-0.013222
01749,412299,0.094893,-0.014392,9.812100,0.002384,0.001886,0.002387,0.901488,-0.544900,-0.613949,-0.107554,-0.548030,-0.012621
01750,412399,0.098914,-0.001446,9.820039,-0.000301,0.001824,0.001610,0.900497,-0.541895,-0.613797,-0.108633,-0.547854,-0.012759
01751,412499,0.089848,-0.022860,9.830440,0.001795,0.001204,0.001413,0.902952,-0.546491,-0.612525,-0.108280,-0.547760,-0.013023
01752,412599,0.089990,-0.013553,9.823812,0.001984,0.002442,0.001595,0.898509,-0.544330,-0.614424,-0.108077,-0.547310,-0.012222
01753,412699,0.104330,-0.019553,9.819169,0.000922,0.001126,0.001397,0.901950,-0.544506,-0.611924,-0.108261,-0.547292,-0.012693
01754,412799,0.094967,-0.009855,9.825159,0.000701,0.000755,0.002307,0.899968,-0.543454,-0.612374,-0.108669,-0.547614,-0.012325
01755,412899,0.084834,-0.026701,9.819466,0.002120,-0.000099,0.002037,0.902486,-0.543919,-0.613898,-0.108277,-0.548431,-0.012315
01756,412999,0.088356,-0.013518,9.821469,0.000402,0.001127,0.002917,0.902517,-0.542352,-0.615321,-0.108985,-0.548676,-0.011839
01757,413099,0.081822,-0.021456,9.844661,0.001992,0.001155,0.002077,0.900969,-0.546435,-0.613026,-0.108599,-0.548721,-0.011203
01758,413199,0.094116,-0.028349,9.807171,0.002304,0.002050,0.001921,0.900977,-0.546909,-0.613551,-0.108053,-0.548283,-0.010487
01759,413299,0.093182,-0.018213,9.825999,0.001617,0.001167,-0.000056,0.903474,-0.543461,-0.613372,-0.107899,-0.548307,-0.012035
01760,413399,0.099305,-0.008675,9.823878,0.002990,0.002116,0.001537,0.901469,-0.545446,-0.612975,-0.106948,-0.547799,-0.011985
01761,413499,0.098868,-0.024496,9.844751,0.000792,0.001406,0.003271,0.900987,-0.541429,-0.613271,-0.107382,-0.547811,-0.011510
01762,413599,0.106700,-0.001123,9.822965,0.002643,0.000568,0.001547,0.901970,-0.543461,-0.612873,-0.106656,-0.548199,-0.011925
01763,413699,0.095760,-0.032376,9.836990,0.002963,0.000129,0.002089,0.901978,-0.543936,-0.613398,-0.105768,-0.548868,-0.011862
01764,413799,0.080707,-0.038017,9.815717,0.000713,0.001408,0.001748,0.904467,-0.545470,-0.613474,-0.106082,-0.548683,-0.012219
01765,413899,0.082958,-0.009731,9.834689,0.001028,0.000238,0.002092,0.899944,-0.546492,-0.611527,-0.106195,-0.549181,-0.011601
01766,413999,0.090388,-0.004313,9.846372,0.001770,0.000527,0.002277,0.899496,-0.544370,-0.613924,-0.106069,-0.549746,-0.010774
01767,414099,0.117929,-0.006081,9.841669,0.000854,0.001192,0.002345,0.903981,-0.543445,-0.613872,-0.106380,-0.549769,-0.010975
01768,414199,0.092819,-0.016351,9.825051,0.002041,0.000195,0.001253,0.903491,-0.544410,-0.614423,-0.106025,-0.550406,-0.011450
01769,414299,0.103938,-0.012969,9.819914,0.001991,0.001825,0.002818,0.903472,-0.544458,-0.613423,-0.105653,-0.550034,-0.011179
01770,414399,0.093413,-0.005749,9.816785,0.001892,0.002300,0.002108,0.902936,-0.545044,-0.611450,-0.105229,-0.549256,-0.011427
01771,414499,0.090046,-0.016786,9.817613,0.001334,0.001188,0.002242,0.901927,-0.547045,-0.611052,-0.105085,-0.549089,-0.011128
01772,414599,0.082244,-0.019045,9.826714,0.000970,0.000332,0.002163,0.900447,-0.544008,-0.611400,-0.105267,-0.549550,-0.011024
01773,414699,0.080979,-0.013839,9.828234,-0.000207,0.001942,0.000775,0.901015,-0.541356,-0.614771,-0.106341,-0.549365,-0.011737
01774,414799,0.122683,-0.024834,9.811660,0.002169,0.003050,0.002265,0.902489,-0.542425,-0.613822,-0.105955,-0.548398,-0.011868
01775,414899,0.094655,-0.004269,9.847523,0.000245,0.001518,0.002619,0.901012,-0.542851,-0.614847,-0.106753,-0.548433,-0.011256
01776,414999,0.089813,-0.026559,9.827870,0.000651,-0.000388,0.002551,0.900961,-0.545463,-0.612475,-0.107134,-0.549337,-0.010613
01777,415099,0.102774,-0.027220,9.824504,0.002596,0.001505,0.001582,0.901930,-0.545052,-0.610950,-0.106302,-0.549016,-0.011031
01778,415199,0.095937,-0.010371,9.824854,0.001852,-0.000194,0.002540,0.899979,-0.542434,-0.612823,-0.106102,-0.549929,-0.010660
01779,415299,0.100680,-0.017523,9.827602,0.002096,0.000695,0.002182,0.899007,-0.544836,-0.614450,-0.105819,-0.550444,-0.009630
01780,415399,0.082041,-0.018846,9.836292,0.001843,-0.000021,0.000958,0.900483,-0.544410,-0.613424,-0.105593,-0.551245,-0.009853
01781,415499,0.086355,-0.005178,9.819061,0.000657,0.000732,0.000988,0.903465,-0.542987,-0.612847,-0.105976,-0.551482,-0.010988
01782,415599,0.096810,-0.014061,9.814387,0.001467,-0.000484,0.001480,0.900428,-0.544555,-0.610425,-0.105805,-0.552325,-0.011333
01783,415699,0.095734,-0.015711,9.823430,0.001986,0.000427,0.003080,0.901954,-0.542015,-0.611797,-0.105437,-0.552733,-0.011320
01784,415799,0.091818,-0.032814,9.829927,0.002633,0.000175,-0.000043,0.900964,-0.543470,-0.612374,-0.104706,-0.553340,-0.012532
01785,415899,0.075911,0.008391,9.835029,0.000958,0.001616,0.002410,0.900459,-0.542490,-0.611823,-0.104950,-0.553117,-0.012494
01786,415999,0.087524,-0.014769,9.831573,0.001610,0.002537,0.002026,0.902002,-0.540898,-0.614245,-0.104946,-0.552515,-0.012911
01787,416099,0.099064,-0.030512,9.834666,-0.000831,0.001903,0.001736,0.900947,-0.543020,-0.611348,-0.106165,-0.552066,-0.013325
01788,416199,0.086472,-0.016223,9.807557,0.000408,0.000894,0.001524,0.901976,-0.545430,-0.613474,-0.106710,-0.552265,-0.013332
01789,416299,0.093356,-0.012414,9.833277,0.003202,0.000416,0.002229,0.900946,-0.543518,-0.611374,-0.105611,-0.552658,-0.013370
01790,416399,0.094046,-0.003199,9.843040,0.003454,0.001304,0.002425,0.900476,-0.543438,-0.612874,-0.104463,-0.552673,-0.012977
01791,416499,0.104841,-0.006454,9.835357,0.001133,0.001653,0.002282,0.902486,-0.543919,-0.613898,-0.104640,-0.552477,-0.012872
01792,416599,0.108035,-0.001337,9.816958,0.000338,0.002041,0.001625,0.901037,-0.544274,-0.616423,-0.105429,-0.552294,-0.012377
01793,416699,0.088798,-0.018194,9.821236,0.001287,-0.000581,0.001287,0.900980,-0.544916,-0.613449,-0.105501,-0.553384,-0.012404
01794,416799,0.087254,-0.000970,9.823228,0.002235,0.002098,0.002066,0.900455,-0.544981,-0.611950,-0.104966,-0.552848,-0.012089
01795,416899,0.105198,-0.021338,9.836049,0.000885,0.002631,0.002830,0.899440,-0.545013,-0.610951,-0.105179,-0.551973,-0.011264
01796,416999,0.081521,-0.022563,9.848846,0.001431,0.000973,0.003680,0.899467,-0.544940,-0.612450,-0.105166,-0.552156,-0.009756
01797,417099,0.096555,-0.033393,9.833617,0.004088,0.000699,0.002101,0.901082,-0.540191,-0.618219,-0.103988,-0.552946,-0.009573
01798,417199,0.098998,-0.032463,9.837628,0.000341,0.000104,0.001720,0.902469,-0.542971,-0.612847,-0.104580,-0.553577,-0.010137
01799,417299,0.100022,-0.018421,9.832002,0.000319,0.002671,0.001251,0.901464,-0.542979,-0.612348,-0.105180,-0.552741,-0.010832
01800,417399,0.098924,-0.013315,9.808248,0.002219,-0.000088,0.002670,0.900959,-0.546459,-0.612526,-0.104648,-0.553451,-0.009907
01801,417499,0.109271,-0.028334,9.836502,0.002006,0.001117,0.002996,0.901941,-0.544032,-0.611399,-0.104209,-0.553395,-0.009638
01802,417599,0.104175,-0.015278,9.814066,0.001577,-0.000201,0.001976,0.900493,-0.544386,-0.613924,-0.104168,-0.554328,-0.009222
01803,417699,0.097884,-0.016629,9.811527,0.003443,0.000934,0.002595,0.900993,-0.542899,-0.613847,-0.103077,-0.554613,-0.008869
01804,417799,0.106295,-0.033585,9.817375,0.003705,0.000917,0.002447,0.900513,-0.543341,-0.614873,-0.101892,-0.554993,-0.008273
01805,417899,0.082542,-0.013933,9.824074,0.000914,0.002146,0.002532,0.901452,-0.544498,-0.611924,-0.102108,-0.554397,-0.008013
01806,417999,0.105239,-0.018060,9.836841,0.001975,0.001063,0.003201,0.901931,-0.544554,-0.610925,-0.101654,-0.554329,-0.007599
01807,418099,0.090069,-0.017063,9.828520,0.001257,0.000961,0.001397,0.897954,-0.545463,-0.611476,-0.101705,-0.554496,-0.007132
01808,418199,0.112173,-0.016693,9.816653,0.001633,0.000059,0.001301,0.902947,-0.544024,-0.611899,-0.101475,-0.555046,-0.007977
01809,418299,0.096254,-0.024647,9.826864,0.002184,0.002445,0.001139,0.899507,-0.543848,-0.614399,-0.101144,-0.554547,-0.007898
01810,418399,0.113061,-0.013258,9.816087,0.001547,0.001514,0.000693,0.903002,-0.544378,-0.614923,-0.101112,-0.554478,-0.008602
01811,418499,0.106317,-0.019442,9.827150,0.000530,0.001087,0.002373,0.899469,-0.543944,-0.612400,-0.101629,-0.554610,-0.008080
01812,418599,0.105723,-0.018401,9.840578,0.001323,0.000805,0.001991,0.900936,-0.544040,-0.610900,-0.101575,-0.554736,-0.008259
01813,418699,0.084948,-0.021805,9.828943,0.002052,-0.000120,0.002225,0.900445,-0.545503,-0.611476,-0.101117,-0.555425,-0.007819
01814,418799,0.094373,-0.013149,9.821665,0.001479,-0.000265,0.002487,0.902975,-0.543952,-0.613398,-0.101061,-0.556267,-0.007801
01815,418899,0.106008,-0.022155,9.848070,0.003901,-0.000634,0.001851,0.900016,-0.542835,-0.614847,-0.099781,-0.557561,-0.007599
01816,418999,0.092791,-0.019261,9.826380,-0.000517,0.000389,0.002345,0.904009,-0.543373,-0.615371,-0.100958,-0.558140,-0.007729
01817,419099,0.107598,-0.008169,9.843517,0.001898,0.001094,0.001746,0.901495,-0.546371,-0.614525,-0.100700,-0.558296,-0.007199
01818,419199,0.079628,-0.003779,9.838486,0.002312,0.001659,0.000979,0.900909,-0.543614,-0.609375,-0.100002,-0.557828,-0.008259
01819,419299,0.094383,-0.025657,9.818257,0.001768,0.001240,0.001351,0.903430,-0.547045,-0.611551,-0.099606,-0.557599,-0.008595
01820,419399,0.094908,-0.013403,9.821344,0.001760,0.001465,0.002281,0.901465,-0.547439,-0.613076,-0.099337,-0.557419,-0.007733
01821,419499,0.105883,-0.032789,9.826619,0.003397,-0.000026,0.000155,0.900000,-0.541389,-0.613772,-0.098310,-0.558314,-0.008962
01822,419599,0.104602,-0.026883,9.827013,0.001430,0.001183,-0.000007,0.900457,-0.543486,-0.611874,-0.098258,-0.558322,-0.010175
01823,419699,0.101633,-0.017474,9.820689,0.000676,0.002517,0.002197,0.902463,-0.546459,-0.613025,-0.098605,-0.557516,-0.009747
01824,419799,0.085668,-0.009002,9.828032,0.000703,0.001863,0.001240,0.900972,-0.544442,-0.612924,-0.099001,-0.557173,-0.010004
01825,419899,0.088788,-0.011095,9.821141,0.002739,0.000112,0.001027,0.903947,-0.542047,-0.611796,-0.098151,-0.557683,-0.011604
01826,419999,0.090204,-0.003211,9.833462,0.003324,0.001368,0.001239,0.899463,-0.542474,-0.611823,-0.097063,-0.557638,-0.012089
01827,420099,0.108810,-0.014345,9.818889,0.002473,0.001539,0.000865,0.900485,-0.543414,-0.613373,-0.096499,-0.557552,-0.012601
01828,420199,0.099117,-0.017538,9.822060,0.000701,0.002289,0.001747,0.902493,-0.544892,-0.614449,-0.096936,-0.557011,-0.012575
01829,420299,0.104110,-0.010133,9.828716,-0.000358,-0.000344,0.000985,0.902948,-0.543525,-0.611873,-0.097856,-0.557798,-0.013687
01830,420399,0.111473,-0.013248,9.828389,0.000299,0.000966,0.000337,0.902421,-0.544088,-0.610399,-0.098320,-0.557739,-0.015134
01831,420499,0.110706,-0.023972,9.822005,0.000047,-0.000046,0.001528,0.899960,-0.542980,-0.611849,-0.099089,-0.558476,-0.015408
01832,420599,0.109581,-0.030091,9.842075,0.002638,0.001244,0.002315,0.901950,-0.544506,-0.611924,-0.098306,-0.558375,-0.015347
01833,420699,0.092951,-0.016441,9.834821,0.000708,0.001386,0.002352,0.902478,-0.543445,-0.613373,-0.098713,-0.558296,-0.015407
01834,420799,0.087370,-0.013730,9.808189,0.001797,-0.000150,0.002855,0.904468,-0.544473,-0.613423,-0.098435,-0.559006,-0.015411
01835,420899,0.110620,-0.014303,9.825016,0.002978,0.000485,0.002290,0.900952,-0.545487,-0.611975,-0.097462,-0.559363,-0.014957
01836,420999,0.111737,-0.011222,9.820002,0.001880,-0.000052,0.001814,0.904435,-0.547535,-0.612076,-0.096999,-0.559866,-0.015154
01837,421099,0.098196,-0.016925,9.827198,0.002003,0.001758,0.001106,0.899414,-0.544089,-0.609401,-0.096509,-0.559394,-0.015619
01838,421199,0.093144,-0.029492,9.838207,0.001612,0.003391,0.002317,0.902446,-0.545510,-0.611975,-0.096287,-0.558032,-0.015480
01839,421299,0.091324,-0.018961,9.836085,0.000603,0.003072,0.001737,0.901028,-0.544298,-0.615923,-0.096904,-0.557213,-0.015089
01840,421399,0.117222,-0.019672,9.795828,0.000938,0.001260,0.001787,0.900494,-0.543888,-0.613899,-0.097244,-0.557314,-0.014884
01841,421499,0.104527,-0.026855,9.836568,0.002009,0.001966,0.001626,0.900954,-0.544490,-0.611924,-0.096846,-0.556842,-0.014997
01842,421599,0.108189,-0.018359,9.857346,0.000704,0.001560,-0.000006,0.902965,-0.544474,-0.612924,-0.097192,-0.556600,-0.016355
01843,421699,0.102309,-0.036542,9.825087,-0.000178,0.001003,0.002589,0.902926,-0.545567,-0.610975,-0.097936,-0.556516,-0.016248
01844,421799,0.091042,-0.028177,9.819782,0.001187,0.000686,0.001131,0.898492,-0.543880,-0.613399,-0.098152,-0.556985,-0.016021
01845,421899,0.086887,-0.013495,9.828407,0.002783,0.001062,0.000743,0.902508,-0.541878,-0.614796,-0.097471,-0.557225,-0.017130
01846,421999,0.094772,-0.015447,9.832198,0.001636,0.000115,0.000242,0.899001,-0.542867,-0.613848,-0.097456,-0.558053,-0.017674
01847,422099,0.100123,-0.015528,9.827323,0.000500,0.002447,0.003097,0.901503,-0.541388,-0.614271,-0.098101,-0.557505,-0.017389
01848,422199,0.098588,-0.024734,9.829159,0.000800,0.002864,0.002529,0.901957,-0.545478,-0.612475,-0.098388,-0.556499,-0.016927
01849,422299,0.106648,-0.030663,9.822376,0.000217,0.001984,0.001951,0.902966,-0.543976,-0.612898,-0.099034,-0.556018,-0.017257
01850,422399,0.094997,-0.018036,9.815515,0.000745,0.001353,0.000774,0.901985,-0.545406,-0.613974,-0.099421,-0.555987,-0.017640
01851,422499,0.090424,-0.018562,9.821809,-0.000368,0.001491,0.002846,0.902994,-0.543405,-0.614372,-0.100495,-0.555901,-0.017397
01852,422599,0.098031,-0.003813,9.838260,0.002116,0.001465,0.001271,0.900503,-0.543864,-0.614398,-0.100185,-0.555919,-0.017418
01853,422699,0.098261,-0.024358,9.832395,0.000930,0.002004,0.002296,0.904460,-0.543999,-0.612898,-0.100390,-0.555370,-0.017857
01854,422799,0.094794,-0.012088,9.818727,0.001592,0.001245,0.001878,0.902444,-0.546507,-0.612025,-0.100166,-0.555223,-0.017730
01855,422899,0.092458,-0.015506,9.828247,0.001408,0.001947,0.001400,0.901460,-0.544972,-0.612450,-0.100120,-0.554770,-0.017898
01856,422999,0.115006,-0.010406,9.834451,0.000405,0.001472,0.001167,0.899977,-0.543928,-0.612899,-0.100725,-0.554696,-0.018016
01857,423099,0.094497,-0.012715,9.832229,0.001815,0.002910,0.001959,0.901508,-0.544354,-0.614923,-0.100587,-0.553879,-0.017708
01858,423199,0.111527,-0.002748,9.818888,0.002074,0.000343,0.001765,0.905493,-0.544417,-0.614922,-0.100207,-0.554383,-0.018342
01859,423299,0.106959,-0.004112,9.829307,0.002581,0.001252,0.001191,0.903931,-0.545558,-0.611475,-0.099368,-0.554159,-0.019158
01860,423399,0.106389,-0.021981,9.803660,0.002219,0.001202,0.001272,0.900954,-0.544490,-0.611924,-0.098851,-0.554127,-0.019429
01861,423499,0.075624,-0.010409,9.830512,0.002283,0.003081,0.002456,0.901467,-0.546443,-0.613026,-0.098312,-0.553043,-0.018655
01862,423599,0.101178,-0.018176,9.842403,0.002887,0.002190,0.003212,0.901499,-0.543880,-0.614398,-0.097553,-0.552613,-0.017778
01863,423699,0.096429,-0.022278,9.830862,0.000785,-0.000250,0.002205,0.903013,-0.543357,-0.615372,-0.098017,-0.553603,-0.017793
01864,423799,0.112230,-0.020132,9.843159,0.000434,0.000825,0.002159,0.900466,-0.543462,-0.612374,-0.098583,-0.553855,-0.017603
01865,423899,0.098209,-0.020543,9.825534,0.001881,0.000148,0.001116,0.904499,-0.542906,-0.614846,-0.098360,-0.554531,-0.018700
01866,423999,0.087832,-0.009752,9.813196,0.002560,0.000635,0.002040,0.903920,-0.546579,-0.611026,-0.097498,-0.554611,-0.018903
01867,424099,0.092359,-0.012655,9.822113,0.002684,0.001063,0.002584,0.901912,-0.544602,-0.609925,-0.096598,-0.554478,-0.018835
01868,424199,0.077565,-0.010042,9.866048,0.003913,0.001184,0.001149,0.902935,-0.545542,-0.611475,-0.095024,-0.554334,-0.019486
01869,424299,0.114877,-0.002244,9.819097,0.000454,0.001807,0.002620,0.899966,-0.544451,-0.612425,-0.095578,-0.554029,-0.018715
01870,424399,0.094563,-0.011448,9.810609,0.002615,0.000240,0.002422,0.902989,-0.546395,-0.614525,-0.094892,-0.554624,-0.018181
