PacketCounter,SampleTimeFine,Acc_X,Acc_Y,Acc_Z,Gyr_X,Gyr_Y,Gyr_Z,Mag_X,Mag_Y,Mag_Z,Roll,Pitch,Yaw
00618,111119,0.005173,0.116337,9.864634,0.000375,-0.001537,0.001307,0.061168,-0.248340,-1.057722,0.636622,-0.010836,0.000000
00619,111219,0.016317,0.116220,9.883540,0.001499,-0.000281,0.002083,0.060607,-0.252463,-1.054926,0.637001,-0.011497,0.001216
00620,111319,0.008509,0.116809,9.879606,0.001253,-0.002604,0.000396,0.060607,-0.252961,-1.054952,0.637402,-0.013470,0.001505
00621,111419,0.008608,0.134872,9.889912,0.000204,-0.002658,0.000664,0.059134,-0.250896,-1.055850,0.636432,-0.015983,0.002179
00622,111519,0.018740,0.120421,9.885215,0.001252,-0.000486,0.000770,0.061123,-0.252921,-1.055951,0.636729,-0.016594,0.002616
00623,111619,0.019145,0.112030,9.868914,-0.000307,0.001328,0.000367,0.058139,-0.250382,-1.055825,0.635307,-0.017145,0.003351
00624,111719,0.030144,0.099940,9.875947,0.000866,0.003111,0.002165,0.060127,-0.252905,-1.055952,0.635383,-0.016042,0.004906
00625,111819,0.002784,0.106480,9.886944,0.000055,0.000963,0.000921,0.055160,-0.250311,-1.056326,0.634107,-0.017809,0.006807
00626,111919,0.009327,0.114450,9.877133,0.001752,0.003670,0.002508,0.061594,-0.252503,-1.054426,0.634700,-0.015833,0.007985
00627,112019,-0.001912,0.119393,9.884173,0.000210,0.004329,0.001309,0.061145,-0.250880,-1.056849,0.633654,-0.013729,0.008587
00628,112119,0.000707,0.117875,9.880291,0.002430,-0.000517,0.002759,0.059629,-0.252897,-1.055952,0.634624,-0.014872,0.010614
00629,112219,0.010901,0.113225,9.894148,0.004712,0.005230,0.002887,0.059669,-0.251306,-1.057875,0.636189,-0.012796,0.012678
00630,112319,0.008649,0.110943,9.840024,-0.000225,0.003527,0.001673,0.058665,-0.250318,-1.057324,0.634661,-0.011993,0.014123
00631,112419,0.000226,0.115993,9.862154,0.001135,0.003405,0.001292,0.057637,-0.252367,-1.055927,0.634713,-0.011545,0.015823
00632,112519,0.009841,0.100472,9.901964,0.002455,0.002059,0.001794,0.061098,-0.251498,-1.054376,0.635372,-0.010674,0.016593
00633,112619,0.008496,0.109817,9.883547,0.000749,0.002376,0.000579,0.062128,-0.253411,-1.056476,0.635485,-0.009379,0.016881
00634,112719,0.006681,0.115026,9.889429,0.002194,0.004734,0.001627,0.058635,-0.251387,-1.055876,0.635819,-0.007856,0.018349
00635,112819,0.007948,0.105072,9.876972,0.002068,0.004183,0.001459,0.058657,-0.249844,-1.056799,0.635495,-0.006678,0.019549
00636,112919,0.006814,0.114890,9.873460,0.002582,0.000228,0.001465,0.058590,-0.251009,-1.053352,0.636152,-0.007644,0.020640
00637,113019,0.010063,0.132377,9.886156,0.001947,0.002161,0.001781,0.059136,-0.249900,-1.055799,0.635867,-0.007423,0.021796
00638,113119,0.021007,0.096947,9.880267,0.003134,0.000074,0.000934,0.060109,-0.252455,-1.054927,0.637160,-0.008046,0.022545
00639,113219,0.011182,0.104321,9.875827,0.001101,0.000509,0.002105,0.060119,-0.252431,-1.055426,0.637234,-0.008441,0.023999
00640,113319,0.005802,0.118207,9.874827,-0.000872,0.000932,0.001168,0.063096,-0.253997,-1.055002,0.636724,-0.007618,0.024372
00641,113419,0.020425,0.100786,9.878437,0.003031,0.000638,0.001064,0.061147,-0.249883,-1.056799,0.636962,-0.007652,0.024665
00642,113519,0.009680,0.104625,9.878563,0.001951,0.000363,-0.000288,0.061611,-0.253451,-1.055477,0.637840,-0.007645,0.024513
00643,113619,0.007121,0.124259,9.878039,0.000379,-0.001392,0.001525,0.060629,-0.250920,-1.055850,0.636977,-0.008969,0.025275
00644,113719,0.011028,0.099449,9.878742,0.001667,-0.000731,0.001629,0.061095,-0.252993,-1.054452,0.637634,-0.009712,0.026171
00645,113819,0.013167,0.105928,9.878075,-0.000272,-0.001803,0.000766,0.061571,-0.250084,-1.052800,0.636400,-0.010828,0.025863
00646,113919,0.010178,0.104464,9.878527,0.001466,-0.000797,0.000542,0.061144,-0.251876,-1.056900,0.636375,-0.011668,0.026158
00647,114019,0.014252,0.117631,9.886741,0.000995,0.001088,0.001449,0.059106,-0.250968,-1.054351,0.636017,-0.011980,0.027147
00648,114119,0.012869,0.126272,9.874439,0.000723,0.001708,0.001616,0.059162,-0.250824,-1.057350,0.635201,-0.012034,0.028461
00649,114219,0.011141,0.109648,9.871184,0.001326,0.004345,0.001766,0.060123,-0.249940,-1.055300,0.634631,-0.010199,0.029335
00650,114319,0.018447,0.106130,9.870081,0.001650,0.002202,0.000951,0.062629,-0.251924,-1.056400,0.634780,-0.008849,0.029478
00651,114419,0.016429,0.127189,9.849309,0.001797,0.002279,0.001259,0.060157,-0.251836,-1.057400,0.634899,-0.008283,0.030506
00652,114519,-0.003075,0.112098,9.869497,0.001321,0.000247,0.001813,0.060603,-0.249996,-1.054300,0.634434,-0.008614,0.031195
00653,114619,0.013535,0.100585,9.886515,0.000295,-0.000929,0.001065,0.059153,-0.250848,-1.056850,0.633437,-0.010162,0.032159
00654,114719,0.018847,0.109831,9.874028,-0.000763,0.000261,0.001709,0.060619,-0.250944,-1.055350,0.632001,-0.010512,0.033002
00655,114819,0.007783,0.123709,9.865688,0.002523,0.001131,0.001781,0.058674,-0.250294,-1.057824,0.632032,-0.011061,0.034521
00656,114919,0.026966,0.109843,9.903438,-0.000757,0.002305,0.003022,0.060130,-0.251410,-1.055875,0.630709,-0.010422,0.036367
00657,115019,0.017701,0.116113,9.877526,0.001995,0.004517,0.001882,0.058137,-0.251379,-1.055876,0.630952,-0.009138,0.038090
00658,115119,0.011627,0.104482,9.865420,0.002682,0.002953,0.001547,0.061126,-0.251426,-1.055875,0.631597,-0.007821,0.038850
00659,115219,0.006575,0.102328,9.905587,0.002749,0.002055,0.002096,0.056668,-0.252778,-1.057452,0.632562,-0.008468,0.041389
00660,115319,0.014355,0.093934,9.878974,0.002960,-0.000867,0.001862,0.060655,-0.251844,-1.057400,0.633356,-0.009537,0.042615
00661,115419,0.017169,0.090280,9.854751,0.001985,-0.001147,0.000033,0.059644,-0.249386,-1.056274,0.632924,-0.011009,0.042550
00662,115519,-0.007841,0.119525,9.866344,0.001315,-0.000887,0.000825,0.062094,-0.251514,-1.054375,0.632928,-0.011510,0.042485
00663,115619,0.015360,0.109855,9.888255,0.001766,0.002318,0.002854,0.059635,-0.249410,-1.055774,0.632425,-0.010996,0.044037
00664,115719,0.002880,0.120600,9.881877,0.001360,0.002398,0.001420,0.061125,-0.251924,-1.055901,0.632456,-0.009985,0.044780
00665,115819,0.023387,0.100261,9.905523,0.000360,0.000896,0.002046,0.059614,-0.250952,-1.054851,0.631705,-0.010259,0.046023
00666,115919,0.005224,0.106961,9.838909,-0.000358,0.003003,0.001649,0.059650,-0.251354,-1.056875,0.630504,-0.009392,0.047288
00667,116019,0.013798,0.118056,9.849482,0.001998,0.004129,0.000974,0.060639,-0.250398,-1.056324,0.630407,-0.007559,0.047734
00668,116119,0.015086,0.115902,9.865646,0.002444,0.003189,0.003792,0.061146,-0.250381,-1.056824,0.630518,-0.006153,0.049706
00669,116219,0.021949,0.110736,9.880756,0.003553,0.003937,0.001370,0.059715,-0.251684,-1.060399,0.631363,-0.004882,0.051184
00670,116319,0.007274,0.117833,9.880208,0.002067,0.003234,0.001513,0.060626,-0.252415,-1.055926,0.631945,-0.003582,0.052216
00671,116419,0.016330,0.101263,9.857374,0.000978,0.002120,0.003852,0.059639,-0.252375,-1.056426,0.631847,-0.003252,0.054871
00672,116519,0.001577,0.120521,9.863900,0.001582,0.001158,0.000894,0.061101,-0.249506,-1.054274,0.631405,-0.002925,0.054828
00673,116619,0.011901,0.094637,9.856158,0.000411,-0.001156,0.001768,0.057160,-0.251315,-1.056876,0.630631,-0.005207,0.056777
00674,116719,0.019737,0.110958,9.896409,-0.000029,-0.000875,0.001374,0.059103,-0.252961,-1.054452,0.630302,-0.006647,0.058040
00675,116819,0.015436,0.105976,9.903651,0.001070,0.001865,0.002290,0.060634,-0.253387,-1.056477,0.630563,-0.006138,0.059713
00676,116919,0.011538,0.115431,9.875534,0.004364,0.005004,0.001893,0.060609,-0.251467,-1.054876,0.632252,-0.003785,0.060738
00677,117019,0.030649,0.107086,9.886879,0.001103,0.002659,0.001878,0.061651,-0.251860,-1.057400,0.631988,-0.002563,0.061783
00678,117119,0.011202,0.113683,9.886222,0.002764,0.002512,0.002131,0.061105,-0.252471,-1.054926,0.633051,-0.001508,0.062975
00679,117219,0.003194,0.117589,9.892141,0.001957,0.003649,0.000815,0.060122,-0.250438,-1.055325,0.633011,-0.000103,0.063386
00680,117319,0.002626,0.110060,9.861545,0.002546,0.001009,-0.000638,0.062122,-0.251442,-1.055875,0.633563,0.000370,0.062674
00681,117419,0.012654,0.116885,9.865813,0.001706,-0.001442,0.001001,0.059651,-0.250856,-1.056850,0.633381,-0.001332,0.063473
00682,117519,0.011779,0.110290,9.897309,0.001157,-0.003865,0.000610,0.059152,-0.251346,-1.056875,0.633031,-0.004552,0.064212
00683,117619,0.019299,0.106809,9.892731,0.000070,-0.004430,0.001287,0.060148,-0.251362,-1.056875,0.632070,-0.007786,0.065086
00684,117719,0.001931,0.113627,9.882629,-0.000315,-0.003238,0.001029,0.062153,-0.249875,-1.057298,0.630424,-0.009741,0.065152
00685,117819,0.014021,0.100522,9.873426,-0.000269,-0.000016,0.001776,0.061612,-0.252953,-1.055451,0.629862,-0.009958,0.066075
00686,117919,0.033211,0.093957,9.885681,0.000413,0.001958,0.001657,0.059196,-0.252721,-1.059450,0.629309,-0.009895,0.067851
00687,118019,0.005951,0.101909,9.906298,0.000176,0.002262,0.001994,0.060593,-0.250020,-1.053800,0.628274,-0.009047,0.068586
00688,118119,0.018776,0.110783,9.876077,0.002564,0.002779,0.001186,0.060607,-0.252463,-1.054926,0.629231,-0.007947,0.069319
00689,118219,0.023401,0.110598,9.879194,0.002933,0.002431,0.002333,0.063128,-0.251434,-1.056374,0.629979,-0.006371,0.070118
00690,118319,0.016265,0.107996,9.886185,0.003589,0.001129,0.002103,0.061624,-0.246476,-1.055121,0.629748,-0.005924,0.070348
00691,118419,0.014512,0.119803,9.888986,0.003933,0.001137,0.001847,0.058653,-0.251837,-1.056901,0.631139,-0.006413,0.072011
00692,118519,0.005040,0.110905,9.886752,0.002026,0.000328,0.003325,0.060193,-0.252238,-1.059425,0.631356,-0.007006,0.074430
00693,118619,0.011172,0.117302,9.865433,0.000603,0.000336,0.001220,0.060167,-0.251314,-1.057875,0.630614,-0.007531,0.075380
00694,118719,0.021842,0.099868,9.868031,0.002434,0.003832,0.002726,0.060125,-0.253901,-1.056002,0.631808,-0.006025,0.077391
00695,118819,0.010580,0.097106,9.877085,0.001177,0.003044,0.002141,0.058671,-0.252287,-1.057926,0.631665,-0.005449,0.079365
00696,118919,0.005015,0.106764,9.867458,0.002294,0.002976,0.000433,0.060139,-0.251386,-1.056375,0.632019,-0.004427,0.079760
00697,119019,0.007970,0.101060,9.877711,0.001930,0.001197,0.001148,0.059623,-0.250928,-1.055350,0.632108,-0.004540,0.080506
00698,119119,0.013831,0.103946,9.904032,0.002084,0.000681,0.001006,0.060132,-0.250414,-1.055825,0.632102,-0.004815,0.081023
00699,119219,0.001643,0.120550,9.879499,0.000967,0.001866,0.001689,0.057138,-0.252858,-1.055953,0.632147,-0.005280,0.082978
00700,119319,0.022883,0.125277,9.869409,0.000119,0.002176,0.000625,0.059652,-0.250358,-1.056824,0.630932,-0.004865,0.083471
00701,119419,0.022911,0.110559,9.901434,0.000821,0.001722,0.001545,0.061658,-0.253330,-1.057976,0.630882,-0.004195,0.084599
00702,119519,0.015204,0.111066,9.885758,0.000090,0.004269,0.001588,0.060654,-0.252342,-1.057425,0.630177,-0.002339,0.085800
00703,119619,0.010691,0.106991,9.860730,0.000509,0.001867,0.001621,0.060169,-0.250318,-1.057824,0.629110,-0.002007,0.086852
00704,119719,0.009595,0.104706,9.902035,0.003351,0.003886,0.001063,0.061111,-0.249481,-1.054774,0.629660,-0.000152,0.086979
00705,119819,0.014629,0.106726,9.860050,0.001173,0.001176,0.001126,0.061147,-0.249883,-1.056799,0.628929,0.000090,0.087377
00706,119919,0.003068,0.120682,9.862964,0.002542,-0.001054,0.000714,0.059153,-0.250848,-1.056850,0.629250,-0.001503,0.088113
00707,120019,0.016080,0.114657,9.881639,0.001472,-0.000578,0.000663,0.060125,-0.248943,-1.055249,0.628545,-0.002484,0.088167
00708,120119,-0.003094,0.125838,9.867912,0.000853,0.000765,0.001979,0.062126,-0.249449,-1.055773,0.627595,-0.002160,0.088646
00709,120219,0.027822,0.113275,9.873050,0.000059,-0.000304,0.001893,0.058653,-0.251837,-1.056901,0.626784,-0.003461,0.090333
00710,120319,0.003109,0.104473,9.911400,-0.000042,0.003810,0.002450,0.060131,-0.250912,-1.055850,0.625738,-0.001962,0.091788
00711,120419,0.019064,0.113626,9.870094,0.001244,0.004417,0.000251,0.060631,-0.249923,-1.055799,0.625158,0.000031,0.091735
00712,120519,0.017481,0.106713,9.880739,0.001862,0.002090,0.002181,0.063142,-0.253877,-1.057501,0.625912,0.001308,0.092898
00713,120619,0.005336,0.117131,9.870944,0.003549,-0.000480,0.002461,0.058158,-0.250334,-1.056825,0.626685,-0.000239,0.094817
00714,120719,0.004616,0.122277,9.865921,0.001300,-0.000025,0.002219,0.060638,-0.250896,-1.056350,0.626364,-0.000813,0.096046
00715,120819,0.003748,0.108833,9.880179,0.000267,0.000152,0.000135,0.059174,-0.249305,-1.057773,0.624912,-0.001717,0.096346
00716,120919,0.016944,0.113031,9.891753,0.002346,-0.000933,0.000747,0.059622,-0.251925,-1.055401,0.625551,-0.003046,0.097008
00717,121019,0.006016,0.100762,9.878248,0.000366,-0.000267,0.001793,0.059631,-0.251901,-1.055901,0.625014,-0.004006,0.098313
00718,121119,-0.011308,0.112354,9.889425,-0.001706,-0.002736,0.000959,0.059650,-0.251354,-1.056875,0.623078,-0.006386,0.099131
00719,121219,0.006930,0.118372,9.883655,-0.001265,-0.002699,0.002194,0.060142,-0.249892,-1.056299,0.621043,-0.008582,0.100266
00720,121319,0.037338,0.106517,9.880274,-0.000897,-0.003771,-0.000376,0.061616,-0.250960,-1.055350,0.619593,-0.010933,0.099628
00721,121419,0.017373,0.100980,9.878529,-0.002456,-0.003682,0.001523,0.060116,-0.248967,-1.054749,0.616756,-0.013619,0.100090
00722,121519,0.009526,0.118133,9.879165,0.001018,-0.001461,0.001423,0.061156,-0.250357,-1.057324,0.616112,-0.014825,0.100706
00723,121619,0.016343,0.113014,9.894084,0.001396,0.001940,-0.000352,0.059102,-0.253459,-1.054478,0.616741,-0.014554,0.100956
00724,121719,0.010689,0.119186,9.895175,0.002052,0.003354,0.001707,0.059591,-0.248533,-1.053224,0.616483,-0.013306,0.101487
00725,121819,0.016798,0.126669,9.879702,0.000192,0.003021,0.002759,0.057629,-0.251893,-1.055402,0.615928,-0.012869,0.103779
00726,121919,0.015393,0.117391,9.871316,0.001329,0.004192,0.002654,0.059164,-0.249827,-1.057299,0.615325,-0.011402,0.105547
00727,122019,0.012388,0.122722,9.881734,0.001367,0.000810,0.001065,0.062132,-0.250920,-1.056349,0.615115,-0.011028,0.105725
00728,122119,0.014891,0.114829,9.880256,0.001699,0.000950,0.001102,0.058620,-0.249442,-1.054775,0.614805,-0.011475,0.106420
00729,122219,0.039842,0.106129,9.890049,0.001992,0.001157,0.000496,0.059638,-0.253371,-1.056477,0.615610,-0.011586,0.107237
00730,122319,0.027140,0.111442,9.875547,0.003001,0.002631,0.001250,0.061582,-0.254520,-1.054028,0.617470,-0.010263,0.107948
00731,122419,0.020237,0.127492,9.870766,0.002603,0.001929,0.001104,0.061606,-0.250984,-1.054850,0.618079,-0.009357,0.108157
00732,122519,0.014733,0.096204,9.887654,0.000293,0.002329,0.001417,0.060160,-0.249843,-1.057299,0.616884,-0.008693,0.108987
00733,122619,0.023764,0.115499,9.877186,0.002608,0.002453,0.001996,0.059648,-0.252849,-1.056951,0.617852,-0.008098,0.110633
00734,122719,0.009068,0.112307,9.867471,0.000842,-0.000862,0.001856,0.059094,-0.252487,-1.053927,0.617922,-0.009449,0.111948
00735,122819,0.009947,0.103141,9.869121,0.002565,0.001865,0.002356,0.061645,-0.250389,-1.056824,0.618206,-0.008641,0.112993
00736,122919,0.001846,0.105962,9.864283,-0.000193,0.000422,0.001728,0.059613,-0.251451,-1.054876,0.617337,-0.009141,0.114076
00737,123019,0.018086,0.105896,9.857296,0.001507,0.002635,0.001246,0.059690,-0.249763,-1.058798,0.616715,-0.008468,0.115056
00738,123119,0.009703,0.101033,9.880422,0.002840,0.003170,0.002355,0.062119,-0.253435,-1.055976,0.618036,-0.006775,0.116329
00739,123219,0.021255,0.117238,9.886020,0.001490,0.001456,0.001413,0.059623,-0.251427,-1.055376,0.618084,-0.006703,0.117285
00740,123319,0.007313,0.119020,9.864507,0.003176,0.002559,0.001222,0.058599,-0.250985,-1.053851,0.619081,-0.006227,0.118154
00741,123419,0.020474,0.108424,9.866230,0.002597,0.001704,0.001437,0.060124,-0.249442,-1.055274,0.619233,-0.005876,0.118739
00742,123519,0.011348,0.117226,9.870039,0.001843,0.001967,0.002426,0.062593,-0.251522,-1.054375,0.619571,-0.004704,0.119519
00743,123619,0.012258,0.110148,9.903442,0.002149,-0.000791,0.000600,0.061674,-0.249321,-1.058272,0.619227,-0.005455,0.119574
00744,123719,0.013795,0.114558,9.859710,0.001767,0.003600,0.001855,0.059671,-0.250310,-1.057824,0.618962,-0.004225,0.120913
00745,123819,0.016077,0.107941,9.885590,0.002965,0.001189,0.000839,0.060139,-0.251386,-1.056375,0.619766,-0.004205,0.121525
00746,123919,0.013436,0.113683,9.881049,0.000942,0.000231,0.001717,0.062592,-0.252020,-1.054401,0.619715,-0.004033,0.121937
00747,124019,0.007377,0.120517,9.870141,0.001375,0.000538,0.001826,0.062132,-0.251418,-1.056375,0.619618,-0.003866,0.122658
00748,124119,0.019110,0.102204,9.882509,0.000716,-0.001090,0.001619,0.059129,-0.248927,-1.055249,0.618565,-0.005377,0.123539
00749,124219,0.022001,0.097489,9.882872,0.001797,-0.000863,0.000475,0.060650,-0.249377,-1.056773,0.618147,-0.006391,0.123622
00750,124319,0.016381,0.099366,9.888552,0.003123,0.000096,0.000681,0.058157,-0.250832,-1.056850,0.618866,-0.007512,0.124578
00751,124419,0.026025,0.116177,9.873628,0.001838,0.001792,0.000971,0.058665,-0.250318,-1.057324,0.618682,-0.007542,0.125580
00752,124519,0.019572,0.095345,9.873282,0.001836,0.002359,0.001418,0.059653,-0.249860,-1.056799,0.618412,-0.006977,0.126496
00753,124619,0.026158,0.117945,9.880567,-0.000492,0.000194,0.001263,0.060151,-0.249867,-1.056799,0.616820,-0.007520,0.127191
00754,124719,0.011134,0.103797,9.882366,0.000763,-0.000954,0.000185,0.058188,-0.248767,-1.058248,0.615567,-0.009256,0.127756
00755,124819,0.018944,0.127758,9.861629,0.002079,-0.000738,0.001279,0.058672,-0.251788,-1.057901,0.615883,-0.010737,0.129153
00756,124919,0.015154,0.104820,9.880982,0.002999,-0.000996,0.001286,0.058653,-0.251837,-1.056901,0.616801,-0.012333,0.130447
00757,125019,0.013399,0.114657,9.882432,0.000881,0.000484,0.000771,0.059659,-0.251828,-1.057400,0.616471,-0.012828,0.131262
00758,125119,0.018285,0.103133,9.870653,0.002400,-0.000223,-0.001483,0.060112,-0.250960,-1.054851,0.616956,-0.013521,0.130283
00759,125219,0.002863,0.103446,9.885644,0.002457,0.002989,0.001962,0.061634,-0.250912,-1.056350,0.617357,-0.012050,0.131091
00760,125319,0.007984,0.108205,9.874499,0.000697,0.002971,0.001925,0.060673,-0.251796,-1.058400,0.616843,-0.010903,0.132449
00761,125419,0.024859,0.096220,9.865242,0.002054,0.003809,0.001594,0.060654,-0.252342,-1.057425,0.617311,-0.009260,0.133599
00762,125519,0.011694,0.105196,9.866892,0.001937,0.002821,0.002472,0.060630,-0.250422,-1.055824,0.617320,-0.008149,0.134839
00763,125619,0.016300,0.106833,9.878253,0.002966,0.002473,0.001427,0.061145,-0.250880,-1.056849,0.617967,-0.007134,0.135530
00764,125719,0.012209,0.096486,9.867668,0.000210,0.001912,0.001467,0.060619,-0.250944,-1.055350,0.617153,-0.006535,0.136213
00765,125819,0.013870,0.098198,9.886103,0.002754,0.000120,0.000665,0.059630,-0.252399,-1.055926,0.618127,-0.007227,0.136889
00766,125919,0.018731,0.116565,9.882324,0.002211,0.001148,0.001374,0.059653,-0.249860,-1.056799,0.618080,-0.007347,0.137759
00767,126019,0.014302,0.125714,9.904561,0.003778,0.003355,0.003309,0.062652,-0.249385,-1.057272,0.618777,-0.005471,0.139051
00768,126119,0.024152,0.117274,9.853284,0.004041,0.007041,0.001886,0.061615,-0.251458,-1.055375,0.620273,-0.001707,0.139841
00769,126219,0.007867,0.113074,9.872770,0.000935,0.004140,0.002164,0.059685,-0.252753,-1.058950,0.620084,-0.000206,0.141774
00770,126319,0.005359,0.127520,9.883760,0.002818,0.004503,0.003235,0.060141,-0.250390,-1.056324,0.620543,0.001684,0.143667
00771,126419,0.012920,0.115493,9.892146,0.002587,0.001507,0.000620,0.059075,-0.253034,-1.052953,0.621758,0.001692,0.144219
00772,126519,0.015739,0.105880,9.884279,0.001774,-0.002230,0.001112,0.059115,-0.251443,-1.054876,0.621975,-0.000474,0.145037
00773,126619,0.020584,0.096838,9.863590,0.001418,-0.003062,0.000846,0.059108,-0.249972,-1.054300,0.621652,-0.003086,0.145451
00774,126719,0.022725,0.130984,9.872616,-0.001266,-0.003665,0.001872,0.060133,-0.249916,-1.055799,0.619690,-0.005819,0.146362
00775,126819,0.013661,0.111068,9.888381,-0.000716,-0.001892,0.001945,0.061691,-0.250269,-1.059323,0.617913,-0.007236,0.147393
00776,126919,0.026352,0.121562,9.886008,0.001418,0.000849,0.001238,0.062160,-0.251346,-1.057874,0.617728,-0.006925,0.147892
00777,127019,0.013815,0.121506,9.856026,0.002096,0.001254,0.001008,0.058147,-0.251355,-1.056376,0.618030,-0.007343,0.149031
00778,127119,0.027257,0.111575,9.858226,0.002199,0.003413,0.001219,0.059161,-0.251322,-1.057375,0.618316,-0.006304,0.150177
00779,127219,0.012682,0.103181,9.874039,0.001799,0.001015,0.000388,0.061642,-0.251884,-1.056900,0.618544,-0.006003,0.150273
00780,127319,0.002333,0.097547,9.888166,-0.000289,-0.000031,0.001795,0.061176,-0.249313,-1.058273,0.616849,-0.006456,0.151139
00781,127419,-0.004128,0.116012,9.875648,0.001647,-0.000044,0.000709,0.059672,-0.249313,-1.057773,0.616299,-0.007265,0.151674
00782,127519,0.007253,0.113216,9.870421,0.001984,-0.001647,0.002916,0.060132,-0.250414,-1.055825,0.616344,-0.008833,0.153248
00783,127619,0.027303,0.122037,9.874106,0.000294,0.002358,0.001369,0.058158,-0.250334,-1.056825,0.615341,-0.008613,0.154536
00784,127719,0.019204,0.134365,9.878641,0.001173,0.002320,0.001783,0.059639,-0.252375,-1.056426,0.615377,-0.008046,0.155901
00785,127819,0.030032,0.106054,9.875451,0.003137,0.003085,0.000561,0.057667,-0.251299,-1.057375,0.616205,-0.007547,0.157011
00786,127919,0.010035,0.113834,9.868074,-0.000212,0.001743,0.000791,0.059641,-0.251379,-1.056375,0.615203,-0.007304,0.157684
00787,128019,0.009079,0.114120,9.855663,0.000994,0.003159,0.002607,0.061094,-0.248533,-1.053724,0.614360,-0.005832,0.158411
00788,128119,0.007771,0.111567,9.877931,0.001797,0.000761,0.001466,0.060637,-0.251394,-1.056375,0.614516,-0.005915,0.159236
00789,128219,0.010451,0.112935,9.890055,0.001605,0.000574,0.001154,0.062118,-0.253933,-1.056002,0.615213,-0.005735,0.159792
00790,128319,0.028433,0.110030,9.865873,0.001336,-0.000500,0.001204,0.058621,-0.254400,-1.055529,0.615895,-0.007012,0.161166
00791,128419,0.028550,0.098965,9.858584,0.001776,0.001358,0.001823,0.060609,-0.251467,-1.054876,0.616143,-0.006720,0.162043
00792,128519,0.004511,0.109256,9.874331,0.002194,0.003655,0.001851,0.059155,-0.249851,-1.056799,0.616112,-0.005520,0.163306
00793,128619,0.000424,0.117783,9.906052,0.002622,0.002528,0.001947,0.059201,-0.249731,-1.059298,0.616141,-0.005021,0.164877
00794,128719,0.018249,0.119750,9.885244,0.003093,0.002099,0.000799,0.061151,-0.252849,-1.057451,0.617316,-0.004246,0.165520
00795,128819,0.026793,0.110887,9.881186,0.001538,0.000492,0.001807,0.059633,-0.250904,-1.055850,0.617223,-0.004720,0.166645
00796,128919,0.029482,0.129703,9.850823,0.001655,0.003511,0.002010,0.061608,-0.249987,-1.054799,0.617041,-0.002963,0.167241
00797,129019,0.019879,0.097886,9.881704,0.002241,0.003636,0.003035,0.058673,-0.251290,-1.057875,0.617318,-0.001941,0.169592
00798,129119,0.022036,0.117461,9.869767,-0.001124,-0.000359,0.000405,0.060128,-0.252407,-1.055926,0.616068,-0.002786,0.169998
00799,129219,0.016968,0.097783,9.891919,0.003895,0.000648,0.001542,0.061666,-0.248847,-1.057747,0.616710,-0.002731,0.170502
00800,129319,0.014368,0.105200,9.892904,0.002129,0.002831,0.000223,0.059146,-0.249377,-1.056274,0.616561,-0.001991,0.170726
00801,129419,0.012198,0.118362,9.864598,0.000346,0.002384,0.002355,0.059650,-0.251354,-1.056875,0.615837,-0.001420,0.172359
00802,129519,0.013030,0.114378,9.882526,0.003922,0.005556,0.001245,0.061108,-0.250976,-1.054850,0.617189,0.001368,0.172775
00803,129619,0.017822,0.092289,9.888166,0.001876,0.005076,0.002263,0.059150,-0.247385,-1.056172,0.616420,0.003367,0.173959
00804,129719,-0.006493,0.120322,9.854857,0.002859,0.004037,0.000800,0.060638,-0.250896,-1.056350,0.617051,0.005119,0.174395
00805,129819,0.023516,0.103261,9.866070,0.001254,0.002524,0.001555,0.061157,-0.249859,-1.057298,0.616456,0.006097,0.175127
00806,129919,0.022505,0.098056,9.868621,0.001461,-0.003458,0.001264,0.060627,-0.251916,-1.055901,0.616561,0.003566,0.175841
00807,130019,0.016949,0.114325,9.877449,-0.000169,-0.003187,0.002338,0.060097,-0.253974,-1.054503,0.616314,0.001102,0.177353
00808,130119,0.010698,0.120939,9.864222,0.001358,-0.001417,0.000950,0.059143,-0.251370,-1.056376,0.616201,-0.000603,0.178217
00809,130219,0.020706,0.108755,9.874927,0.002066,0.000384,0.000948,0.059688,-0.250760,-1.058849,0.616197,-0.001207,0.179183
00810,130319,0.020054,0.093676,9.884131,-0.000094,0.002605,0.001579,0.063119,-0.250960,-1.055849,0.615191,0.000344,0.179421
00811,130419,0.009378,0.127467,9.860829,0.003548,0.002643,0.001683,0.061095,-0.252993,-1.054452,0.616835,0.001463,0.180239
00812,130519,0.018396,0.113233,9.886545,0.001121,0.003235,0.001476,0.061669,-0.252310,-1.058425,0.616685,0.002952,0.181222
00813,130619,0.032352,0.108110,9.871120,-0.000135,0.001247,0.001422,0.059116,-0.250944,-1.054851,0.615709,0.002790,0.182153
00814,130719,0.020417,0.116856,9.876023,0.002687,-0.000749,0.001467,0.058167,-0.250310,-1.057324,0.616048,0.001205,0.183525
00815,130819,0.006236,0.097677,9.883952,0.000310,-0.000011,0.001611,0.056176,-0.249282,-1.057274,0.614788,-0.000415,0.185294
00816,130919,0.005882,0.120090,9.886378,-0.000759,-0.001160,0.001735,0.060642,-0.248903,-1.056248,0.612898,-0.001608,0.185949
00817,131019,0.020492,0.094764,9.894471,0.003105,0.002061,0.001349,0.059198,-0.251724,-1.059400,0.613698,-0.001377,0.187445
00818,131119,-0.003156,0.120660,9.833718,-0.000555,0.000909,0.000560,0.059141,-0.252367,-1.056426,0.612736,-0.001739,0.188223
00819,131219,0.024626,0.087635,9.884319,0.006364,0.000308,0.000666,0.059107,-0.250470,-1.054325,0.615402,-0.002395,0.188570
00820,131319,0.011521,0.092795,9.922135,0.000525,0.001337,0.001201,0.060602,-0.250494,-1.054325,0.614731,-0.002115,0.188899
00821,131419,0.004011,0.103320,9.869165,-0.002035,0.001107,0.001878,0.060643,-0.247906,-1.056197,0.611883,-0.002005,0.189507
00822,131519,0.001956,0.103276,9.866664,0.005416,0.002765,0.000869,0.060174,-0.252785,-1.058451,0.614309,-0.001114,0.190530
00823,131619,0.012250,0.104948,9.896111,0.001247,0.002652,0.002331,0.062134,-0.249923,-1.056298,0.613804,0.000212,0.191340
00824,131719,0.005536,0.114729,9.867042,0.000655,0.002354,0.002092,0.060658,-0.250350,-1.057324,0.613002,0.000997,0.192531
00825,131819,0.014406,0.118719,9.859341,0.000948,0.001721,0.001518,0.060147,-0.252359,-1.056926,0.612864,0.001310,0.193695
00826,131919,0.010332,0.126644,9.875047,0.000398,-0.000371,0.002581,0.061664,-0.249843,-1.057798,0.611776,0.000755,0.194922
00827,132019,0.008596,0.114403,9.889675,-0.000882,0.001448,0.001445,0.060213,-0.251692,-1.060399,0.610240,0.000847,0.196372
00828,132119,0.033233,0.099448,9.861654,0.001767,0.002118,0.001177,0.060678,-0.249305,-1.058273,0.609794,0.001484,0.197038
00829,132219,0.023846,0.095653,9.883301,0.003243,0.003905,0.001479,0.060667,-0.250325,-1.057824,0.610453,0.003143,0.197958
00830,132319,0.035720,0.110906,9.879702,0.001207,0.003179,0.002159,0.060119,-0.252431,-1.055426,0.610575,0.004306,0.199336
00831,132419,0.020365,0.119411,9.858863,0.003004,0.002211,0.000450,0.060573,-0.251065,-1.052851,0.611556,0.005089,0.199155
00832,132519,0.014008,0.096376,9.883127,0.004723,0.001570,0.002266,0.060105,-0.249988,-1.054300,0.613179,0.005353,0.200174
00833,132619,0.022421,0.108944,9.876471,0.002039,0.002003,0.002526,0.060680,-0.253267,-1.058975,0.613748,0.005875,0.202150
00834,132719,0.030821,0.112125,9.869812,0.004161,0.002068,0.000842,0.060141,-0.250390,-1.056324,0.615015,0.006386,0.202643
00835,132819,0.016768,0.093697,9.883952,-0.000156,0.002767,0.002602,0.059150,-0.252343,-1.056926,0.614227,0.007041,0.204662
00836,132919,0.027989,0.099717,9.896868,0.002255,0.002342,0.001802,0.063098,-0.252502,-1.054926,0.614972,0.008401,0.205119
00837,133019,0.012505,0.114575,9.876805,0.001510,0.004589,0.000959,0.056641,-0.252352,-1.055927,0.615192,0.009551,0.206631
00838,133119,0.013049,0.108276,9.856658,0.002023,0.002158,0.001077,0.060075,-0.251057,-1.052851,0.615586,0.010165,0.206928
00839,133219,0.015657,0.099667,9.884440,0.001250,-0.001550,0.000256,0.060627,-0.251916,-1.055901,0.615558,0.008717,0.207082
00840,133319,0.026149,0.115554,9.857296,0.001186,0.000123,0.000812,0.059668,-0.251804,-1.057900,0.615353,0.007960,0.208000
00841,133419,0.010092,0.108907,9.892403,0.002120,-0.000723,0.001104,0.060129,-0.251909,-1.055901,0.615820,0.006874,0.208743
00842,133519,0.014072,0.107279,9.876215,0.000541,0.001990,0.003393,0.062618,-0.252944,-1.055951,0.615618,0.007887,0.210421
00843,133619,0.017524,0.099943,9.881591,0.000689,-0.000361,0.000920,0.060142,-0.249892,-1.056299,0.614784,0.007007,0.210881
00844,133719,0.020910,0.099560,9.888189,0.001733,0.001202,0.000779,0.059660,-0.251330,-1.057375,0.614815,0.006887,0.211662
00845,133819,0.014925,0.102475,9.846973,0.000899,0.000619,0.001551,0.059178,-0.252270,-1.058425,0.614523,0.006296,0.213212
00846,133919,0.015949,0.115154,9.871422,0.002845,-0.000089,-0.000035,0.061144,-0.251876,-1.056900,0.615341,0.005791,0.213214
00847,134019,0.015580,0.097311,9.886401,0.000740,-0.002012,0.002704,0.061166,-0.249835,-1.057798,0.614441,0.004162,0.214644
00848,134119,0.018070,0.120607,9.884285,0.001512,-0.002965,0.000217,0.059133,-0.251893,-1.055901,0.614558,0.001597,0.215038
00849,134219,0.015505,0.104578,9.854197,-0.000219,-0.002462,-0.000083,0.059159,-0.252817,-1.057451,0.613807,-0.000701,0.215548
00850,134319,0.007921,0.116136,9.890616,0.000056,-0.000941,0.001234,0.060603,-0.249996,-1.054300,0.612759,-0.001729,0.215810
00851,134419,0.022247,0.110531,9.882790,-0.000358,0.003581,0.001804,0.059163,-0.250326,-1.057324,0.611383,-0.000567,0.217141
00852,134519,0.012234,0.121970,9.881830,0.000272,0.002609,0.002010,0.060661,-0.248357,-1.057222,0.609937,0.000373,0.218044
00853,134619,0.011455,0.099076,9.885347,0.000623,0.002216,0.002634,0.059179,-0.251772,-1.058400,0.609398,0.000722,0.220151
00854,134719,0.022654,0.099289,9.880852,0.002889,0.004029,0.001010,0.062069,-0.255548,-1.053579,0.611269,0.002862,0.220594
00855,134819,0.009492,0.107120,9.863745,0.003118,0.003819,0.000867,0.061116,-0.251948,-1.055401,0.612354,0.004624,0.220962
00856,134919,0.004689,0.118573,9.865800,0.004497,0.002836,0.000739,0.060112,-0.250960,-1.054851,0.614031,0.005611,0.221264
00857,135019,0.012162,0.097888,9.884696,0.002519,0.000557,0.001363,0.059127,-0.249924,-1.055300,0.614314,0.005063,0.222041
00858,135119,0.011188,0.102435,9.871041,0.002375,0.000829,-0.000382,0.061653,-0.250864,-1.057349,0.614611,0.005194,0.221694
00859,135219,0.016924,0.114793,9.883683,0.002666,0.001564,0.002922,0.058646,-0.250366,-1.056325,0.615017,0.005083,0.223645
00860,135319,0.006997,0.105933,9.860294,0.001400,0.001715,0.001762,0.062167,-0.252318,-1.058424,0.615018,0.005794,0.224730
00861,135419,-0.003073,0.123315,9.876148,0.002510,0.000915,-0.000196,0.061138,-0.249907,-1.056299,0.615236,0.005881,0.224355
00862,135519,0.024469,0.104970,9.891492,0.001818,0.003374,0.002189,0.059651,-0.250856,-1.056850,0.615236,0.007016,0.225829
00863,135619,0.006541,0.097236,9.880382,0.000907,0.003804,-0.000870,0.060132,-0.250414,-1.055825,0.614676,0.008540,0.225285
00864,135719,0.032671,0.104124,9.879338,0.001218,0.001303,0.001622,0.061633,-0.251908,-1.056400,0.614594,0.008929,0.226092
00865,135819,0.015075,0.099199,9.875136,0.001665,-0.001819,0.000755,0.059622,-0.251925,-1.055401,0.614825,0.007122,0.226640
00866,135919,0.018965,0.102410,9.890192,0.001874,0.002444,0.000506,0.060160,-0.249843,-1.057299,0.614610,0.007834,0.227001
00867,136019,0.017199,0.108808,9.871858,0.001200,0.002251,0.001846,0.058639,-0.249394,-1.055774,0.613996,0.008127,0.228183
00868,136119,0.022784,0.125075,9.869228,0.002554,0.001169,0.001883,0.059633,-0.250406,-1.055825,0.614378,0.008017,0.229293
00869,136219,0.014488,0.102496,9.888290,0.002405,-0.000421,0.001742,0.058665,-0.250318,-1.057324,0.614572,0.006757,0.230687
00870,136319,0.006125,0.107268,9.888052,0.002488,0.004149,0.000815,0.059660,-0.251330,-1.057375,0.615032,0.008331,0.231501
00871,136419,0.006993,0.110609,9.863906,0.001833,0.003014,0.002495,0.061185,-0.249289,-1.058772,0.614593,0.009543,0.232916
00872,136519,0.015827,0.111380,9.877943,0.001389,-0.000282,-0.000344,0.061597,-0.251008,-1.054350,0.614521,0.009073,0.232214
00873,136619,0.004813,0.128569,9.880845,0.002086,-0.003312,-0.000004,0.059118,-0.249948,-1.054800,0.614591,0.006327,0.232132
00874,136719,0.003443,0.095003,9.868139,-0.000013,-0.001403,0.000579,0.059148,-0.248381,-1.056223,0.613042,0.004656,0.232400
00875,136819,0.012887,0.098931,9.874868,0.001674,0.001327,0.000413,0.059652,-0.250358,-1.056824,0.612862,0.004643,0.232783
00876,136919,0.025621,0.107675,9.864116,-0.000864,0.001881,0.000938,0.059134,-0.251395,-1.055876,0.611512,0.004852,0.233575
00877,137019,-0.002459,0.120727,9.870558,0.001288,0.004659,0.000139,0.058682,-0.251266,-1.058375,0.611232,0.006498,0.234341
00878,137119,0.009870,0.099547,9.902894,0.001352,0.002444,0.002168,0.061629,-0.253901,-1.056502,0.611664,0.007535,0.235703
00879,137219,0.010105,0.099786,9.854656,0.001129,0.002619,0.000879,0.061161,-0.252326,-1.057925,0.611547,0.008546,0.236432
00880,137319,0.018838,0.105012,9.843654,-0.000471,0.001778,0.002126,0.059597,-0.250004,-1.053800,0.610236,0.008823,0.237380
00881,137419,0.017052,0.104383,9.875040,0.002368,-0.001080,-0.000451,0.058646,-0.250366,-1.056325,0.610492,0.007223,0.237399
00882,137519,0.029370,0.107083,9.900390,0.001399,-0.001002,0.001518,0.058654,-0.251338,-1.056875,0.610375,0.005651,0.238723
00883,137619,0.030214,0.098508,9.880824,-0.000617,0.002181,0.001609,0.060136,-0.253379,-1.056477,0.609570,0.006225,0.240017
00884,137719,0.034900,0.108442,9.884255,0.002852,0.000592,0.001874,0.060618,-0.251940,-1.055401,0.610495,0.006016,0.241035
00885,137819,0.027856,0.094937,9.892195,0.001544,0.005018,0.001243,0.058110,-0.251451,-1.054376,0.610616,0.007824,0.242029
00886,137919,0.019550,0.111418,9.896903,0.003229,0.003770,0.002396,0.063100,-0.251506,-1.054875,0.611686,0.009959,0.242766
00887,138019,0.005881,0.115326,9.870289,0.002357,0.003175,0.000372,0.059219,-0.250181,-1.060323,0.611677,0.010815,0.243663
00888,138119,0.015056,0.120115,9.879713,0.002048,0.002325,0.001784,0.063111,-0.250485,-1.055324,0.611826,0.012109,0.243976
00889,138219,0.001788,0.110280,9.885882,0.001790,-0.000101,0.001567,0.058588,-0.252005,-1.053402,0.612253,0.011096,0.244967
00890,138319,0.004344,0.112206,9.890723,-0.000232,-0.000327,0.001129,0.061143,-0.252374,-1.056926,0.611417,0.010427,0.245710
00891,138419,0.012465,0.108266,9.861081,0.000734,0.000471,0.002082,0.059137,-0.249402,-1.055774,0.610560,0.009813,0.246891
00892,138519,0.016171,0.113883,9.902024,0.001254,0.001471,0.002023,0.061636,-0.249915,-1.056299,0.610086,0.010290,0.247685
00893,138619,0.025981,0.120827,9.861391,0.000175,-0.001534,0.001382,0.056133,-0.252866,-1.055453,0.609672,0.007907,0.249410
00894,138719,0.011111,0.096680,9.882210,0.004377,0.001459,0.001755,0.059634,-0.249908,-1.055799,0.611008,0.007974,0.250358
00895,138819,0.020976,0.109064,9.889322,0.001676,0.002411,0.001354,0.059660,-0.251330,-1.057375,0.611018,0.008557,0.251465
00896,138919,0.009196,0.115845,9.874909,0.001888,-0.001533,0.001680,0.061134,-0.251900,-1.056401,0.611322,0.007218,0.252383
00897,139019,0.015525,0.112431,9.873175,0.000455,-0.000907,0.001006,0.059143,-0.251370,-1.056376,0.610695,0.005826,0.253231
00898,139119,0.009977,0.087782,9.896309,-0.001766,0.000370,0.000161,0.063106,-0.253475,-1.055476,0.609297,0.006025,0.252988
00899,139219,-0.000989,0.126761,9.885216,0.000246,0.000496,0.001827,0.060668,-0.249827,-1.057798,0.608158,0.005727,0.254029
00900,139319,0.030217,0.109233,9.867370,0.001602,0.004165,0.001062,0.060166,-0.251812,-1.057900,0.608213,0.007419,0.255005
00901,139419,0.003356,0.090407,9.878742,0.000827,0.003162,0.002872,0.061615,-0.251458,-1.055375,0.607881,0.008880,0.256364
00902,139519,0.008311,0.108004,9.877192,0.001820,0.003111,0.001794,0.062149,-0.251868,-1.057400,0.608098,0.010381,0.257329
00903,139619,0.016466,0.089174,9.883451,0.001566,0.004433,0.003467,0.059667,-0.252303,-1.057925,0.608231,0.012092,0.259844
00904,139719,0.020606,0.104960,9.871822,0.001973,0.001819,0.002885,0.059615,-0.250454,-1.054825,0.608367,0.012365,0.261390
00905,139819,0.021257,0.112358,9.864734,0.003698,0.001783,0.001226,0.060110,-0.251957,-1.054901,0.609799,0.012727,0.262076
00906,139919,0.022898,0.096953,9.871864,0.001328,0.003811,0.001808,0.062139,-0.252390,-1.056925,0.609858,0.014620,0.263069
00907,140019,0.010141,0.121956,9.875267,0.000580,0.001295,0.001444,0.057651,-0.255308,-1.057079,0.610092,0.014135,0.264979
00908,140119,0.000647,0.110368,9.874950,0.003334,0.001637,0.001234,0.062625,-0.248959,-1.055748,0.610638,0.014914,0.265006
00909,140219,0.023896,0.110742,9.896898,0.001499,0.001915,0.000603,0.057610,-0.252439,-1.054427,0.610929,0.014837,0.265760
00910,140319,0.030467,0.126483,9.876239,0.000397,0.002142,0.001897,0.058167,-0.250310,-1.057324,0.609997,0.014938,0.267302
00911,140419,0.019999,0.119364,9.887819,0.002175,0.002882,0.002650,0.059119,-0.248951,-1.054749,0.609932,0.015710,0.268601
00912,140519,0.029490,0.103199,9.880334,0.001558,0.001648,0.002063,0.061155,-0.250856,-1.057349,0.609780,0.016143,0.269789
00913,140619,0.021692,0.120248,9.869808,0.000750,0.003714,0.000772,0.058643,-0.252359,-1.056427,0.609527,0.017262,0.270755
00914,140719,0.000903,0.125914,9.877276,0.000952,0.003718,0.002302,0.058654,-0.251338,-1.056875,0.609155,0.018364,0.272531
00915,140819,0.011364,0.106857,9.903024,0.002239,-0.000530,0.001858,0.059116,-0.250944,-1.054851,0.609541,0.017179,0.273618
00916,140919,0.001078,0.117257,9.884822,0.000662,0.000396,0.001834,0.061634,-0.250912,-1.056350,0.608943,0.017014,0.274458
00917,141019,0.002289,0.113489,9.855937,0.002099,-0.001073,0.000943,0.058165,-0.251307,-1.057375,0.609196,0.015285,0.275561
00918,141119,0.015268,0.118796,9.890556,0.000078,-0.001260,0.001515,0.061146,-0.250381,-1.056824,0.608133,0.014075,0.276277
00919,141219,0.027038,0.110292,9.876023,0.003133,0.001066,-0.000206,0.059153,-0.250848,-1.056850,0.608912,0.013797,0.276428
00920,141319,0.018057,0.093346,9.877550,0.001670,-0.001614,0.002166,0.061144,-0.251876,-1.056900,0.609064,0.012383,0.277718
00921,141419,0.021640,0.115991,9.857774,-0.001687,-0.002710,0.001299,0.059618,-0.248960,-1.054749,0.606806,0.010087,0.278080
00922,141519,0.015799,0.118787,9.851949,0.003164,0.002960,0.000957,0.059123,-0.251917,-1.055401,0.607902,0.010924,0.278854
00923,141619,0.008687,0.092556,9.880524,0.001376,0.001420,0.002904,0.056624,-0.251403,-1.054877,0.607891,0.010369,0.281028
00924,141719,0.010979,0.122461,9.872573,0.001878,0.001834,0.001290,0.060658,-0.250350,-1.057324,0.607830,0.010835,0.281760
00925,141819,0.004328,0.106145,9.872216,0.000511,-0.000493,0.000336,0.059127,-0.249924,-1.055300,0.607002,0.009707,0.281863
00926,141919,0.009039,0.110083,9.869021,0.000225,-0.000295,0.000998,0.059651,-0.250856,-1.056850,0.606128,0.008767,0.282595
00927,142019,0.002066,0.123890,9.877700,-0.000316,0.001515,0.001554,0.059132,-0.252391,-1.055926,0.605310,0.008776,0.283846
00928,142119,0.019675,0.098256,9.881282,-0.000415,0.001594,0.000969,0.059670,-0.250808,-1.057849,0.604018,0.008904,0.284698
00929,142219,0.016355,0.119828,9.903239,0.002381,0.001091,0.000262,0.061654,-0.250365,-1.057323,0.604264,0.009160,0.284664
00930,142319,0.007618,0.098723,9.905092,0.003495,0.003494,0.001553,0.059137,-0.249402,-1.055774,0.605025,0.010302,0.285475
00931,142419,0.009597,0.109732,9.857194,0.002784,0.001203,0.000970,0.062123,-0.250944,-1.055849,0.605689,0.010737,0.285644
00932,142519,0.016168,0.105776,9.875171,0.003417,0.002591,0.000851,0.060612,-0.249972,-1.054800,0.606565,0.011680,0.285743
00933,142619,0.007853,0.111380,9.898077,0.001979,-0.002356,0.000022,0.060171,-0.248823,-1.057748,0.606237,0.009651,0.285656
00934,142719,0.015255,0.113698,9.879790,0.002211,-0.000749,0.001440,0.062111,-0.252462,-1.055426,0.606899,0.008976,0.286213
00935,142819,0.016192,0.120468,9.874450,0.001721,0.001514,0.001507,0.060655,-0.251844,-1.057400,0.607054,0.009263,0.287274
00936,142919,0.026004,0.091936,9.896331,0.002336,0.002819,0.001921,0.058147,-0.250856,-1.056350,0.607410,0.009809,0.288754
00937,143019,0.030179,0.118722,9.883636,0.002799,0.006253,0.000696,0.060130,-0.251410,-1.055875,0.608165,0.012726,0.289217
00938,143119,0.020528,0.122517,9.874396,0.004340,0.008233,0.001408,0.061101,-0.250004,-1.054300,0.609591,0.016984,0.289526
00939,143219,-0.001827,0.106057,9.878449,0.002714,0.008178,0.002233,0.061178,-0.253274,-1.058975,0.610512,0.021114,0.291390
00940,143319,-0.006821,0.106229,9.863089,0.002212,0.003320,0.000537,0.061656,-0.249369,-1.057273,0.610440,0.022595,0.291424
00941,143419,-0.002564,0.096228,9.855091,0.001981,-0.000203,0.002136,0.060114,-0.249964,-1.054800,0.610477,0.021792,0.292359
00942,143519,0.011348,0.111766,9.891865,0.003769,-0.004435,0.001644,0.062154,-0.249377,-1.057272,0.611295,0.018937,0.292875
00943,143619,0.009745,0.118681,9.892975,0.001734,-0.002627,0.001333,0.058645,-0.250864,-1.056350,0.611293,0.016447,0.293920
00944,143719,0.015488,0.111449,9.876637,0.002659,-0.000285,0.001507,0.061125,-0.251924,-1.055901,0.612054,0.015804,0.294688
00945,143819,0.028710,0.111739,9.894002,0.000820,0.004761,0.001874,0.059114,-0.251941,-1.054902,0.611814,0.017662,0.295934
00946,143919,0.002759,0.123519,9.898388,0.000961,0.007130,0.001505,0.061091,-0.255484,-1.054579,0.612382,0.021267,0.297041
00947,144019,0.012580,0.116437,9.887402,0.002770,0.005608,0.001272,0.059129,-0.248429,-1.055223,0.612534,0.023590,0.297551
00948,144119,-0.000396,0.119087,9.886501,0.003318,0.005606,0.001220,0.057141,-0.251363,-1.055876,0.613554,0.025498,0.298862
00949,144219,0.003663,0.133100,9.845065,0.001021,0.003826,0.001380,0.059643,-0.250382,-1.056324,0.613043,0.026869,0.299742
00950,144319,0.014927,0.111903,9.857851,0.000262,-0.000623,0.001254,0.061607,-0.250486,-1.054825,0.612195,0.026113,0.299973
00951,144419,0.008464,0.111661,9.875100,0.000807,-0.006029,0.000788,0.060110,-0.251957,-1.054901,0.611951,0.021981,0.300367
00952,144519,0.014001,0.104322,9.894156,0.000041,-0.003494,0.000507,0.061637,-0.254375,-1.057027,0.611649,0.019574,0.300952
00953,144619,0.016752,0.119015,9.897791,0.001374,-0.001989,-0.000154,0.057134,-0.249892,-1.055300,0.611298,0.017182,0.301113
00954,144719,0.019467,0.109076,9.887564,0.000227,-0.002670,-0.000668,0.058639,-0.249394,-1.055774,0.610174,0.014700,0.300703
00955,144819,0.013314,0.109680,9.882527,0.002089,0.002556,-0.000830,0.059633,-0.250406,-1.055825,0.610316,0.015405,0.300208
00956,144919,0.007350,0.106567,9.902429,0.001195,0.001316,0.000215,0.060110,-0.251957,-1.054901,0.610300,0.015507,0.300307
00957,145019,0.003749,0.124332,9.878724,0.001740,0.000756,0.001789,0.060627,-0.251916,-1.055901,0.610539,0.015361,0.301344
00958,145119,0.014600,0.086497,9.854936,0.003366,0.005159,0.000844,0.058656,-0.250342,-1.056825,0.611347,0.017330,0.302129
00959,145219,0.005566,0.114522,9.862041,0.000910,0.003676,0.001565,0.060114,-0.254922,-1.055553,0.611718,0.018755,0.303535
00960,145319,0.013340,0.110183,9.873764,0.003588,0.001320,0.000917,0.059652,-0.250358,-1.056824,0.612652,0.018716,0.304157
00961,145419,0.003877,0.112060,9.891861,0.001385,0.004673,0.002198,0.061113,-0.253443,-1.055477,0.612999,0.020898,0.305550
00962,145519,0.024380,0.123201,9.848089,-0.000399,0.002277,0.000963,0.060675,-0.250800,-1.058349,0.611668,0.021570,0.306320
00963,145619,-0.001183,0.110214,9.847881,0.007237,0.003340,0.002014,0.060103,-0.250984,-1.054351,0.614928,0.022804,0.307257
00964,145719,0.006813,0.094510,9.908211,0.001575,0.001336,0.001503,0.060636,-0.251892,-1.056401,0.615024,0.022959,0.308217
00965,145819,0.006569,0.114469,9.852969,0.001174,0.001816,0.000697,0.059641,-0.251379,-1.056375,0.614790,0.023199,0.308806
00966,145919,-0.002618,0.103112,9.878880,0.000521,-0.000063,0.001938,0.060141,-0.250390,-1.056324,0.613994,0.022457,0.309862
00967,146019,0.017104,0.100575,9.904378,0.002738,0.004171,0.002062,0.060100,-0.252479,-1.054427,0.614964,0.024164,0.311059
00968,146119,0.015270,0.099479,9.880143,0.001900,0.006424,0.001510,0.058147,-0.251355,-1.056376,0.615139,0.026738,0.312390
00969,146219,0.018468,0.114829,9.866726,0.002185,0.004559,0.000968,0.063609,-0.250493,-1.055324,0.615359,0.029319,0.312242
00970,146319,0.015715,0.102886,9.893476,0.002345,0.002362,0.002288,0.060141,-0.250390,-1.056324,0.615600,0.029938,0.313533
00971,146419,0.014100,0.112098,9.872459,0.002778,0.001757,0.002282,0.059154,-0.250350,-1.056824,0.616056,0.030010,0.315043
00972,146519,0.008342,0.105307,9.886670,0.000685,0.004524,0.001485,0.058652,-0.252335,-1.056926,0.615696,0.031569,0.316501
00973,146619,0.014365,0.113601,9.883839,0.000987,0.004126,0.003103,0.058648,-0.249370,-1.056274,0.614964,0.032896,0.318358
00974,146719,0.023174,0.109242,9.893387,0.002497,0.004480,0.001627,0.060101,-0.251981,-1.054401,0.615693,0.034748,0.319265
00975,146819,0.016448,0.095949,9.898459,0.002113,0.006218,0.002678,0.061050,-0.252117,-1.051902,0.616345,0.037809,0.320303
00976,146919,-0.001149,0.110090,9.877912,0.003739,0.007225,0.001227,0.059662,-0.249835,-1.057299,0.617223,0.041072,0.321171
00977,147019,-0.003063,0.117093,9.889225,0.002887,0.006532,0.002374,0.058660,-0.247851,-1.056698,0.617256,0.043739,0.322484
00978,147119,0.004666,0.112558,9.860674,0.004607,0.006564,0.001645,0.061127,-0.250928,-1.055850,0.618906,0.046913,0.323312
00979,147219,0.005810,0.115714,9.890334,0.002960,0.001735,0.000995,0.059113,-0.252439,-1.054927,0.619946,0.046956,0.324190
00980,147319,0.015181,0.127617,9.870599,0.002736,-0.000821,0.002145,0.058644,-0.251861,-1.056401,0.620673,0.045416,0.325900
00981,147419,0.013058,0.117414,9.885727,0.002519,0.002704,0.001468,0.060622,-0.254408,-1.056028,0.621783,0.046287,0.327260
00982,147519,-0.010319,0.087865,9.863203,0.001614,0.001870,0.002862,0.062149,-0.251868,-1.057400,0.621818,0.046934,0.328947
00983,147619,0.003619,0.107132,9.872545,-0.002570,-0.002667,0.001311,0.059625,-0.249932,-1.055300,0.619188,0.044554,0.329526
00984,147719,0.005268,0.130768,9.869424,0.003420,0.000525,0.000898,0.054635,-0.249877,-1.054801,0.619998,0.043064,0.330643
00985,147819,0.015080,0.108561,9.896416,-0.000423,-0.000476,0.001097,0.061146,-0.250381,-1.056824,0.618618,0.042211,0.331126
00986,147919,0.022242,0.134502,9.848785,0.000214,-0.001644,0.000336,0.062612,-0.250976,-1.055350,0.617790,0.041005,0.330810
00987,148019,0.010270,0.124260,9.865028,-0.000806,0.000358,0.000391,0.062101,-0.252985,-1.054951,0.616788,0.040860,0.330905
00988,148119,0.014496,0.115610,9.893918,0.000853,-0.000114,0.000910,0.059663,-0.249337,-1.057273,0.615929,0.039930,0.331434
00989,148219,0.015644,0.098805,9.891355,0.001055,0.000909,0.002833,0.060109,-0.252953,-1.054952,0.615988,0.039711,0.333262
00990,148319,0.006230,0.102181,9.869860,0.002193,-0.001105,0.000188,0.059682,-0.249289,-1.058273,0.615840,0.038210,0.333487
00991,148419,0.016855,0.110351,9.888261,0.000223,-0.001163,0.001918,0.060155,-0.247874,-1.056697,0.614373,0.036787,0.334164
00992,148519,0.010260,0.091952,9.885120,0.001090,0.001414,0.000684,0.060611,-0.250470,-1.054825,0.613988,0.036972,0.334243
00993,148619,0.009152,0.119603,9.863461,-0.001797,-0.000891,0.000662,0.061125,-0.251924,-1.055901,0.612184,0.035922,0.334594
00994,148719,0.017296,0.110637,9.872471,0.001554,-0.000949,-0.000281,0.059180,-0.251274,-1.058375,0.612060,0.034434,0.334987
00995,148819,0.023268,0.110917,9.890169,0.000584,0.000765,0.001551,0.060168,-0.250816,-1.057849,0.611322,0.034113,0.336114
00996,148919,0.009486,0.096052,9.876097,-0.000741,0.001034,0.001581,0.060169,-0.250318,-1.057824,0.609736,0.033948,0.337174
00997,149019,0.025728,0.103879,9.893584,0.001819,0.001785,0.002137,0.059639,-0.252873,-1.056452,0.610164,0.034139,0.338889
00998,149119,0.027890,0.097616,9.897578,0.001112,0.002047,0.002451,0.059143,-0.251370,-1.056376,0.609906,0.034383,0.340604
00999,149219,0.003096,0.120940,9.877764,0.001261,0.000807,0.001739,0.059142,-0.251868,-1.056401,0.609826,0.033925,0.341992
01000,149319,0.005969,0.100680,9.877782,0.001735,0.004306,0.002004,0.060138,-0.251884,-1.056401,0.610020,0.035650,0.343389
01001,149419,0.026089,0.102992,9.865898,0.000990,0.002928,0.002601,0.062142,-0.250896,-1.056849,0.609582,0.036944,0.344670
01002,149519,0.023482,0.105635,9.871322,0.000314,0.000898,0.000652,0.058163,-0.252801,-1.057451,0.609088,0.036337,0.345913
01003,149619,0.003273,0.121342,9.881769,0.001917,0.000724,0.001617,0.060658,-0.249851,-1.057298,0.608965,0.036089,0.346737
01004,149719,0.002624,0.114769,9.896653,0.000845,-0.000615,0.001386,0.060081,-0.252527,-1.053427,0.608909,0.035047,0.347460
01005,149819,0.019278,0.118698,9.883766,0.002313,0.000464,0.001062,0.060146,-0.252857,-1.056951,0.609593,0.034577,0.348540
01006,149919,0.020422,0.100892,9.884828,0.001797,0.002036,0.001522,0.061609,-0.249489,-1.054774,0.609448,0.035306,0.348735
01007,150019,0.005269,0.123040,9.868657,0.001652,-0.000471,0.001283,0.061637,-0.249417,-1.056273,0.609139,0.034581,0.348973
01008,150119,0.017048,0.124828,9.879707,0.003101,0.002300,0.002215,0.059611,-0.252945,-1.054952,0.610380,0.035090,0.350536
01009,150219,0.007673,0.115912,9.867864,0.000945,0.003741,0.002765,0.062144,-0.249401,-1.056773,0.609640,0.036847,0.351640
01010,150319,0.014849,0.131331,9.866075,0.003110,0.004592,0.001772,0.059115,-0.251443,-1.054876,0.610605,0.038568,0.352780
01011,150419,0.014992,0.097699,9.892546,0.002187,0.002041,0.001268,0.059649,-0.252351,-1.056926,0.611117,0.038894,0.353972
01012,150519,0.003938,0.121669,9.887843,0.001767,-0.000772,0.002203,0.058120,-0.250430,-1.054826,0.611123,0.037359,0.355295
01013,150619,0.008677,0.102569,9.875088,0.002565,-0.001163,0.001931,0.060623,-0.253909,-1.056002,0.612181,0.036057,0.356830
01014,150719,0.007039,0.102536,9.907077,0.002488,-0.001424,0.000718,0.061651,-0.251860,-1.057400,0.612745,0.034778,0.357325
01015,150819,0.026341,0.123560,9.884714,0.001679,-0.000982,0.000872,0.061615,-0.251458,-1.055375,0.612863,0.033783,0.357553
01016,150919,0.013016,0.105032,9.865290,0.000053,-0.001657,0.001062,0.059116,-0.250944,-1.054851,0.611979,0.031952,0.358115
01017,151019,0.010736,0.105650,9.867745,0.001473,0.002055,0.001659,0.061580,-0.250060,-1.053300,0.611816,0.032721,0.358270
01018,151119,0.021822,0.106772,9.894955,-0.000430,0.000112,0.000393,0.060647,-0.250872,-1.056849,0.610557,0.032154,0.358489
01019,151219,0.013367,0.105993,9.876972,0.000319,0.001269,0.002086,0.063578,-0.252558,-1.053926,0.610176,0.032833,0.359082
01020,151319,0.006939,0.109074,9.856665,0.000790,-0.000846,0.001522,0.061592,-0.253997,-1.054502,0.610303,0.031935,0.359970
01021,151419,0.028339,0.119266,9.891337,0.001154,0.000453,0.002032,0.061115,-0.252447,-1.055426,0.610310,0.031670,0.361110
01022,151519,0.013836,0.119872,9.849208,0.001721,0.001320,0.001689,0.060617,-0.252439,-1.055426,0.610638,0.031812,0.362132
01023,151619,0.021317,0.116491,9.862541,0.001680,-0.000770,0.000844,0.056628,-0.254369,-1.055529,0.611293,0.030037,0.363577
01024,151719,0.013565,0.095285,9.871262,-0.000467,-0.000580,0.001174,0.059116,-0.250944,-1.054851,0.610117,0.028835,0.364181
01025,151819,0.024989,0.102099,9.891015,0.001740,0.003331,0.000321,0.059639,-0.252375,-1.056426,0.610399,0.029946,0.364715
01026,151919,0.022187,0.100335,9.859078,0.002943,0.002985,0.000092,0.059149,-0.247883,-1.056198,0.610548,0.030760,0.364379
01027,152019,0.009903,0.109425,9.874020,0.003313,0.004080,0.002706,0.061116,-0.251948,-1.055401,0.611694,0.032564,0.365852
01028,152119,0.009444,0.118486,9.880279,0.002858,0.004314,0.002639,0.060554,-0.251113,-1.051852,0.612580,0.034454,0.366722
01029,152219,0.008957,0.097077,9.857117,0.001797,0.004539,0.002482,0.061618,-0.249963,-1.055299,0.612492,0.036599,0.367650
01030,152319,0.007697,0.097980,9.870719,0.001611,0.000815,0.000115,0.061110,-0.249979,-1.054800,0.612321,0.036540,0.367208
01031,152419,0.024811,0.092427,9.871119,0.001296,0.000538,0.001473,0.060153,-0.248871,-1.056748,0.611682,0.036104,0.367793
01032,152519,-0.006988,0.093496,9.879142,-0.000109,0.000052,0.001214,0.059127,-0.249924,-1.055300,0.610500,0.035237,0.368354
01033,152619,0.014984,0.118226,9.890800,0.001448,-0.002021,0.001119,0.058664,-0.250816,-1.057350,0.610284,0.033073,0.369356
01034,152719,0.015370,0.116476,9.891510,0.000297,0.000283,0.000811,0.058636,-0.250888,-1.055851,0.609491,0.032254,0.369994
01035,152819,0.012533,0.110669,9.872299,0.000269,-0.000906,0.001130,0.059122,-0.252415,-1.055427,0.608982,0.030858,0.370923
01036,152919,0.015164,0.107733,9.894131,0.002613,0.000494,0.001553,0.060151,-0.249867,-1.056799,0.609288,0.030419,0.371696
01037,153019,0.008066,0.096343,9.888203,-0.001488,0.000332,0.000067,0.060650,-0.249377,-1.056773,0.607164,0.029986,0.371452
01038,153119,0.015020,0.124680,9.865022,-0.000255,0.001838,0.001209,0.058136,-0.251877,-1.055901,0.606244,0.029978,0.372588
01039,153219,0.017836,0.108024,9.868514,0.001030,-0.000743,0.001993,0.061109,-0.250478,-1.054825,0.605856,0.029041,0.373271
01040,153319,-0.001287,0.119114,9.880822,0.001561,-0.002280,0.001246,0.060640,-0.249899,-1.056299,0.605602,0.027123,0.373702
01041,153419,0.008292,0.103929,9.888708,0.001369,-0.002523,0.002467,0.061099,-0.251000,-1.054350,0.605525,0.025184,0.374654
01042,153519,0.000889,0.107148,9.866647,0.003318,-0.000143,0.000088,0.061615,-0.251458,-1.055375,0.606599,0.024703,0.374391
01043,153619,0.012962,0.104446,9.873711,0.001109,0.000058,0.000728,0.061117,-0.250952,-1.055350,0.606317,0.024242,0.374490
01044,153719,0.016335,0.122906,9.875368,0.001716,0.002252,0.002736,0.061605,-0.251980,-1.054901,0.606589,0.025123,0.375771
01045,153819,0.008063,0.116371,9.881341,0.001298,0.003309,0.001580,0.061629,-0.248943,-1.055748,0.606034,0.026593,0.376043
01046,153919,0.026592,0.120225,9.904271,0.001972,0.005889,0.002551,0.059125,-0.250920,-1.055351,0.606241,0.029089,0.377565
01047,154019,0.021608,0.115093,9.880429,0.001983,0.004702,0.002180,0.062095,-0.251016,-1.054350,0.606515,0.031449,0.378234
01048,154119,0.001047,0.099166,9.870350,0.000877,0.000782,0.001881,0.060616,-0.252937,-1.055452,0.606455,0.031289,0.379406
01049,154219,0.018752,0.123680,9.875690,0.002304,0.000629,0.001869,0.060091,-0.252503,-1.053927,0.607198,0.030972,0.380366
01050,154319,0.010951,0.094238,9.880816,0.001744,0.001297,0.001309,0.059640,-0.251877,-1.056401,0.607397,0.030919,0.381354
01051,154419,0.016918,0.116758,9.883497,0.003117,0.001305,0.001512,0.062148,-0.252366,-1.057425,0.608423,0.031300,0.382273
01052,154519,0.000315,0.096115,9.874688,0.003189,0.003896,0.002231,0.060149,-0.250864,-1.056850,0.609241,0.032806,0.383637
01053,154619,0.011824,0.111939,9.891993,0.000388,0.003070,0.001932,0.058627,-0.250912,-1.055351,0.608530,0.033591,0.384859
01054,154719,0.021473,0.118635,9.900558,0.001174,0.006091,0.002055,0.061109,-0.250478,-1.054825,0.608215,0.036547,0.385634
01055,154819,0.023104,0.124743,9.887117,0.001498,0.005184,0.001918,0.061609,-0.249489,-1.054774,0.607912,0.039062,0.386096
01056,154919,0.002803,0.112568,9.862344,0.002262,0.003369,0.002123,0.058136,-0.252375,-1.055927,0.608514,0.039905,0.387831
01057,155019,0.015107,0.109664,9.857653,0.002243,0.002011,0.002470,0.060635,-0.252889,-1.056451,0.609171,0.040405,0.389501
01058,155119,0.007869,0.116171,9.869664,0.001727,0.000230,0.000597,0.060575,-0.250068,-1.052800,0.609184,0.039938,0.389134
01059,155219,0.001424,0.118432,9.904146,-0.000291,-0.003486,-0.000009,0.059143,-0.251370,-1.056376,0.608124,0.037047,0.389349
01060,155319,0.013262,0.095122,9.867596,0.002149,-0.001458,-0.000287,0.058132,-0.248912,-1.055249,0.608069,0.035156,0.389043
01061,155419,0.031509,0.091223,9.845125,0.001183,-0.002567,0.002333,0.059144,-0.250374,-1.056325,0.607678,0.032789,0.390438
01062,155519,0.010029,0.114584,9.884696,0.002903,0.003923,0.000659,0.057637,-0.252866,-1.055952,0.608730,0.033895,0.391494
01063,155619,0.020683,0.118330,9.880726,0.002364,0.002329,0.002852,0.056623,-0.252400,-1.054928,0.609433,0.033911,0.393738
01064,155719,0.024202,0.110494,9.896183,0.001296,0.002862,0.001235,0.062656,-0.252350,-1.057925,0.609385,0.035254,0.394522
01065,155819,0.006190,0.109164,9.865856,0.000936,0.001896,0.002014,0.059612,-0.251949,-1.054901,0.609189,0.035550,0.395720
01066,155919,0.000745,0.110564,9.884238,0.000313,-0.000230,0.001418,0.063129,-0.250936,-1.056349,0.608397,0.035225,0.396056
01067,156019,0.006397,0.110353,9.883868,0.001584,0.000338,0.001262,0.060120,-0.251933,-1.055401,0.608550,0.034717,0.396795
01068,156119,0.022188,0.109740,9.878092,0.001256,-0.001015,0.001309,0.058665,-0.250318,-1.057324,0.608147,0.033147,0.397802
01069,156219,0.021678,0.105546,9.878438,0.001777,0.000749,0.002260,0.061634,-0.251410,-1.056375,0.608277,0.033122,0.398932
01070,156319,0.025449,0.108527,9.889423,0.002260,0.001490,0.000579,0.060127,-0.252905,-1.055952,0.608965,0.033278,0.399515
01071,156419,0.021440,0.126092,9.900056,0.002975,0.002919,0.001839,0.060158,-0.250840,-1.057349,0.609634,0.034219,0.400698
01072,156519,0.011914,0.103466,9.895424,0.003454,0.002331,0.001424,0.061120,-0.249457,-1.055274,0.610419,0.035019,0.400960
01073,156619,0.005199,0.115964,9.877007,0.001870,0.003707,-0.000009,0.059111,-0.253435,-1.054978,0.611010,0.036280,0.401317
01074,156719,0.010668,0.100595,9.859781,0.002070,-0.000931,0.001005,0.060647,-0.250872,-1.056849,0.611182,0.035110,0.401854
01075,156819,0.016786,0.092052,9.875226,0.000575,-0.000602,0.002189,0.061646,-0.249393,-1.056773,0.610243,0.034296,0.402668
01076,156919,0.012014,0.099799,9.877735,0.000051,-0.002950,0.001161,0.061101,-0.250004,-1.054300,0.609220,0.032095,0.402686
01077,157019,0.014143,0.105977,9.882098,0.000844,-0.000446,0.001272,0.059621,-0.252423,-1.055426,0.609030,0.031064,0.403557
01078,157119,0.019574,0.097101,9.896963,0.001679,0.004584,0.000953,0.059098,-0.250494,-1.053826,0.609046,0.032839,0.403826
01079,157219,0.007892,0.111898,9.879773,0.001141,0.005437,0.001123,0.059584,-0.252021,-1.053402,0.609040,0.035191,0.404304
01080,157319,0.005462,0.113263,9.877179,0.004140,0.003108,0.001679,0.060596,-0.253483,-1.054477,0.610959,0.036366,0.405312
01081,157419,0.003286,0.104728,9.904288,0.002340,0.002980,0.000252,0.061602,-0.253475,-1.054977,0.611818,0.037639,0.405423
01082,157519,0.002784,0.111994,9.862208,0.001260,0.001700,0.001914,0.060083,-0.251531,-1.053376,0.611786,0.037923,0.406168
01083,157619,0.012989,0.119816,9.868853,0.002263,-0.000012,0.000702,0.060583,-0.250542,-1.053325,0.612155,0.037318,0.405972
01084,157719,0.017863,0.109417,9.878260,0.000140,0.000749,0.001968,0.059116,-0.250944,-1.054851,0.611318,0.036867,0.407019
01085,157819,0.027443,0.121014,9.878165,0.000334,0.001813,0.001352,0.059069,-0.251065,-1.052352,0.610721,0.037059,0.407373
01086,157919,0.014213,0.101603,9.861988,0.000268,0.001402,0.000903,0.059144,-0.250872,-1.056350,0.609885,0.036970,0.408027
01087,158019,0.014821,0.107244,9.880893,0.002845,0.003448,0.002234,0.061134,-0.251900,-1.056401,0.610702,0.038388,0.409316
01088,158119,0.013035,0.103986,9.879420,0.003858,0.004132,0.001982,0.060589,-0.252511,-1.053927,0.612303,0.040140,0.410270
01089,158219,0.021913,0.119970,9.896598,0.003576,0.002985,0.001538,0.060088,-0.249040,-1.053250,0.613163,0.041145,0.410413
01090,158319,0.004941,0.111560,9.864829,0.003831,0.004482,0.001349,0.061116,-0.251948,-1.055401,0.614580,0.043158,0.411060
01091,158419,0.005158,0.106159,9.878593,0.000538,0.000683,0.001165,0.058645,-0.251363,-1.056376,0.613970,0.042554,0.412019
01092,158519,0.017547,0.118607,9.868746,0.002284,0.003793,0.002618,0.059625,-0.249932,-1.055300,0.614156,0.043900,0.413303
01093,158619,0.008440,0.093782,9.885037,0.000236,0.002279,-0.001201,0.062102,-0.252486,-1.054926,0.613629,0.044839,0.412339
01094,158719,0.002236,0.111752,9.883592,0.004215,-0.000243,0.000944,0.061596,-0.251506,-1.054375,0.615229,0.044240,0.412430
01095,158819,0.013287,0.122014,9.868775,0.003202,0.002679,0.003112,0.058608,-0.251459,-1.054376,0.616238,0.044787,0.414235
01096,158919,0.001214,0.104133,9.875935,0.001412,0.003559,0.002234,0.060631,-0.249923,-1.055799,0.615896,0.046160,0.415224
01097,159019,0.012723,0.104750,9.895484,0.003023,0.003803,0.001381,0.059635,-0.249410,-1.055774,0.616387,0.047501,0.415807
01098,159119,0.007064,0.116047,9.889953,0.001736,0.002299,0.001564,0.062113,-0.251466,-1.055375,0.616513,0.048415,0.416331
01099,159219,0.005431,0.100203,9.893816,0.002447,0.002401,0.000840,0.060635,-0.252391,-1.056426,0.617160,0.049124,0.416968
01100,159319,0.016670,0.120029,9.871192,-0.001622,-0.001889,0.001620,0.059165,-0.249329,-1.057273,0.614919,0.047102,0.417949
01101,159419,0.010464,0.111325,9.871470,0.000995,-0.000536,0.000856,0.059161,-0.251322,-1.057375,0.614519,0.045869,0.418800
01102,159519,0.003314,0.107522,9.870094,-0.000456,-0.000116,0.000892,0.061117,-0.251450,-1.055375,0.613397,0.045243,0.419075
01103,159619,0.009363,0.105990,9.871412,-0.001060,-0.001663,0.001192,0.060087,-0.249538,-1.053275,0.611691,0.043584,0.419076
01104,159719,0.016268,0.124292,9.882807,0.001910,-0.000147,0.001203,0.059616,-0.249956,-1.054800,0.611697,0.042694,0.419463
01105,159819,0.014040,0.119824,9.885156,0.000975,0.000685,0.002053,0.058621,-0.248944,-1.054749,0.610998,0.042106,0.420356
01106,159919,0.024471,0.121855,9.867960,0.000463,-0.000288,0.001364,0.061594,-0.252503,-1.054426,0.610632,0.041490,0.420810
01107,160019,0.026152,0.123327,9.883020,0.003125,0.000413,0.000443,0.059593,-0.252495,-1.053927,0.611808,0.040950,0.420998
01108,160119,0.009508,0.102880,9.885847,0.001493,0.001933,0.002219,0.058641,-0.248397,-1.055723,0.611271,0.041065,0.422054
01109,160219,0.015256,0.123876,9.892302,0.001203,0.000933,0.001972,0.060617,-0.252439,-1.055426,0.611276,0.040966,0.423169
01110,160319,-0.002010,0.109153,9.879880,0.002039,-0.001419,0.000455,0.061156,-0.250357,-1.057324,0.611323,0.039587,0.423289
01111,160419,0.007306,0.113008,9.890252,-0.000055,-0.001881,0.002161,0.059089,-0.250518,-1.053326,0.610366,0.037650,0.424148
01112,160519,0.029310,0.111666,9.876798,0.002101,-0.000154,0.000931,0.062144,-0.249899,-1.056798,0.610395,0.037173,0.424221
01113,160619,0.021305,0.106367,9.895538,0.003427,0.000700,0.001273,0.058675,-0.249795,-1.057799,0.611123,0.036585,0.425239
01114,160719,0.016297,0.110053,9.869259,0.001551,-0.000492,0.000888,0.061096,-0.252495,-1.054426,0.611376,0.035787,0.425466
01115,160819,0.017415,0.122856,9.856207,-0.000988,-0.001997,0.002155,0.060165,-0.252311,-1.057925,0.610003,0.033917,0.427076
01116,160919,0.005927,0.098301,9.876608,0.001350,0.001161,0.000586,0.062632,-0.249931,-1.056298,0.609631,0.034292,0.426794
01117,161019,0.011313,0.089867,9.874051,0.002913,0.005092,0.001488,0.059102,-0.253459,-1.054478,0.610827,0.036357,0.427881
01118,161119,0.006323,0.115519,9.882491,0.002270,0.004150,0.002276,0.060190,-0.248775,-1.058747,0.610682,0.037974,0.429235
01119,161219,0.008028,0.129469,9.864419,0.001980,0.004991,0.002352,0.062098,-0.249521,-1.054274,0.610681,0.040452,0.429723
01120,161319,0.015127,0.104391,9.895866,0.001912,0.002216,0.002324,0.059095,-0.251989,-1.053902,0.611076,0.040853,0.430994
01121,161419,0.017329,0.115297,9.878331,0.001166,0.000689,-0.000419,0.060639,-0.250398,-1.056324,0.610674,0.040613,0.430567
01122,161519,0.027748,0.110124,9.881275,0.000949,-0.003644,0.001665,0.058626,-0.251411,-1.055376,0.610360,0.037569,0.431647
01123,161619,0.010208,0.112396,9.904383,0.002394,-0.002227,0.001074,0.059643,-0.250382,-1.056324,0.610660,0.035498,0.432211
01124,161719,0.011690,0.105866,9.866804,0.000035,-0.002922,0.000421,0.061592,-0.248541,-1.053723,0.609406,0.033393,0.431380
01125,161819,0.011072,0.103361,9.876775,0.000747,-0.000064,0.001379,0.060591,-0.251515,-1.053876,0.609059,0.032766,0.431727
01126,161919,0.015110,0.116044,9.874360,0.002898,0.001557,-0.000172,0.060133,-0.249418,-1.055774,0.609511,0.032964,0.431300
01127,162019,0.013841,0.106126,9.890621,0.002406,0.003743,0.001977,0.063128,-0.251434,-1.056374,0.609995,0.034892,0.431916
01128,162119,0.020749,0.100127,9.866833,0.001875,0.003760,0.001826,0.059173,-0.249803,-1.057799,0.609843,0.036144,0.433213
01129,162219,0.016975,0.111757,9.896051,0.001770,0.003775,0.002427,0.063148,-0.250389,-1.057323,0.609749,0.038062,0.434103
01130,162319,0.014798,0.105436,9.869933,0.001477,0.003086,0.002073,0.062585,-0.250550,-1.053825,0.609656,0.039540,0.434365
01131,162419,0.015169,0.115960,9.881628,-0.000743,-0.001431,0.001466,0.060169,-0.250318,-1.057824,0.608096,0.037982,0.435320
01132,162519,0.013169,0.091295,9.875070,0.000944,-0.002793,0.002377,0.058163,-0.252303,-1.057426,0.607853,0.035331,0.437330
01133,162619,0.019332,0.112502,9.867793,0.000568,-0.003053,0.001829,0.060658,-0.250350,-1.057324,0.607072,0.032945,0.438289
01134,162719,0.018148,0.108806,9.878479,0.001525,-0.001531,0.000715,0.059160,-0.251820,-1.057400,0.607084,0.031203,0.439087
01135,162819,0.012447,0.123356,9.890365,0.000323,-0.000872,0.000718,0.060124,-0.249442,-1.055274,0.606097,0.030020,0.439076
01136,162919,0.027699,0.115341,9.889482,0.001929,0.000600,0.000661,0.059124,-0.251419,-1.055376,0.606358,0.029524,0.439490
01137,163019,0.021524,0.118513,9.881788,0.000997,0.000228,0.000507,0.058128,-0.251403,-1.055376,0.606083,0.028656,0.440002
01138,163119,0.021424,0.097194,9.895223,0.001383,0.002731,0.001142,0.061156,-0.250357,-1.057324,0.605776,0.029678,0.440488
01139,163219,0.007811,0.101091,9.865183,0.000023,0.000444,0.001032,0.060613,-0.249474,-1.054774,0.604648,0.029336,0.440487
01140,163319,0.019348,0.126552,9.866541,0.000707,-0.003145,0.001066,0.059163,-0.250326,-1.057324,0.603955,0.026676,0.441270
01141,163419,0.017925,0.082662,9.895855,0.000052,0.000829,0.002738,0.061144,-0.251876,-1.056900,0.603165,0.026619,0.442770
01142,163519,0.034584,0.137817,9.861210,0.006161,0.005090,0.002207,0.058644,-0.251861,-1.056401,0.605884,0.028600,0.444400
01143,163619,0.013375,0.097141,9.894381,0.004888,0.006642,0.000742,0.059624,-0.250430,-1.055325,0.607672,0.031638,0.444666
01144,163719,-0.012433,0.118024,9.877431,-0.000344,0.002302,0.001983,0.061153,-0.251852,-1.057400,0.606620,0.032407,0.445833
01145,163819,0.027480,0.117841,9.861445,0.002117,0.006028,0.001713,0.060616,-0.252937,-1.055452,0.607234,0.035248,0.446808
01146,163919,0.006036,0.097424,9.901349,0.003984,0.003076,0.002888,0.059607,-0.249980,-1.054300,0.608468,0.036228,0.448077
01147,164019,0.014236,0.102799,9.882431,0.002397,0.002368,0.000519,0.062122,-0.251442,-1.055875,0.608970,0.037206,0.447937
01148,164119,0.019445,0.099435,9.841608,0.001498,0.002267,0.000832,0.059651,-0.250856,-1.056850,0.608821,0.037705,0.448536
01149,164219,0.016481,0.104880,9.884756,0.002283,0.001938,0.001703,0.060627,-0.251916,-1.055901,0.609334,0.038185,0.449422
01150,164319,0.004352,0.098867,9.907657,0.000260,-0.000473,0.001743,0.061570,-0.250582,-1.052825,0.608592,0.037475,0.449476
01151,164419,0.022739,0.106861,9.874070,-0.000933,0.002179,0.000319,0.063127,-0.251932,-1.056400,0.607250,0.038497,0.449167
01152,164519,0.041544,0.109431,9.860247,0.002233,0.002564,0.002003,0.059144,-0.250374,-1.056325,0.607469,0.039079,0.450405
01153,164619,0.018188,0.112473,9.883117,0.002521,0.003926,0.000428,0.060132,-0.250414,-1.055825,0.607876,0.040612,0.450485
01154,164719,0.023387,0.120970,9.864306,0.002233,0.006221,0.000822,0.061145,-0.251378,-1.056875,0.608235,0.043600,0.450896
01155,164819,0.012685,0.104159,9.883677,0.002768,0.004109,0.002547,0.061106,-0.251972,-1.054901,0.609076,0.045387,0.452039
01156,164919,0.002421,0.108272,9.880030,0.000003,0.000124,0.002076,0.060121,-0.250936,-1.055350,0.608145,0.044727,0.453036
01157,165019,-0.006229,0.108178,9.873908,0.001962,-0.003381,0.000175,0.059672,-0.249811,-1.057799,0.608055,0.041969,0.453274
01158,165119,0.008113,0.104699,9.898370,0.000907,-0.003134,0.000792,0.062611,-0.251474,-1.055375,0.607731,0.039866,0.453074
01159,165219,0.021709,0.110742,9.909701,0.000533,-0.003134,0.001082,0.061145,-0.250880,-1.056849,0.607039,0.037511,0.453494
01160,165319,0.014965,0.122973,9.898341,0.000417,0.000886,0.000920,0.058136,-0.251877,-1.055901,0.606484,0.036996,0.454379
01161,165419,0.009197,0.114862,9.877169,0.000804,0.003770,0.002443,0.061128,-0.250430,-1.055824,0.605918,0.038595,0.455411
01162,165519,0.017479,0.106058,9.891212,-0.000050,0.004533,0.001480,0.058635,-0.251387,-1.055876,0.605021,0.040236,0.456498
01163,165619,0.011750,0.128087,9.870202,-0.000192,0.003478,0.000744,0.061622,-0.252430,-1.055926,0.604214,0.041755,0.456705
01164,165719,0.016351,0.103953,9.884374,0.002587,0.001056,-0.000490,0.061661,-0.251338,-1.057874,0.604741,0.041867,0.456385
01165,165819,-0.002679,0.118694,9.888309,0.001273,-0.002938,0.001775,0.058640,-0.253854,-1.056503,0.604980,0.039233,0.457941
01166,165919,0.007012,0.105341,9.866893,0.000282,-0.001721,0.001145,0.058632,-0.253379,-1.055977,0.604596,0.037309,0.459005
01167,166019,0.011138,0.097018,9.864819,-0.000005,-0.003808,0.000590,0.059631,-0.251901,-1.055901,0.603811,0.034356,0.459371
01168,166119,-0.002205,0.113027,9.896505,-0.000143,-0.003626,-0.000722,0.061636,-0.249915,-1.056299,0.602610,0.031829,0.458458
01169,166219,0.028886,0.119457,9.876828,0.002131,-0.001344,0.001561,0.061626,-0.250437,-1.055824,0.602818,0.030605,0.458844
01170,166319,0.013248,0.101801,9.882980,0.002209,0.001266,0.001022,0.058640,-0.253854,-1.056503,0.603596,0.030411,0.459955
01171,166419,0.016901,0.121994,9.848386,0.000747,0.002625,0.001241,0.060119,-0.252431,-1.055426,0.603348,0.031235,0.460611
01172,166519,0.006577,0.110523,9.868288,-0.000643,0.001529,0.001856,0.061625,-0.250936,-1.055850,0.602048,0.031654,0.461254
01173,166619,0.010390,0.110637,9.880786,0.001669,0.003872,0.002753,0.059660,-0.251330,-1.057375,0.602078,0.033076,0.463064
01174,166719,0.020622,0.109793,9.871000,0.000625,0.000750,0.000510,0.061097,-0.251997,-1.054401,0.601734,0.032993,0.462904
01175,166819,0.032057,0.089988,9.877122,-0.000422,-0.000260,0.002147,0.060610,-0.250968,-1.054850,0.600609,0.032236,0.463720
01176,166919,0.036237,0.106834,9.881389,0.001054,0.002129,0.001550,0.061652,-0.251362,-1.057374,0.600296,0.032982,0.464485
01177,167019,0.022019,0.114368,9.876162,0.000706,0.002761,0.001309,0.060119,-0.252431,-1.055426,0.600033,0.033876,0.465170
01178,167119,0.021620,0.112897,9.865343,0.001573,0.004220,0.001908,0.060126,-0.253403,-1.055977,0.600402,0.035595,0.466398
01179,167219,0.029637,0.112025,9.883904,0.002982,0.005042,0.001221,0.059611,-0.252447,-1.054927,0.601460,0.037711,0.467058
01180,167319,0.014293,0.097006,9.876298,0.003261,0.004742,0.002664,0.062585,-0.250550,-1.053825,0.602411,0.040116,0.467681
01181,167419,0.006821,0.120016,9.864072,0.003067,0.003736,0.002621,0.060159,-0.250342,-1.057324,0.603080,0.041512,0.469237
01182,167519,0.013970,0.099528,9.871524,0.001324,0.000630,-0.000056,0.060141,-0.250390,-1.056324,0.602798,0.041155,0.469081
01183,167619,0.014064,0.112675,9.859275,0.001175,-0.002225,0.001017,0.061120,-0.249457,-1.055274,0.602322,0.039325,0.469085
01184,167719,0.005710,0.113230,9.865736,0.001560,-0.003619,0.000872,0.062594,-0.250525,-1.054324,0.602275,0.036953,0.468681
01185,167819,0.003449,0.106880,9.888906,-0.000906,-0.000540,0.001691,0.060090,-0.253001,-1.053952,0.601233,0.035963,0.469350
01186,167919,0.016604,0.106514,9.868538,0.000972,0.001748,0.002344,0.062139,-0.252390,-1.056925,0.601052,0.036562,0.470503
01187,168019,0.020603,0.117101,9.862154,0.001484,0.004658,0.001054,0.059656,-0.248365,-1.056723,0.600529,0.038426,0.470983
01188,168119,0.011152,0.117953,9.889579,0.000986,0.005336,0.002827,0.059670,-0.250808,-1.057849,0.600071,0.040660,0.472882
01189,168219,0.009451,0.107695,9.870052,0.001846,0.005254,0.000433,0.060122,-0.250438,-1.055325,0.600143,0.042956,0.472882
01190,168319,0.010493,0.105023,9.874484,0.005311,0.003454,0.000778,0.059190,-0.250752,-1.058849,0.602109,0.044027,0.473849
01191,168419,0.022638,0.095532,9.883934,0.000805,-0.001081,0.001172,0.062616,-0.253941,-1.056002,0.602111,0.043083,0.474231
01192,168519,0.017105,0.103795,9.873479,0.000596,-0.000561,0.001468,0.057168,-0.251789,-1.057401,0.601599,0.041563,0.475737
01193,168619,0.014234,0.104518,9.875684,0.001962,-0.000712,0.001547,0.058683,-0.250768,-1.058350,0.601669,0.040181,0.477093
01194,168719,0.006843,0.109440,9.872763,0.001802,-0.000094,0.002833,0.057632,-0.250398,-1.055326,0.601706,0.039024,0.478817
01195,168819,0.025309,0.109721,9.884482,0.000737,0.001552,0.000477,0.060129,-0.251909,-1.055901,0.601350,0.039210,0.479037
01196,168919,0.016951,0.094731,9.873277,0.001114,0.000991,0.001066,0.058654,-0.251338,-1.056875,0.601083,0.038828,0.479935
01197,169019,0.009030,0.100725,9.867614,0.001188,-0.000602,0.000875,0.059120,-0.248453,-1.054724,0.600484,0.037625,0.479967
01198,169119,0.006366,0.112150,9.875387,-0.000650,-0.000969,-0.000435,0.060601,-0.250992,-1.054350,0.599252,0.036470,0.479210
01199,169219,0.009960,0.116938,9.857834,-0.000968,-0.000958,0.000895,0.059658,-0.252327,-1.057425,0.597938,0.035137,0.480023
01200,169319,0.019500,0.075719,9.871406,-0.000663,-0.001035,-0.000576,0.058123,-0.248936,-1.054749,0.596368,0.033554,0.479438
01201,169419,0.010162,0.129309,9.896904,0.000779,-0.000098,0.001560,0.061588,-0.251032,-1.053850,0.595991,0.033054,0.479573
01202,169519,0.025996,0.105827,9.874666,-0.000139,-0.001609,0.000537,0.059596,-0.250502,-1.053825,0.595009,0.031389,0.479386
01203,169619,0.017914,0.104490,9.881205,-0.001140,-0.002573,0.001820,0.059613,-0.251451,-1.054876,0.593568,0.029164,0.480194
01204,169719,0.003339,0.113044,9.878348,0.002736,0.002632,0.000449,0.059608,-0.248984,-1.054249,0.593980,0.029923,0.479888
01205,169819,0.008658,0.091078,9.891896,0.003541,0.002114,0.001329,0.059153,-0.250848,-1.056850,0.595046,0.030285,0.480793
01206,169919,0.006946,0.103496,9.880775,0.000579,0.002763,0.002472,0.058634,-0.252383,-1.055927,0.594693,0.030950,0.482456
01207,170019,0.014036,0.111482,9.882825,0.001995,0.003661,0.002064,0.060598,-0.252487,-1.054426,0.595222,0.032450,0.483318
01208,170119,0.002560,0.092195,9.872739,0.003476,0.003817,0.001252,0.061633,-0.251908,-1.056400,0.596429,0.034170,0.483811
01209,170219,0.004095,0.110490,9.857040,0.001720,0.001588,0.002292,0.060150,-0.250366,-1.056824,0.596372,0.034368,0.485045
01210,170319,0.008508,0.123936,9.857803,0.001213,0.001196,0.002596,0.061118,-0.250454,-1.055325,0.596096,0.034507,0.486045
01211,170419,0.035748,0.118438,9.865092,0.001412,-0.000176,0.000655,0.058154,-0.247369,-1.056173,0.595419,0.033394,0.486256
01212,170519,0.004407,0.111226,9.890001,0.002249,0.000216,0.001639,0.060151,-0.249867,-1.056799,0.595591,0.032812,0.487044
01213,170619,0.015722,0.129830,9.906315,0.000955,-0.000061,0.001292,0.062150,-0.251370,-1.057374,0.595237,0.032381,0.487528
01214,170719,0.020802,0.100556,9.882206,0.000902,0.003642,0.002048,0.060110,-0.251957,-1.054901,0.595038,0.033783,0.488470
01215,170819,-0.003488,0.111629,9.876333,0.002325,0.004036,0.001871,0.057631,-0.250897,-1.055351,0.595471,0.035021,0.489722
01216,170919,0.012907,0.109819,9.882430,0.004535,0.005767,0.002242,0.060610,-0.250968,-1.054850,0.597194,0.037702,0.490604
01217,171019,0.019242,0.110082,9.894311,0.002251,0.005034,0.001337,0.058597,-0.247023,-1.053148,0.597056,0.039658,0.490636
01218,171119,0.001041,0.132943,9.866040,0.001457,0.002844,0.001587,0.059124,-0.251419,-1.055376,0.597067,0.040431,0.491536
01219,171219,0.018185,0.115646,9.868997,0.001602,0.002071,0.000765,0.061125,-0.251924,-1.055901,0.597220,0.041064,0.491738
01220,171319,0.015274,0.098775,9.881405,0.003946,0.001768,0.001992,0.061106,-0.251972,-1.054901,0.598756,0.041524,0.492479
01221,171419,0.004240,0.107094,9.895812,0.002095,0.001186,0.003045,0.061099,-0.251000,-1.054350,0.599099,0.041645,0.493629
01222,171519,0.014234,0.111590,9.893059,0.000817,-0.001080,0.001371,0.058173,-0.252279,-1.057926,0.598777,0.040002,0.495049
01223,171619,0.012579,0.113081,9.867684,0.002881,-0.001948,0.002178,0.057633,-0.249900,-1.055300,0.599363,0.037802,0.496333
01224,171719,0.014531,0.104058,9.878164,0.000495,0.000401,0.002892,0.059618,-0.248461,-1.054724,0.598383,0.037247,0.497433
01225,171819,0.019639,0.100924,9.885627,0.000885,0.004121,0.001452,0.061589,-0.250534,-1.053825,0.597982,0.039145,0.497445
01226,171919,0.022297,0.117408,9.881198,0.000939,0.003661,0.001329,0.060100,-0.252479,-1.054427,0.597893,0.040554,0.497957
01227,172019,0.009795,0.117108,9.875453,0.000050,0.000701,0.002039,0.059592,-0.252994,-1.053952,0.597394,0.040195,0.498920
01228,172119,0.021939,0.120401,9.868645,0.001802,0.001867,0.002575,0.058615,-0.252431,-1.054927,0.597774,0.040340,0.500478
01229,172219,0.022106,0.091837,9.886014,0.000453,0.001003,0.000594,0.060641,-0.249401,-1.056273,0.596862,0.040275,0.500456
01230,172319,0.016321,0.116597,9.872782,-0.000390,-0.001949,0.000758,0.059634,-0.249908,-1.055799,0.595568,0.038381,0.500656
01231,172419,0.016831,0.113778,9.887652,0.002017,-0.001539,-0.000304,0.060150,-0.250366,-1.056824,0.595685,0.036799,0.500372
01232,172519,0.009945,0.102627,9.872524,0.003375,0.000449,0.002076,0.059116,-0.250944,-1.054851,0.596741,0.036214,0.501371
01233,172619,0.018218,0.115212,9.871519,0.000046,0.002750,0.001887,0.059612,-0.251949,-1.054901,0.596045,0.037026,0.502298
01234,172719,0.013745,0.097310,9.891844,0.000343,0.003153,0.001616,0.057645,-0.248381,-1.055724,0.594941,0.037746,0.503207
01235,172819,0.022973,0.110446,9.890019,0.003000,0.003249,0.002332,0.060088,-0.253998,-1.054003,0.596286,0.038930,0.504381
01236,172919,0.015428,0.108369,9.887599,0.002096,0.003953,0.001203,0.060642,-0.248903,-1.056248,0.596243,0.040549,0.504655
01237,173019,0.007689,0.117344,9.874670,0.003021,0.003162,0.002598,0.060657,-0.250848,-1.057349,0.596988,0.041703,0.506114
01238,173119,0.009971,0.125011,9.865182,0.001864,0.001607,0.001443,0.060647,-0.251370,-1.056875,0.597166,0.041979,0.506877
01239,173219,0.018084,0.114678,9.886091,0.001307,0.002048,0.000050,0.060608,-0.251965,-1.054901,0.597190,0.042534,0.506579
01240,173319,0.009959,0.094549,9.888571,0.001772,0.001471,0.001320,0.060133,-0.249916,-1.055799,0.597133,0.042659,0.507034
01241,173419,0.016824,0.118679,9.884548,-0.000104,-0.000644,0.002558,0.060619,-0.251442,-1.055375,0.596254,0.041654,0.508176
01242,173519,0.016981,0.101838,9.878402,0.002114,0.004005,0.001205,0.059160,-0.251820,-1.057400,0.596628,0.043076,0.509220
01243,173619,0.014339,0.109653,9.878985,0.004181,0.001726,0.000408,0.058116,-0.252922,-1.054953,0.598439,0.043077,0.509680
01244,173719,0.018414,0.105668,9.889930,0.000863,0.001788,0.001343,0.060619,-0.250944,-1.055350,0.598032,0.043465,0.510089
01245,173819,0.016441,0.114557,9.873038,0.000776,0.000101,0.001161,0.060177,-0.250792,-1.058349,0.597443,0.042787,0.510952
01246,173919,0.022644,0.109971,9.875862,0.003271,0.002305,0.001392,0.059649,-0.252351,-1.056926,0.598572,0.043315,0.511977
01247,174019,0.005425,0.103575,9.893982,0.002884,0.003245,0.002011,0.058161,-0.248341,-1.056723,0.598873,0.044136,0.513154
01248,174119,0.011404,0.092352,9.884881,0.002314,0.001538,0.001135,0.061082,-0.250052,-1.053300,0.599233,0.044466,0.512907
01249,174219,0.023746,0.118447,9.867506,0.002326,0.002353,0.003617,0.062656,-0.252350,-1.057925,0.599779,0.045437,0.514840
01250,174319,0.017247,0.109048,9.881614,0.002812,0.002481,0.000892,0.058117,-0.252423,-1.054927,0.600722,0.045860,0.515522
01251,174419,0.019151,0.098749,9.867179,0.000899,0.000522,0.003324,0.060083,-0.251531,-1.053376,0.600491,0.045452,0.516875
01252,174519,0.010755,0.100268,9.850537,0.002086,0.003353,0.000772,0.056663,-0.250310,-1.056825,0.600626,0.046127,0.517842
01253,174619,0.001438,0.104588,9.862189,0.002414,0.001932,0.002065,0.062155,-0.248878,-1.057247,0.600715,0.046777,0.518474
01254,174719,0.020374,0.083649,9.898257,0.002036,0.001675,0.000819,0.064150,-0.252374,-1.057924,0.601092,0.047591,0.518539
01255,174819,0.022394,0.119874,9.881770,0.000549,0.001577,0.001909,0.060150,-0.250366,-1.056824,0.600356,0.047753,0.519541
01256,174919,-0.001241,0.111126,9.874236,0.000463,0.003414,0.001151,0.062610,-0.251972,-1.055400,0.599867,0.049356,0.519608
01257,175019,0.009457,0.103650,9.881097,0.000805,0.000679,0.002232,0.058616,-0.251933,-1.054902,0.599588,0.048804,0.520896
01258,175119,0.032320,0.114082,9.879767,0.002739,0.004647,-0.000477,0.058106,-0.253444,-1.054478,0.600657,0.050475,0.520833
01259,175219,0.005242,0.099031,9.881639,0.001758,0.004058,0.001463,0.060620,-0.250446,-1.055325,0.600678,0.052136,0.521275
01260,175319,0.019470,0.117574,9.857480,0.003108,0.002852,0.001443,0.059164,-0.249827,-1.057299,0.601307,0.052864,0.522225
01261,175419,0.016559,0.123176,9.875183,0.001762,0.001099,0.001748,0.059125,-0.250920,-1.055351,0.601401,0.052610,0.523128
01262,175519,0.009945,0.103576,9.887408,0.001476,-0.000278,0.002622,0.063128,-0.251434,-1.056374,0.601371,0.052141,0.524046
01263,175619,0.006323,0.106341,9.899973,0.001337,-0.003909,0.003271,0.060619,-0.250944,-1.055350,0.601225,0.049238,0.525514
01264,175719,0.013075,0.104928,9.861290,0.000846,-0.001983,0.001742,0.057650,-0.250350,-1.056325,0.600675,0.047006,0.526740
01265,175819,0.014578,0.124026,9.883874,0.001351,-0.001277,0.001117,0.059619,-0.253419,-1.055477,0.600906,0.045500,0.527441
01266,175919,0.013276,0.098136,9.882682,0.001978,-0.000299,-0.000805,0.059123,-0.251917,-1.055401,0.601270,0.044489,0.526952
01267,176019,0.012430,0.106207,9.897911,0.000316,0.001533,0.001307,0.058147,-0.251355,-1.056376,0.600566,0.044358,0.527957
01268,176119,0.006506,0.110789,9.890919,0.001599,0.002473,0.000911,0.059639,-0.252873,-1.056452,0.600820,0.044993,0.528673
01269,176219,0.010026,0.107514,9.889023,0.002279,0.002166,0.001507,0.062107,-0.249497,-1.054774,0.601018,0.045805,0.528637
01270,176319,0.017447,0.090442,9.880208,0.002006,0.000106,0.000495,0.060123,-0.249940,-1.055300,0.601105,0.045152,0.528487
01271,176419,0.011364,0.117123,9.875220,0.000598,-0.000418,0.000760,0.059143,-0.251370,-1.056376,0.600564,0.044053,0.528994
01272,176519,0.007628,0.117808,9.864187,0.000465,-0.003092,0.001958,0.059619,-0.247963,-1.054698,0.599501,0.041491,0.529412
01273,176619,0.007928,0.124267,9.890490,0.001387,-0.000960,0.001807,0.061137,-0.250406,-1.056324,0.599274,0.040371,0.530037
01274,176719,0.008836,0.106467,9.896028,-0.000701,-0.000878,0.001510,0.061619,-0.248967,-1.055248,0.597679,0.039377,0.530062
01275,176819,0.024928,0.123612,9.883593,0.002979,0.002631,-0.000307,0.060112,-0.250960,-1.054851,0.598502,0.040198,0.529487
01276,176919,0.020220,0.110317,9.895496,0.003148,0.001549,0.001890,0.062630,-0.251426,-1.056375,0.599435,0.040734,0.530012
01277,177019,0.009617,0.093150,9.889244,0.001816,0.004434,0.002824,0.060631,-0.249425,-1.055773,0.599327,0.042619,0.531159
01278,177119,-0.003181,0.106769,9.865319,0.000594,0.001182,0.001026,0.059163,-0.250326,-1.057324,0.598600,0.042429,0.531886
01279,177219,0.000754,0.103157,9.854542,0.002292,-0.001382,0.001167,0.061104,-0.253467,-1.054977,0.599395,0.041097,0.532211
01280,177319,0.031373,0.124038,9.882306,0.002084,0.000224,0.002847,0.060164,-0.252809,-1.057951,0.599866,0.040504,0.534123
01281,177419,-0.001583,0.122557,9.868024,0.002491,0.000343,0.002994,0.059137,-0.249402,-1.055774,0.600141,0.039838,0.535596
01282,177519,0.022129,0.129952,9.889584,0.001374,0.001997,0.002175,0.060639,-0.250398,-1.056324,0.599905,0.040339,0.536530
01283,177619,0.015693,0.101865,9.873908,0.002185,0.005119,0.002201,0.060149,-0.250864,-1.056850,0.600183,0.042549,0.537729
01284,177719,0.008861,0.102064,9.888397,0.004279,0.006078,0.001188,0.058159,-0.249338,-1.056774,0.601433,0.045015,0.538565
01285,177819,0.012277,0.105339,9.893292,0.000111,0.003783,0.002090,0.059603,-0.251973,-1.054401,0.600772,0.046406,0.539494
01286,177919,0.012606,0.120027,9.858273,0.001961,0.002202,0.002194,0.060119,-0.252431,-1.055426,0.601202,0.046955,0.540600
01287,178019,0.013084,0.108630,9.889423,0.001334,-0.000746,-0.000560,0.060629,-0.250920,-1.055850,0.601033,0.045893,0.539933
01288,178119,0.006998,0.106883,9.900808,0.001197,-0.003119,0.001282,0.058136,-0.252375,-1.055927,0.600998,0.043119,0.540913
01289,178219,0.015171,0.116886,9.888238,-0.000928,-0.001090,0.002075,0.058693,-0.250246,-1.058824,0.599334,0.041543,0.542532
01290,178319,0.018485,0.109273,9.870899,0.000728,0.002176,0.002245,0.058647,-0.249868,-1.056300,0.598654,0.041856,0.543797
01291,178419,0.023418,0.103878,9.900938,0.003833,0.004491,0.001386,0.060137,-0.252383,-1.056426,0.600115,0.043722,0.544616
01292,178519,0.022611,0.109978,9.893154,0.002086,0.004064,0.002106,0.060645,-0.252367,-1.056926,0.600554,0.045401,0.545841
01293,178619,0.001281,0.122003,9.873569,-0.000041,0.006569,0.002560,0.059669,-0.251306,-1.057875,0.599587,0.048350,0.547571
01294,178719,0.006990,0.099768,9.879403,0.003535,0.001980,0.001413,0.060629,-0.250920,-1.055850,0.600680,0.048832,0.548052
01295,178819,0.015347,0.117432,9.884779,0.002746,0.000391,0.000881,0.060164,-0.252809,-1.057951,0.601522,0.048330,0.548872
01296,178919,0.016215,0.109842,9.887516,0.001022,0.001058,0.002627,0.062144,-0.249401,-1.056773,0.600920,0.048473,0.549760
01297,179019,0.024394,0.128227,9.847377,0.002524,0.000049,0.000338,0.059102,-0.253459,-1.054478,0.601852,0.047671,0.549915
01298,179119,0.019300,0.127392,9.868697,0.003839,0.001711,0.001333,0.060120,-0.251933,-1.055401,0.603278,0.047939,0.550460
01299,179219,0.027270,0.092853,9.890544,0.002442,0.002663,0.002525,0.059115,-0.251443,-1.054876,0.603848,0.048603,0.551722
01300,179319,0.017429,0.098171,9.879899,0.000652,0.001206,0.000148,0.059104,-0.252463,-1.054427,0.603557,0.048457,0.551652
01301,179419,0.008051,0.121820,9.872811,0.001702,0.002590,0.002420,0.058635,-0.251885,-1.055901,0.603732,0.049003,0.553161
01302,179519,0.007774,0.101402,9.863071,0.003200,-0.000634,-0.000772,0.061131,-0.248437,-1.055723,0.604264,0.048057,0.551961
01303,179619,-0.009425,0.112588,9.879673,-0.000596,-0.001405,0.001519,0.057144,-0.249370,-1.055775,0.602761,0.046103,0.552880
01304,179719,0.023806,0.120516,9.878273,-0.001544,-0.001655,0.002166,0.061146,-0.250381,-1.056824,0.600833,0.044567,0.553756
01305,179819,0.018544,0.097274,9.891932,0.001675,-0.001210,0.001470,0.058154,-0.252327,-1.056926,0.601027,0.042885,0.555005
01306,179919,0.026654,0.120234,9.872657,0.000962,0.002210,0.001246,0.060629,-0.250920,-1.055850,0.600647,0.043512,0.555357
01307,180019,0.016245,0.105565,9.876740,-0.000245,0.001056,0.002293,0.060111,-0.251459,-1.054876,0.599691,0.043413,0.556289
01308,180119,0.001566,0.103579,9.867566,0.001529,0.003694,0.002861,0.059132,-0.252391,-1.055926,0.599850,0.044678,0.558028
01309,180219,0.031030,0.103031,9.881805,0.002992,0.003295,0.002518,0.059153,-0.250848,-1.056850,0.600587,0.045696,0.559539
01310,180319,0.009375,0.107204,9.884237,0.002158,0.003058,0.001537,0.059145,-0.255332,-1.057079,0.601486,0.046608,0.561077
01311,180419,0.005064,0.115896,9.856153,-0.000116,0.001859,0.000419,0.058136,-0.252375,-1.055927,0.600696,0.046691,0.561573
01312,180519,0.013591,0.122089,9.862528,0.003041,-0.002050,0.001989,0.058640,-0.248895,-1.055749,0.601215,0.044580,0.562368
01313,180619,0.014715,0.099201,9.890227,0.003266,-0.004440,0.000118,0.058638,-0.249892,-1.055800,0.602003,0.041125,0.562207
01314,180719,0.008755,0.122731,9.889484,-0.001228,-0.001910,0.000631,0.059182,-0.250278,-1.058324,0.600190,0.039175,0.562744
01315,180819,0.010437,0.113482,9.849304,-0.000109,0.003162,0.001208,0.061618,-0.249465,-1.055274,0.599012,0.040491,0.562596
01316,180919,0.017017,0.110499,9.855616,-0.000162,0.001112,0.001699,0.061117,-0.251450,-1.055375,0.598089,0.040572,0.563088
01317,181019,0.004158,0.093171,9.893596,0.000422,-0.001633,0.001498,0.058552,-0.251105,-1.051352,0.597591,0.038769,0.563149
01318,181119,-0.000285,0.114320,9.891225,-0.001240,0.000120,0.002177,0.060157,-0.251836,-1.057400,0.596041,0.038134,0.564466
01319,181219,0.005522,0.092424,9.864628,0.001235,0.000927,0.002397,0.059162,-0.250824,-1.057350,0.595765,0.037816,0.565945
01320,181319,0.008582,0.100110,9.883463,0.001649,0.000413,0.002511,0.059117,-0.250446,-1.054825,0.595759,0.037224,0.567006
01321,181419,0.019233,0.104153,9.881913,0.001089,0.003906,0.001190,0.061138,-0.249907,-1.056299,0.595304,0.038897,0.567170
01322,181519,0.020609,0.127868,9.872746,0.001297,0.002493,0.001866,0.061088,-0.252021,-1.053901,0.595357,0.039788,0.567578
01323,181619,0.023762,0.096568,9.863292,0.003434,0.003920,0.001423,0.061152,-0.252350,-1.057425,0.596555,0.041467,0.568381
01324,181719,0.026843,0.093621,9.884583,0.002773,0.002372,0.001617,0.061118,-0.250454,-1.055325,0.597173,0.042261,0.568694
01325,181819,0.018238,0.090348,9.862876,-0.000852,-0.000441,0.001507,0.061194,-0.249763,-1.059298,0.595481,0.041410,0.569523
01326,181919,-0.002258,0.102993,9.867869,0.003912,0.000118,0.001277,0.060603,-0.249498,-1.054274,0.596652,0.040851,0.569412
01327,182019,0.018603,0.082421,9.877316,0.005196,0.000122,0.001236,0.061140,-0.253869,-1.057002,0.599084,0.040370,0.570162
01328,182119,0.015705,0.101431,9.883994,-0.000444,-0.002254,0.001721,0.060121,-0.250936,-1.055350,0.597923,0.038388,0.570723
01329,182219,0.014192,0.120489,9.856218,0.000448,0.000997,0.002241,0.060098,-0.253475,-1.054477,0.597669,0.038288,0.571738
01330,182319,0.006850,0.125324,9.898286,0.001919,-0.002077,0.000047,0.061128,-0.250430,-1.055824,0.597774,0.036551,0.571188
01331,182419,0.013931,0.103179,9.918576,0.000794,0.000367,0.002442,0.061598,-0.250510,-1.054325,0.597300,0.036283,0.571686
01332,182519,0.018276,0.128494,9.876353,-0.000763,-0.000123,0.001852,0.058668,-0.248823,-1.057248,0.595596,0.035295,0.572689
01333,182619,0.020868,0.114274,9.860796,0.000125,0.000860,0.001028,0.059635,-0.249410,-1.055774,0.594539,0.035028,0.572854
01334,182719,0.020470,0.098644,9.881942,0.003352,0.001071,0.001531,0.058625,-0.251909,-1.055402,0.595698,0.034761,0.573686
01335,182819,0.012475,0.095029,9.888131,-0.001412,0.004121,0.001758,0.058116,-0.252922,-1.054953,0.594290,0.036179,0.574793
01336,182919,0.015437,0.104751,9.862781,0.000033,0.001592,0.001100,0.061665,-0.249345,-1.057773,0.593107,0.036586,0.574992
01337,183019,0.001915,0.120900,9.870157,0.003581,0.000214,0.000366,0.061156,-0.250357,-1.057324,0.594113,0.036149,0.574880
01338,183119,0.010180,0.125076,9.895240,0.001719,-0.001446,-0.000475,0.057656,-0.252319,-1.056926,0.594345,0.034309,0.575026
01339,183219,0.012765,0.125541,9.878868,0.000164,-0.000427,0.000650,0.060642,-0.248405,-1.056223,0.593157,0.033437,0.574743
01340,183319,0.019308,0.101535,9.878474,0.000927,0.001053,0.000888,0.058592,-0.249514,-1.053275,0.592667,0.033170,0.574576
01341,183419,0.007525,0.121747,9.869747,0.001905,-0.000767,0.001716,0.059622,-0.251925,-1.055401,0.593007,0.031993,0.575316
01342,183519,0.003265,0.099689,9.912397,-0.002155,0.000899,0.002345,0.060591,-0.251016,-1.053851,0.590951,0.031910,0.575880
01343,183619,0.016381,0.117503,9.865248,0.000219,0.003015,0.002766,0.057663,-0.248333,-1.056723,0.589778,0.032591,0.577463
01344,183719,0.019746,0.094384,9.895205,0.002298,0.007156,0.002925,0.060121,-0.250936,-1.055350,0.590211,0.036000,0.578748
01345,183819,0.014440,0.101658,9.899914,0.002095,0.004766,0.002387,0.059107,-0.250470,-1.054325,0.590497,0.037908,0.579675
01346,183919,0.006749,0.097829,9.861338,0.001081,0.002137,0.000046,0.060053,-0.252599,-1.051928,0.590583,0.038489,0.578873
01347,184019,0.026432,0.103278,9.875756,0.002075,0.002837,0.000502,0.059114,-0.251941,-1.054902,0.591043,0.039304,0.578965
01348,184119,0.015148,0.115737,9.885321,0.003804,0.002377,0.001291,0.059125,-0.250920,-1.055351,0.592330,0.039839,0.579477
01349,184219,0.016027,0.110729,9.885644,0.001725,0.004506,0.001988,0.060669,-0.248831,-1.057748,0.592051,0.041757,0.580330
01350,184319,0.025871,0.113560,9.863459,0.002451,0.002762,0.002646,0.061622,-0.252430,-1.055926,0.592756,0.042841,0.581418
01351,184419,0.008769,0.111155,9.899310,0.004421,0.000470,0.001392,0.062185,-0.252768,-1.059449,0.594513,0.042662,0.582326
01352,184519,0.014812,0.110920,9.901088,0.001717,0.000960,0.000790,0.058109,-0.251949,-1.054402,0.594775,0.042261,0.582655
01353,184619,-0.002346,0.115860,9.868747,0.000247,0.002517,0.002635,0.061109,-0.250478,-1.054825,0.593976,0.043132,0.583440
01354,184719,0.017311,0.104175,9.872721,0.002976,0.002276,0.002578,0.057661,-0.249330,-1.056774,0.594511,0.043373,0.585050
01355,184819,0.000690,0.110290,9.894489,0.001886,0.000892,0.001808,0.060616,-0.252937,-1.055452,0.594973,0.043261,0.585795
01356,184919,0.018246,0.112393,9.893508,-0.002844,0.000960,0.001265,0.059142,-0.251868,-1.056401,0.592548,0.042978,0.586557
01357,185019,0.011247,0.124747,9.882873,0.000019,0.002799,0.002111,0.060122,-0.250438,-1.055325,0.591602,0.043874,0.587304
01358,185119,0.007426,0.101383,9.879486,0.003400,0.003417,0.001672,0.060618,-0.251940,-1.055401,0.592798,0.045200,0.587882
01359,185219,0.005669,0.094275,9.891475,-0.000755,0.001211,0.001148,0.061618,-0.249465,-1.055274,0.591275,0.045384,0.587700
01360,185319,0.009942,0.100860,9.882819,0.000302,-0.002291,0.000157,0.058110,-0.250953,-1.054351,0.590598,0.043120,0.587540
01361,185419,0.017250,0.119254,9.876398,0.003077,-0.002649,0.001864,0.059637,-0.248413,-1.055723,0.591108,0.040822,0.588067
01362,185519,0.001822,0.105046,9.906857,0.001908,0.000527,0.001304,0.060131,-0.250912,-1.055850,0.591294,0.040429,0.588463
01363,185619,0.026799,0.114074,9.857053,-0.001146,-0.000004,0.000296,0.061108,-0.250976,-1.054850,0.589777,0.039880,0.587920
01364,185719,0.030996,0.113822,9.851151,0.001233,0.003018,0.001658,0.059700,-0.249739,-1.059298,0.589301,0.040813,0.589123
01365,185819,0.018103,0.110217,9.890084,0.003168,0.002280,0.001241,0.060629,-0.250920,-1.055850,0.590214,0.041488,0.589398
01366,185919,0.007342,0.110928,9.881460,0.000688,0.003412,0.000913,0.059174,-0.249305,-1.057773,0.589416,0.042588,0.589966
01367,186019,0.012367,0.104814,9.875382,-0.000976,0.001724,0.001366,0.059710,-0.249217,-1.059772,0.587591,0.042771,0.591032
01368,186119,0.019576,0.111996,9.870963,0.002266,0.000836,0.001574,0.060639,-0.250398,-1.056324,0.587904,0.042607,0.591521
01369,186219,0.022971,0.088274,9.904335,0.004077,0.000266,0.001791,0.060128,-0.252407,-1.055926,0.589544,0.042066,0.592342
01370,186319,0.028148,0.094834,9.888173,-0.001737,0.001298,0.001875,0.061109,-0.250478,-1.054825,0.587626,0.042243,0.592651
01371,186419,0.023623,0.118350,9.857916,0.001675,0.001194,0.000874,0.058111,-0.250454,-1.054326,0.587675,0.041973,0.592867
01372,186519,0.014392,0.106427,9.875378,0.005744,0.000914,0.001528,0.059654,-0.249362,-1.056773,0.589816,0.041714,0.593495
01373,186619,0.005125,0.101292,9.912945,-0.001333,0.000999,0.002062,0.060121,-0.251435,-1.055376,0.588242,0.041590,0.594279
01374,186719,0.015285,0.103065,9.848101,-0.001272,0.003367,0.002464,0.058687,-0.253733,-1.059002,0.586903,0.042610,0.596448
01375,186819,0.010133,0.109068,9.870902,0.005869,0.003009,0.000337,0.061108,-0.250976,-1.054850,0.589406,0.043775,0.595937
01376,186919,0.003107,0.092681,9.893828,0.001727,0.000327,0.000652,0.059642,-0.250880,-1.056350,0.589471,0.043194,0.596127
01377,187019,0.009629,0.105234,9.874266,0.000399,0.002149,0.002286,0.061590,-0.250036,-1.053800,0.588747,0.043922,0.596357
01378,187119,0.010138,0.115060,9.870629,0.002028,0.000145,0.000520,0.058647,-0.249868,-1.056300,0.588847,0.043101,0.596561
01379,187219,0.014624,0.100271,9.893648,0.002495,-0.001741,0.001500,0.061137,-0.250406,-1.056324,0.589288,0.041529,0.596880
01380,187319,0.024420,0.100487,9.885151,-0.001583,-0.001795,0.000411,0.058178,-0.249290,-1.057774,0.587195,0.039527,0.597306
01381,187419,0.031446,0.126457,9.834587,0.000111,-0.001546,0.000416,0.062124,-0.250445,-1.055824,0.586301,0.038215,0.596708
01382,187519,0.030278,0.101055,9.874694,0.003648,0.000159,0.001485,0.062126,-0.249449,-1.055773,0.587296,0.037867,0.596631
01383,187619,0.025150,0.105901,9.899092,0.000514,0.000568,0.001284,0.060645,-0.252367,-1.056926,0.586861,0.037569,0.597179
01384,187719,0.021159,0.094383,9.876121,-0.001707,0.002558,0.002013,0.060635,-0.247432,-1.055672,0.584520,0.038383,0.597543
01385,187819,0.010505,0.116426,9.874879,0.002172,0.001775,0.001389,0.060619,-0.251442,-1.055375,0.584963,0.038777,0.597805
01386,187919,0.006061,0.097556,9.893714,0.002546,0.001485,0.002042,0.059623,-0.250928,-1.055350,0.585549,0.038869,0.598596
01387,188019,0.015672,0.105945,9.855093,-0.002594,-0.001257,-0.000278,0.059623,-0.251427,-1.055376,0.583263,0.037409,0.598078
01388,188119,0.017320,0.115619,9.870224,0.001762,-0.001423,0.000983,0.061090,-0.251024,-1.053851,0.583468,0.036053,0.597670
01389,188219,0.012661,0.103928,9.889292,0.001356,-0.005056,0.001899,0.061136,-0.250904,-1.056350,0.583343,0.032601,0.598190
01390,188319,0.028513,0.115041,9.877487,-0.003650,-0.003949,0.000535,0.058627,-0.250912,-1.055351,0.580390,0.029480,0.598245
01391,188419,0.013621,0.096370,9.876240,-0.002398,-0.000866,0.000659,0.061147,-0.249883,-1.056799,0.577972,0.028436,0.598075
01392,188519,0.022774,0.090738,9.886962,0.000167,0.000158,0.001530,0.059168,-0.247336,-1.057172,0.576664,0.027700,0.598715
01393,188619,0.026095,0.087800,9.899426,0.000284,0.003632,0.001861,0.060629,-0.250920,-1.055850,0.575962,0.029172,0.599252
01394,188719,0.028614,0.092447,9.879780,0.001455,0.004536,0.002558,0.060597,-0.252985,-1.054452,0.576260,0.031173,0.600073
01395,188819,0.010186,0.114376,9.851253,0.000506,0.003937,0.003984,0.060126,-0.248445,-1.055223,0.575367,0.032726,0.601681
01396,188919,0.008775,0.094994,9.887193,0.004395,0.003628,0.002754,0.059630,-0.252399,-1.055926,0.577216,0.034058,0.603044
01397,189019,0.019797,0.100063,9.891731,0.000346,0.005141,0.001216,0.060636,-0.251892,-1.056401,0.576661,0.036383,0.603396
01398,189119,0.010991,0.110188,9.874200,0.001633,0.004354,0.000026,0.060130,-0.251410,-1.055875,0.576795,0.038197,0.603046
01399,189219,0.005202,0.093689,9.903452,0.005468,0.004980,0.001087,0.058608,-0.251459,-1.054376,0.579175,0.040173,0.603348
01400,189319,0.020985,0.117563,9.875773,0.003598,0.005871,0.003137,0.059633,-0.250904,-1.055850,0.580356,0.042759,0.604873
01401,189419,0.019003,0.115702,9.876769,0.002846,0.004699,0.001021,0.059624,-0.250430,-1.055325,0.581057,0.044682,0.605063
01402,189519,0.014443,0.105124,9.872792,0.003970,0.003843,0.000281,0.058632,-0.247923,-1.055198,0.582060,0.045973,0.604869
01403,189619,-0.000883,0.119920,9.875892,0.002450,0.002822,0.002459,0.062198,-0.250253,-1.059822,0.582359,0.047098,0.606175
01404,189719,0.023000,0.110813,9.879082,0.001006,0.001842,-0.000016,0.058148,-0.250358,-1.056325,0.581960,0.047184,0.606250
01405,189819,-0.000221,0.129715,9.855364,0.002011,0.001244,0.002143,0.060647,-0.250872,-1.056849,0.582191,0.047236,0.607165
01406,189919,0.020098,0.103875,9.886550,0.001484,-0.000568,0.001907,0.060120,-0.251933,-1.055401,0.582312,0.046205,0.607828
01407,190019,0.010840,0.114355,9.876686,0.000437,0.003182,0.000550,0.060601,-0.250992,-1.054350,0.581740,0.047392,0.607392
01408,190119,0.010416,0.115866,9.892271,0.002900,0.001991,0.001029,0.058659,-0.248349,-1.056723,0.582141,0.047607,0.607924
01409,190219,0.012764,0.107825,9.875315,0.000601,-0.000293,0.001022,0.058637,-0.250390,-1.055825,0.581533,0.046535,0.608383
01410,190319,-0.001083,0.108555,9.870206,0.002115,0.002059,0.003579,0.060162,-0.248847,-1.057248,0.581538,0.046968,0.610175
01411,190419,0.017232,0.116326,9.887747,0.002928,0.001705,0.002008,0.061650,-0.252358,-1.057425,0.582477,0.047417,0.610985
01412,190519,0.028175,0.103003,9.898250,0.001817,-0.000457,0.001634,0.059624,-0.250430,-1.055325,0.582586,0.046379,0.611489
01413,190619,0.011359,0.099805,9.851818,0.001631,-0.000794,0.001280,0.057686,-0.251251,-1.058375,0.582598,0.044885,0.612800
01414,190719,0.008597,0.110255,9.868299,0.002392,0.000953,0.001829,0.061637,-0.249417,-1.056273,0.582868,0.044899,0.613107
01415,190819,0.017750,0.096992,9.879511,0.000802,-0.000951,0.000650,0.061621,-0.247970,-1.055197,0.582069,0.043830,0.612441
01416,190919,0.013323,0.107726,9.884262,-0.000313,-0.000250,0.001430,0.060170,-0.249321,-1.057773,0.580732,0.042962,0.613093
01417,191019,0.020519,0.118733,9.888302,0.001953,0.001885,0.002059,0.061098,-0.251498,-1.054376,0.581099,0.043472,0.613394
01418,191119,0.015348,0.095502,9.878254,0.001160,0.002315,0.001120,0.060105,-0.249490,-1.054274,0.580744,0.044094,0.613257
01419,191219,0.027214,0.097840,9.859729,0.001185,0.005245,0.001532,0.057631,-0.250897,-1.055351,0.580557,0.046074,0.614196
01420,191319,0.012566,0.108691,9.862650,0.000403,0.004932,0.001147,0.059625,-0.249932,-1.055300,0.579797,0.048119,0.614423
01421,191419,0.018232,0.084208,9.888690,0.001412,0.002812,0.002037,0.058645,-0.251363,-1.056376,0.579771,0.048818,0.615639
01422,191519,0.011521,0.116247,9.884232,0.000730,-0.000207,0.002096,0.060666,-0.250824,-1.057849,0.579237,0.048031,0.616669
01423,191619,0.022366,0.101442,9.867643,0.001723,-0.000383,0.002316,0.059668,-0.251804,-1.057900,0.579400,0.047023,0.618098
01424,191719,0.014536,0.089346,9.878908,0.003838,0.000033,-0.000501,0.061116,-0.251948,-1.055401,0.580873,0.046474,0.617139
01425,191819,0.003847,0.097945,9.856038,0.002834,-0.001632,-0.000160,0.063110,-0.250984,-1.055349,0.581642,0.045219,0.615868
01426,191919,0.009295,0.105715,9.864920,0.000118,-0.000159,0.001398,0.059136,-0.249900,-1.055799,0.580694,0.044288,0.616387
01427,192019,0.025254,0.106402,9.884638,-0.000087,-0.000202,0.002557,0.061107,-0.251474,-1.054876,0.579875,0.043593,0.617031
01428,192119,0.015803,0.083576,9.880918,0.001053,0.001298,0.000900,0.058147,-0.250856,-1.056350,0.579575,0.043380,0.617625
01429,192219,0.011391,0.099608,9.886038,0.000903,0.003991,0.001581,0.054671,-0.250279,-1.056826,0.579097,0.044259,0.619442
01430,192319,0.010578,0.101036,9.881406,0.002898,0.004286,0.002071,0.057618,-0.252914,-1.054953,0.580174,0.045704,0.620703
01431,192419,0.018330,0.114777,9.859394,0.001737,0.004357,0.003510,0.058627,-0.250912,-1.055351,0.580306,0.047290,0.622533
01432,192519,0.003346,0.111836,9.878123,0.000354,-0.000005,0.003237,0.058656,-0.250342,-1.056825,0.579523,0.046369,0.624409
01433,192619,0.009839,0.117147,9.884440,0.000734,-0.001285,0.001206,0.059622,-0.251925,-1.055401,0.579216,0.044873,0.624739
01434,192719,0.030766,0.094832,9.876798,0.002686,-0.001021,0.002910,0.059155,-0.249353,-1.056774,0.579639,0.043436,0.626225
01435,192819,0.015337,0.116032,9.871863,0.001691,-0.000339,0.002542,0.061597,-0.251008,-1.054350,0.579792,0.042730,0.626636
01436,192919,0.021163,0.088087,9.890055,0.001987,0.001499,0.000840,0.059116,-0.250944,-1.054851,0.580086,0.042771,0.626698
01437,193019,0.007735,0.112410,9.894537,0.002562,0.003312,0.002487,0.060094,-0.250510,-1.053825,0.580686,0.043967,0.627292
01438,193119,0.013404,0.119804,9.864622,0.001068,0.003304,0.000949,0.059642,-0.250880,-1.056350,0.580396,0.045090,0.627597
01439,193219,0.016453,0.101035,9.879039,0.004203,0.003715,0.001153,0.057659,-0.250824,-1.056850,0.581875,0.046192,0.628537
01440,193319,-0.004534,0.106623,9.886174,0.002688,0.002603,-0.000832,0.060646,-0.251868,-1.056900,0.582622,0.047046,0.627777
01441,193419,0.018956,0.110116,9.869541,-0.001632,-0.000875,0.001234,0.059613,-0.251451,-1.054876,0.580907,0.045783,0.627990
01442,193519,0.005256,0.110692,9.883379,0.001459,-0.003930,0.002090,0.059160,-0.251820,-1.057400,0.580932,0.042698,0.629247
01443,193619,0.021540,0.089040,9.895032,0.001868,-0.002119,0.002643,0.060146,-0.252857,-1.056951,0.581343,0.040786,0.630601
01444,193719,0.018569,0.101826,9.889388,-0.000053,-0.000020,0.002627,0.061146,-0.250381,-1.056824,0.580331,0.040187,0.631566
01445,193819,0.019801,0.121899,9.867918,0.001128,0.003386,0.000961,0.057653,-0.248856,-1.056249,0.579811,0.041106,0.632117
01446,193919,0.028159,0.107366,9.872346,0.001816,0.002038,0.001375,0.058158,-0.250334,-1.056825,0.579863,0.041317,0.632994
01447,194019,0.021595,0.095301,9.893607,0.002996,0.002551,0.002435,0.061117,-0.251450,-1.055375,0.580786,0.042202,0.633669
01448,194119,0.006050,0.104476,9.864718,0.000020,0.000255,0.002086,0.060618,-0.251940,-1.055401,0.580068,0.041716,0.634268
01449,194219,0.015774,0.091246,9.866290,0.002357,-0.001721,0.001979,0.061613,-0.252455,-1.055426,0.580756,0.040229,0.634614
01450,194319,0.019623,0.108998,9.861074,0.002514,-0.001216,0.000874,0.059671,-0.250310,-1.057824,0.581170,0.038765,0.635039
01451,194419,0.012362,0.108625,9.874607,-0.001663,-0.003601,0.001906,0.059640,-0.246918,-1.055647,0.578819,0.035927,0.635426
01452,194519,0.024064,0.094543,9.880417,0.000568,-0.001578,0.001490,0.061616,-0.250960,-1.055350,0.578292,0.034527,0.635347
01453,194619,0.017049,0.112752,9.868872,-0.000149,0.001573,0.003194,0.058642,-0.252857,-1.056452,0.577571,0.034559,0.637194
01454,194719,0.005029,0.104395,9.887231,-0.000656,0.001141,0.001789,0.059136,-0.249900,-1.055799,0.576192,0.034399,0.637845
01455,194819,0.015085,0.110224,9.882181,0.002720,0.002904,-0.000312,0.058630,-0.249418,-1.055274,0.576699,0.035198,0.637288
01456,194919,0.015656,0.107337,9.869122,0.001360,0.001170,0.002745,0.059124,-0.251419,-1.055376,0.576689,0.035060,0.638498
01457,195019,0.026143,0.107596,9.870272,0.002138,-0.000482,0.001352,0.059095,-0.247031,-1.053148,0.576617,0.033971,0.638233
01458,195119,0.013427,0.107371,9.877967,0.001310,-0.001385,0.002079,0.059137,-0.254360,-1.056528,0.576928,0.032391,0.639407
01459,195219,0.030890,0.107260,9.900707,-0.000442,0.000576,0.002336,0.060641,-0.249401,-1.056273,0.575594,0.032088,0.640096
01460,195319,0.010013,0.116341,9.879004,0.002017,-0.002626,0.000679,0.059144,-0.250374,-1.056325,0.575794,0.029788,0.640189
01461,195419,0.023309,0.102581,9.869049,0.002440,-0.002253,-0.000946,0.060170,-0.249819,-1.057799,0.576116,0.027825,0.639372
01462,195519,0.011907,0.100260,9.875286,-0.001715,-0.000541,0.001335,0.056659,-0.252802,-1.056952,0.574479,0.026428,0.640616
01463,195619,0.021751,0.121955,9.872925,0.001055,0.000217,0.000693,0.057670,-0.249804,-1.057299,0.574026,0.025573,0.641169
01464,195719,0.009174,0.109841,9.897863,0.001351,0.002300,0.002002,0.061646,-0.249393,-1.056773,0.573710,0.026391,0.641518
01465,195819,0.008481,0.105820,9.879648,0.001293,-0.002022,0.000954,0.059646,-0.253845,-1.057002,0.573935,0.024526,0.641968
01466,195919,0.022205,0.100191,9.864676,0.000524,0.000929,0.001358,0.059633,-0.250904,-1.055850,0.573372,0.024337,0.642279
01467,196019,0.017179,0.098237,9.872299,0.001376,0.002172,0.002581,0.059611,-0.252447,-1.054927,0.573528,0.024868,0.643219
01468,196119,0.009291,0.106713,9.873588,-0.001742,0.000786,0.002661,0.060125,-0.248943,-1.055249,0.571434,0.024642,0.643946
01469,196219,0.007950,0.119135,9.863208,0.002481,-0.002145,0.001057,0.057638,-0.251869,-1.055902,0.572118,0.022462,0.644532
01470,196319,0.006770,0.110702,9.870094,0.000690,-0.002386,0.001592,0.059650,-0.251354,-1.056875,0.571681,0.020381,0.645151
01471,196419,0.013802,0.108387,9.880413,-0.002019,-0.002600,0.001096,0.060129,-0.251909,-1.055901,0.569800,0.018255,0.645225
01472,196519,0.028041,0.108859,9.865303,-0.003201,-0.002473,-0.000068,0.059617,-0.249458,-1.054774,0.566964,0.016142,0.644382
01473,196619,0.026574,0.099012,9.873736,-0.000428,-0.000874,0.001684,0.059624,-0.250430,-1.055325,0.565830,0.014940,0.644699
01474,196719,0.024519,0.094531,9.890521,-0.001238,-0.000039,0.002544,0.058193,-0.251234,-1.058875,0.564227,0.014019,0.646510
01475,196819,0.013281,0.104877,9.862452,0.001377,0.002038,0.000611,0.061106,-0.251972,-1.054901,0.564345,0.014688,0.645925
01476,196919,0.024706,0.122345,9.878975,-0.000102,0.001227,0.001874,0.058673,-0.251290,-1.057875,0.563435,0.014562,0.647071
01477,197019,0.026921,0.094436,9.865903,0.002025,0.000055,0.000955,0.058159,-0.249836,-1.056799,0.563587,0.013706,0.647507
01478,197119,-0.002958,0.092828,9.895789,0.000591,-0.000308,0.001710,0.057644,-0.248880,-1.055749,0.562828,0.012581,0.648226
01479,197219,0.020910,0.107849,9.873974,0.000855,0.002419,0.001786,0.062133,-0.250421,-1.056324,0.562406,0.013567,0.648283
01480,197319,0.029180,0.100296,9.879803,0.002405,0.001876,0.002122,0.058655,-0.250840,-1.056850,0.562907,0.013816,0.649356
01481,197419,0.020964,0.087708,9.871549,0.000601,0.004344,0.002222,0.057199,-0.250222,-1.058824,0.562232,0.015280,0.651141
01482,197519,0.020654,0.122786,9.863114,0.000625,0.002428,0.002546,0.057188,-0.251243,-1.058375,0.561719,0.015653,0.653071
01483,197619,0.028258,0.102111,9.896660,0.000640,0.000256,0.000370,0.059577,-0.251049,-1.052851,0.561365,0.015125,0.652212
01484,197719,0.015442,0.101975,9.873086,0.000436,0.001744,0.001898,0.058656,-0.250342,-1.056825,0.560679,0.015294,0.653123
01485,197819,0.014422,0.119604,9.866988,0.001838,0.000902,0.001320,0.058647,-0.249868,-1.056300,0.560752,0.014984,0.653572
01486,197919,0.016887,0.103766,9.878551,0.002541,-0.000362,0.002435,0.056653,-0.250833,-1.056351,0.561348,0.013713,0.655114
01487,198019,0.029835,0.104067,9.878725,0.000185,0.001630,-0.000011,0.058113,-0.249458,-1.054275,0.560485,0.013778,0.654497
01488,198119,0.021543,0.091754,9.865503,0.003592,0.000826,0.001045,0.059166,-0.248831,-1.057248,0.561397,0.013478,0.654783
01489,198219,0.013425,0.087972,9.868275,0.002326,-0.001725,0.001449,0.059631,-0.251901,-1.055901,0.562022,0.011805,0.655128
01490,198319,0.009347,0.108300,9.878265,0.001531,-0.001700,0.000889,0.058649,-0.248871,-1.056249,0.561789,0.010012,0.655217
01491,198419,0.029741,0.099865,9.901577,-0.000290,-0.000434,0.002232,0.059146,-0.249377,-1.056274,0.560581,0.009003,0.656013
01492,198519,0.009741,0.103882,9.871162,-0.001624,-0.001452,0.002099,0.058139,-0.250382,-1.055825,0.558756,0.007304,0.656907
01493,198619,0.025901,0.094393,9.883726,0.000301,0.000189,0.001198,0.060143,-0.249393,-1.056274,0.557897,0.006783,0.656898
01494,198719,0.022134,0.101871,9.887804,-0.002752,-0.000874,0.001670,0.058648,-0.249370,-1.056274,0.555290,0.005474,0.657459
01495,198819,0.021617,0.100970,9.885080,-0.003026,-0.001654,0.000155,0.058148,-0.250358,-1.056325,0.552658,0.003677,0.657315
01496,198919,0.017653,0.082891,9.902299,-0.000624,-0.000684,0.000325,0.061126,-0.251426,-1.055875,0.551559,0.002803,0.656627
01497,199019,0.016048,0.086780,9.896535,-0.001420,-0.000779,0.000057,0.056609,-0.249459,-1.053776,0.549817,0.001341,0.656211
01498,199119,0.027001,0.082098,9.909028,-0.000140,0.000853,0.001127,0.057659,-0.250824,-1.056850,0.548892,0.000922,0.656855
01499,199219,0.031372,0.124041,9.832546,0.005781,0.003613,0.001770,0.059672,-0.249811,-1.057799,0.551195,0.002304,0.657582
01500,199319,0.001695,0.077056,9.908168,0.002990,0.003091,0.001593,0.060626,-0.252415,-1.055926,0.552289,0.003531,0.657815
01501,199419,0.007806,0.110894,9.896243,-0.000366,0.002081,-0.000264,0.059651,-0.250856,-1.056850,0.551233,0.004054,0.657263
01502,199519,0.027220,0.124567,9.865039,0.001557,0.001848,0.000449,0.060615,-0.248477,-1.054723,0.551042,0.004553,0.656388
01503,199619,0.022439,0.108602,9.877895,0.002468,0.001621,0.001262,0.061645,-0.250389,-1.056824,0.551552,0.005036,0.656261
01504,199719,0.010042,0.100921,9.870094,0.001048,0.002322,0.000846,0.057134,-0.249892,-1.055300,0.551230,0.005392,0.656525
01505,199819,0.038671,0.124547,9.868772,-0.001506,0.001112,0.000759,0.058636,-0.250888,-1.055851,0.549561,0.005236,0.656568
01506,199919,0.026427,0.088427,9.882759,0.003101,0.001505,0.002082,0.058625,-0.251909,-1.055402,0.550673,0.005307,0.657333
01507,200019,0.016108,0.078111,9.902942,0.001181,0.002129,0.001501,0.058628,-0.250414,-1.055325,0.550496,0.005729,0.657685
01508,200119,0.017364,0.092323,9.852863,-0.001182,0.004824,0.001456,0.058618,-0.250937,-1.054851,0.549049,0.007697,0.657968
01509,200219,0.023901,0.099508,9.865283,0.003223,0.004859,0.001790,0.059144,-0.250374,-1.056325,0.550007,0.009727,0.658595
01510,200319,0.030919,0.085883,9.894144,0.003351,0.006346,0.000380,0.059636,-0.248911,-1.055748,0.550867,0.012663,0.658158
01511,200419,0.003457,0.106662,9.877454,0.002283,0.006299,0.001958,0.059135,-0.250398,-1.055825,0.551302,0.015507,0.658818
01512,200519,0.014635,0.112317,9.849821,0.003104,0.000580,0.001222,0.057110,-0.253428,-1.054478,0.552630,0.014867,0.659310
01513,200619,0.015703,0.096650,9.906374,0.002551,-0.000519,0.001831,0.058654,-0.251338,-1.056875,0.553300,0.013751,0.660189
01514,200719,0.000757,0.102235,9.870476,-0.000105,0.000971,0.001185,0.059657,-0.247867,-1.056697,0.552016,0.013590,0.660313
01515,200819,0.031305,0.101726,9.886163,0.002156,0.003002,0.001021,0.060590,-0.252013,-1.053901,0.552640,0.014748,0.659821
01516,200919,0.019772,0.100561,9.882305,0.005232,0.005658,0.001333,0.059138,-0.248903,-1.055749,0.554569,0.017215,0.660047
01517,201019,0.023450,0.125607,9.877319,0.000040,0.006743,0.000763,0.061095,-0.253491,-1.054477,0.554147,0.020568,0.659501
01518,201119,0.013808,0.103910,9.881353,0.001717,0.006941,0.001695,0.060159,-0.250342,-1.057324,0.554198,0.023872,0.660115
01519,201219,0.018697,0.128304,9.897683,0.003713,0.004398,0.002717,0.058148,-0.250358,-1.056325,0.555421,0.025479,0.661514
01520,201319,0.013905,0.097408,9.872156,0.000277,0.000640,0.001721,0.060611,-0.250470,-1.054825,0.554739,0.025242,0.661548
01521,201419,0.013176,0.102106,9.872956,-0.001151,-0.000423,-0.000111,0.060159,-0.250342,-1.057324,0.553148,0.024336,0.661083
01522,201519,0.013335,0.110928,9.858083,0.000562,-0.003019,0.003141,0.058139,-0.250382,-1.055825,0.552592,0.021703,0.662572
01523,201619,0.028985,0.095393,9.887855,0.001841,-0.001780,0.001040,0.060133,-0.249916,-1.055799,0.552711,0.020027,0.662440
01524,201719,0.032945,0.110130,9.878588,0.000212,0.001199,0.002491,0.060636,-0.251892,-1.056401,0.552130,0.020117,0.663222
01525,201819,0.029399,0.109286,9.901654,0.002308,0.002997,0.001833,0.061099,-0.251000,-1.054350,0.552699,0.021301,0.663129
01526,201919,0.033568,0.096049,9.889287,0.000646,0.004150,0.001982,0.059129,-0.248927,-1.055249,0.552026,0.022890,0.663649
01527,202019,0.020648,0.110552,9.894646,-0.000174,0.002403,0.000527,0.059113,-0.252439,-1.054927,0.551339,0.023505,0.663333
01528,202119,0.026032,0.102382,9.879106,0.000956,-0.001020,-0.000025,0.059145,-0.249876,-1.056299,0.550935,0.022145,0.662886
01529,202219,0.002908,0.113067,9.871822,0.000426,-0.003608,0.000693,0.059163,-0.250326,-1.057324,0.550254,0.019302,0.663026
01530,202319,0.018739,0.097083,9.872598,-0.001102,-0.005150,0.002250,0.058137,-0.251379,-1.055876,0.548878,0.015470,0.663973
01531,202419,0.016869,0.097833,9.845166,0.000924,-0.006313,0.000912,0.060667,-0.250325,-1.057824,0.548473,0.011268,0.663992
01532,202519,0.019389,0.089293,9.897839,0.000702,-0.002287,0.000025,0.058147,-0.250856,-1.056350,0.548052,0.009097,0.663731
01533,202619,0.034804,0.095385,9.885556,0.000618,0.001937,0.003223,0.058641,-0.248397,-1.055723,0.547294,0.009378,0.665065
01534,202719,0.035272,0.103811,9.884738,0.002969,0.005732,0.001686,0.057173,-0.248800,-1.057249,0.547885,0.011656,0.666134
01535,202819,0.006466,0.123979,9.884766,0.005578,0.008248,0.002408,0.059658,-0.252327,-1.057425,0.550405,0.015673,0.667263
01536,202919,0.013186,0.104568,9.887092,0.003938,0.007003,0.003952,0.057681,-0.248783,-1.057749,0.551526,0.018709,0.669650
01537,203019,0.016785,0.108078,9.879391,0.004159,0.005946,0.003606,0.060613,-0.249474,-1.054774,0.552949,0.021502,0.670710
01538,203119,0.014731,0.108190,9.884892,0.003532,0.003706,0.001959,0.059118,-0.249948,-1.054800,0.554068,0.022845,0.671131
01539,203219,0.022441,0.089730,9.867703,0.002203,0.001823,0.000693,0.060117,-0.247971,-1.054698,0.554180,0.023222,0.670558
01540,203319,0.016872,0.079764,9.880405,0.002068,0.000661,0.000863,0.058578,-0.252029,-1.052902,0.554778,0.022787,0.670114
01541,203419,0.016972,0.093147,9.884505,0.002591,0.000330,0.001394,0.060138,-0.251884,-1.056401,0.555549,0.022319,0.670322
01542,203519,0.021298,0.097246,9.886109,0.003156,0.002762,0.001813,0.059139,-0.248405,-1.055723,0.556225,0.023109,0.670810
01543,203619,0.026001,0.102817,9.869576,-0.000138,0.000233,0.001113,0.060638,-0.250896,-1.056350,0.555310,0.022638,0.670726
01544,203719,0.029727,0.110600,9.881365,0.001515,0.001173,0.000188,0.059099,-0.249996,-1.053800,0.555306,0.022544,0.669925
01545,203819,0.006834,0.094875,9.871525,-0.001527,0.000534,0.000148,0.058647,-0.249868,-1.056300,0.553471,0.022015,0.669669
01546,203919,0.017658,0.103322,9.869409,-0.000652,-0.001131,0.001947,0.058665,-0.250318,-1.057324,0.552167,0.020524,0.670623
01547,204019,0.012419,0.106491,9.871614,0.000631,-0.001985,0.001911,0.060630,-0.250422,-1.055824,0.551659,0.018786,0.670856
01548,204119,0.036689,0.096623,9.878802,-0.000172,-0.003304,-0.000124,0.060103,-0.250984,-1.054351,0.550808,0.016258,0.669725
01549,204219,0.027434,0.102608,9.880173,-0.000623,-0.004428,-0.000102,0.058657,-0.249346,-1.056774,0.549422,0.012903,0.669344
01550,204319,0.020559,0.098131,9.874104,0.001526,-0.002546,0.001948,0.058109,-0.251949,-1.054402,0.549665,0.010584,0.669796
01551,204419,0.021299,0.096471,9.876453,0.001358,0.000924,0.001297,0.058601,-0.249988,-1.053801,0.549585,0.010308,0.669669
01552,204519,0.031673,0.096899,9.895587,0.000243,0.002562,0.000984,0.059126,-0.250422,-1.055325,0.548876,0.011023,0.669563
01553,204619,0.025446,0.116236,9.883486,0.002067,0.002657,0.001505,0.058180,-0.253251,-1.058476,0.549468,0.011675,0.670553
01554,204719,0.027775,0.113651,9.893929,0.002117,0.002801,0.001206,0.058113,-0.249458,-1.054275,0.549741,0.012407,0.670572
01555,204819,0.022336,0.083586,9.886623,0.000770,0.003951,0.001312,0.062124,-0.250445,-1.055824,0.549322,0.014253,0.670168
01556,204919,0.026784,0.100472,9.863603,0.000536,0.002356,0.002042,0.061118,-0.250454,-1.055325,0.548786,0.015066,0.670272
01557,205019,0.012979,0.092190,9.862769,-0.000130,0.002369,0.001896,0.060119,-0.252431,-1.055426,0.548113,0.015778,0.670491
01558,205119,0.022649,0.096268,9.880077,0.001956,0.000640,0.002312,0.059144,-0.250872,-1.056350,0.548412,0.015373,0.671324
01559,205219,0.025881,0.104099,9.875518,0.000363,0.000959,0.000772,0.059633,-0.250406,-1.055825,0.547757,0.015217,0.671081
01560,205319,0.023701,0.100086,9.868418,0.003229,0.001919,0.002910,0.057154,-0.249346,-1.056275,0.548596,0.015305,0.672658
01561,205419,0.026590,0.099045,9.885877,0.002178,0.003983,0.001586,0.060131,-0.250912,-1.055850,0.549040,0.016932,0.672802
01562,205519,0.014651,0.102970,9.872787,0.002121,0.003020,0.001410,0.059131,-0.252889,-1.055952,0.549693,0.017901,0.673028
01563,205619,0.024824,0.092025,9.876571,0.004500,0.003792,0.001957,0.059599,-0.249008,-1.053749,0.551288,0.019354,0.673118
01564,205719,0.010340,0.103300,9.881209,0.002876,0.002077,0.000367,0.059644,-0.249386,-1.056274,0.551923,0.019824,0.672768
01565,205819,0.008723,0.083539,9.869957,0.000780,0.003207,0.001536,0.061628,-0.249441,-1.055773,0.551380,0.021163,0.672610
01566,205919,0.017473,0.085548,9.871303,0.002000,0.003226,0.002276,0.058654,-0.251338,-1.056875,0.551736,0.022167,0.673635
01567,206019,0.029002,0.104394,9.887374,-0.000780,0.000546,0.002141,0.061634,-0.251410,-1.056375,0.550528,0.021982,0.673877
01568,206119,0.021003,0.106813,9.887969,0.000756,-0.002608,0.000836,0.056146,-0.250849,-1.055851,0.550145,0.019373,0.674326
01569,206219,0.024030,0.083554,9.892994,-0.000959,-0.005858,0.000457,0.057606,-0.249474,-1.053775,0.548675,0.015087,0.673869
01570,206319,0.026088,0.087537,9.892487,0.000880,-0.001287,0.001048,0.057662,-0.248832,-1.056749,0.548091,0.013407,0.674354
01571,206419,0.026934,0.102696,9.882616,0.001389,-0.000075,0.000883,0.060637,-0.251394,-1.056375,0.548128,0.012777,0.674028
01572,206519,0.037310,0.114716,9.850282,-0.000831,-0.000547,0.000744,0.059669,-0.251306,-1.057875,0.546841,0.011759,0.674095
01573,206619,0.023442,0.098590,9.891938,0.002981,-0.000596,0.000170,0.061081,-0.250550,-1.053325,0.547779,0.010902,0.672682
01574,206719,0.005605,0.100621,9.882444,0.000895,0.000085,0.001423,0.061126,-0.246468,-1.055121,0.546965,0.010407,0.672460
01575,206819,0.012329,0.088571,9.868520,0.002031,0.001043,0.001219,0.062088,-0.249545,-1.053774,0.547223,0.010591,0.671557
01576,206919,-0.001032,0.092152,9.869480,0.001387,-0.001670,0.000372,0.058125,-0.247939,-1.054698,0.546884,0.008767,0.671210
01577,207019,0.035006,0.112925,9.886216,0.001778,-0.000605,0.000548,0.060139,-0.251386,-1.056375,0.547147,0.007785,0.670722
01578,207119,0.024343,0.109074,9.880566,0.001763,0.000979,0.001301,0.058618,-0.250937,-1.054851,0.547389,0.007540,0.670702
01579,207219,0.038519,0.099646,9.868007,0.001792,0.002269,0.002104,0.060088,-0.249040,-1.053250,0.547463,0.008198,0.670624
01580,207319,0.031000,0.098801,9.879928,0.003146,0.004246,0.002312,0.059123,-0.251917,-1.055401,0.548600,0.009872,0.671154
01581,207419,0.026189,0.096263,9.884328,0.001132,0.004764,0.002885,0.055676,-0.250270,-1.057325,0.548321,0.011429,0.673196
01582,207519,0.024930,0.096384,9.874725,0.002602,0.004170,0.002019,0.058676,-0.249297,-1.057774,0.548751,0.012981,0.674265
01583,207619,0.012948,0.097833,9.884732,0.002500,0.003592,0.001314,0.060115,-0.249466,-1.054774,0.549232,0.014384,0.674037
01584,207719,0.025373,0.128278,9.870988,0.000432,0.001846,0.000885,0.058637,-0.250390,-1.055825,0.548613,0.014618,0.674018
01585,207819,0.035811,0.113782,9.882659,0.000177,0.000612,0.002044,0.060585,-0.249546,-1.053275,0.547822,0.014371,0.673785
01586,207919,0.025327,0.104419,9.910029,0.000806,0.001943,0.002906,0.057676,-0.251773,-1.057901,0.547528,0.014534,0.675448
