PacketCounter,SampleTimeFine,Acc_X,Acc_Y,Acc_Z,Gyr_X,Gyr_Y,Gyr_Z,Mag_X,Mag_Y,Mag_Z,Roll,Pitch,Yaw
00715,108178,9.671502,0.424212,1.098851,0.069135,-0.106102,-0.012213,-0.408212,0.081207,-0.356018,-12.578278,-84.213164,12.516202
00716,108278,9.767067,0.494250,1.065586,0.062059,-0.096989,-0.007169,-0.408708,0.082710,-0.355942,-12.612152,-84.268721,12.585861
00717,108378,9.877323,0.536156,1.104355,0.050518,-0.088976,-0.006178,-0.407165,0.083803,-0.358390,-12.648514,-84.319671,12.651372
00718,108478,9.902699,0.477032,1.168322,0.035198,-0.087277,-0.006513,-0.407190,0.085723,-0.356789,-12.689971,-84.369701,12.713181
00719,108578,9.871366,0.442743,1.245148,0.030871,-0.087124,-0.007674,-0.410186,0.086743,-0.356239,-12.727436,-84.419773,12.768486
00720,108678,9.782280,0.374409,1.292807,0.024898,-0.085090,-0.004176,-0.410194,0.087218,-0.355714,-12.786191,-84.468239,12.841740
00721,108778,9.685856,0.316832,1.272546,0.012369,-0.075195,0.002049,-0.413179,0.089756,-0.355588,-12.875920,-84.510352,12.938895
00722,108878,9.641637,0.291302,1.223803,0.005467,-0.051631,0.009182,-0.411200,0.092167,-0.354461,-12.980584,-84.538357,13.047079
00723,108978,9.584532,0.351645,1.208400,0.002721,-0.033364,0.023202,-0.413626,0.092376,-0.357960,-13.144657,-84.554308,13.213359
00724,109078,9.660366,0.457642,1.107749,0.000505,-0.013735,0.030597,-0.413629,0.090383,-0.358062,-13.326510,-84.558287,13.396227
00725,109178,9.741943,0.562982,1.037521,-0.013864,-0.000044,0.035392,-0.415229,0.094103,-0.351861,-13.525018,-84.553943,13.587558
00726,109278,9.830528,0.634914,1.038161,-0.043413,0.002718,0.036049,-0.414668,0.097727,-0.354682,-13.739336,-84.547911,13.777772
00727,109378,9.849268,0.631512,1.119580,-0.069778,0.005613,0.034420,-0.416660,0.098257,-0.354658,-13.953928,-84.540422,13.953093
00728,109478,9.836331,0.622239,1.174222,-0.094257,0.010236,0.033558,-0.417163,0.100732,-0.354031,-14.169516,-84.530413,14.115334
00729,109578,9.787611,0.523051,1.149360,-0.124942,0.017122,0.029744,-0.418140,0.100796,-0.355031,-14.369109,-84.517055,14.243854
00730,109678,9.706859,0.384811,1.072820,-0.146707,0.020112,0.027324,-0.418132,0.100322,-0.355556,-14.561477,-84.502338,14.352593
00731,109778,9.648600,0.241142,1.006387,-0.157568,0.020088,0.026705,-0.418126,0.108768,-0.354624,-14.755408,-84.487685,14.456657
00732,109878,9.568669,0.099299,0.968482,-0.143231,0.008254,0.022921,-0.419080,0.106413,-0.357251,-14.936510,-84.480105,14.556088
00733,109978,9.504315,-0.016082,0.952891,-0.115296,-0.004501,0.017669,-0.421074,0.110904,-0.356523,-15.090737,-84.480331,14.644600
00734,110078,9.497505,-0.159683,0.953894,-0.083175,-0.010175,0.008881,-0.422085,0.113363,-0.355397,-15.185111,-84.484983,14.691469
00735,110178,9.550452,-0.311526,1.034251,-0.051400,0.006359,0.001981,-0.424593,0.113853,-0.354372,-15.196281,-84.481508,14.673036
00736,110278,9.725289,-0.438519,1.096019,-0.036890,0.046707,-0.001661,-0.425092,0.113363,-0.354398,-15.116244,-84.456241,14.571320
00737,110378,9.881391,-0.521264,1.100011,-0.044172,0.085959,-0.003261,-0.426101,0.116818,-0.353220,-14.972891,-84.409451,14.401788
00738,110478,9.989007,-0.533645,1.091816,-0.061756,0.104289,0.001238,-0.424558,0.117911,-0.355668,-14.840524,-84.351790,14.233154
00739,110578,10.059048,-0.419931,1.132752,-0.071837,0.108972,0.012889,-0.424081,0.116360,-0.354745,-14.774939,-84.289780,14.125810
00740,110678,10.099174,-0.278888,1.169601,-0.071395,0.103292,0.024400,-0.424581,0.120828,-0.354017,-14.782346,-84.229211,14.092069
00741,110778,10.091855,-0.166626,1.166883,-0.068191,0.093776,0.029257,-0.426008,0.122017,-0.357465,-14.828181,-84.173188,14.098797
00742,110878,10.084968,-0.221852,1.123618,-0.058581,0.084711,0.024047,-0.425023,0.120981,-0.357016,-14.852984,-84.122938,14.089920
00743,110978,10.009467,-0.307103,1.155053,-0.036695,0.091482,0.014042,-0.425040,0.121431,-0.355990,-14.802348,-84.070389,14.017807
00744,111078,10.009586,-0.347867,1.198146,-0.013410,0.115100,0.002614,-0.426536,0.120956,-0.356016,-14.646537,-84.006385,13.853354
00745,111178,10.155203,-0.294952,1.298060,-0.003979,0.157089,-0.006647,-0.425540,0.120442,-0.356041,-14.384061,-83.920336,13.587054
00746,111278,10.255337,-0.148351,1.299754,-0.010012,0.194658,-0.009255,-0.425019,0.122973,-0.356914,-14.070507,-83.813632,13.265860
00747,111378,10.269336,-0.102102,1.199096,-0.027709,0.216853,-0.016811,-0.424504,0.122515,-0.357939,-13.712255,-83.695416,12.889436
00748,111478,10.218802,-0.111073,1.161182,-0.047119,0.218767,-0.012683,-0.426471,0.121125,-0.359515,-13.396704,-83.575339,12.544706
00749,111578,10.119164,-0.123151,1.206982,-0.062003,0.216320,-0.006256,-0.422962,0.122612,-0.360437,-13.135725,-83.455586,12.246238
00750,111678,9.996590,-0.187619,1.304108,-0.065283,0.213108,-0.002712,-0.420473,0.122074,-0.360462,-12.907129,-83.337010,11.978410
00751,111778,9.886833,-0.271608,1.449630,-0.063501,0.216890,0.001025,-0.422426,0.123697,-0.362386,-12.699817,-83.215703,11.732979
00752,111878,9.892258,-0.340199,1.530548,-0.061374,0.230843,0.005717,-0.420422,0.124686,-0.362834,-12.506736,-83.085875,11.503046
00753,111978,9.905880,-0.244281,1.601967,-0.067967,0.259583,0.000925,-0.419432,0.126141,-0.362258,-12.275201,-82.940417,11.230503
00754,112078,9.896712,-0.205150,1.575558,-0.075189,0.295878,-0.008580,-0.419403,0.127209,-0.363706,-11.981697,-82.775591,10.891247
00755,112178,9.818496,-0.223650,1.464938,-0.091511,0.320954,-0.009888,-0.419394,0.126735,-0.364232,-11.683532,-82.596621,10.537739
00756,112278,9.761154,-0.245059,1.370883,-0.109078,0.330594,-0.010544,-0.420340,0.129363,-0.366604,-11.399805,-82.412079,10.188499
00757,112378,9.763582,-0.329027,1.328572,-0.118020,0.323127,-0.001825,-0.417850,0.128326,-0.366654,-11.178254,-82.230551,9.896685
00758,112478,9.674945,-0.384009,1.261322,-0.112633,0.313147,0.015249,-0.417824,0.127900,-0.368179,-11.042114,-82.052629,9.694082
00759,112578,9.568129,-0.462987,1.267549,-0.097403,0.285673,0.032959,-0.417838,0.130343,-0.367052,-10.995728,-81.888177,9.590853
00760,112678,9.448115,-0.525971,1.074220,-0.103369,0.256559,0.042750,-0.417781,0.130986,-0.370025,-11.015680,-81.739043,9.551151
00761,112778,9.474874,-0.532044,1.132035,-0.073998,0.232226,0.051369,-0.419244,0.133075,-0.371424,-11.070417,-81.602665,9.563597
00762,112878,9.482238,-0.585896,1.211196,-0.056109,0.200554,0.056608,-0.418736,0.133590,-0.371898,-11.157186,-81.483522,9.618793
00763,112978,9.570232,-0.636312,1.177953,-0.054520,0.170228,0.058506,-0.415737,0.133566,-0.372397,-11.270741,-81.381211,9.702011
00764,113078,9.580563,-0.709686,1.182539,-0.046835,0.138962,0.060615,-0.415684,0.137672,-0.374692,-11.408742,-81.296215,9.814428
00765,113178,9.673306,-0.734059,1.183891,-0.033254,0.122903,0.068363,-0.417150,0.138267,-0.376167,-11.576981,-81.219322,9.965330
00766,113278,9.695937,-0.770586,1.170738,-0.026063,0.126875,0.073801,-0.415662,0.139714,-0.375591,-11.755296,-81.139519,10.130626
00767,113378,9.651943,-0.790086,1.160551,-0.015515,0.127246,0.080700,-0.414644,0.141241,-0.376514,-11.949185,-81.058634,10.317833
00768,113478,9.572887,-0.795646,1.152700,-0.007219,0.117510,0.091432,-0.413675,0.141651,-0.374989,-12.180541,-80.981830,10.547820
00769,113578,9.482802,-0.699969,1.060966,-0.006999,0.091592,0.100064,-0.413662,0.143668,-0.375387,-12.458361,-80.918349,10.825024
00770,113678,9.351590,-0.640548,0.983955,-0.011760,0.054627,0.103940,-0.413567,0.144905,-0.380334,-12.777866,-80.874858,11.141721
00771,113778,9.221247,-0.563766,0.938082,-0.012319,0.004761,0.103739,-0.414044,0.146456,-0.381258,-13.134428,-80.858979,11.495647
00772,113878,9.138562,-0.489429,0.925082,-0.007925,-0.045886,0.098933,-0.413616,0.148746,-0.377132,-13.512875,-80.871652,11.874288
00773,113978,9.134835,-0.416063,0.971993,0.001523,-0.079502,0.092272,-0.412584,0.148329,-0.379156,-13.892816,-80.903578,12.259898
00774,114078,9.178221,-0.395463,0.988552,0.010444,-0.095714,0.080699,-0.409120,0.150692,-0.377529,-14.244477,-80.945769,12.622004
00775,114178,9.260360,-0.428000,0.987203,0.012288,-0.100189,0.068828,-0.413126,0.149213,-0.376606,-14.561093,-80.991836,12.949647
00776,114278,9.377315,-0.463063,1.016247,0.007632,-0.099658,0.058933,-0.410606,0.150242,-0.378054,-14.848583,-81.038807,13.245055
00777,114378,9.451127,-0.505369,1.004978,0.001222,-0.102822,0.051949,-0.409142,0.149149,-0.376605,-15.121362,-81.088370,13.521812
00778,114478,9.537351,-0.550079,1.021446,-0.011761,-0.119918,0.052347,-0.409128,0.151664,-0.376978,-15.422958,-81.147134,13.820159
00779,114578,9.571923,-0.558921,1.055047,-0.029249,-0.131487,0.054852,-0.412163,0.151592,-0.374480,-15.759336,-81.211665,14.143511
00780,114678,9.516561,-0.498718,1.028639,-0.038466,-0.139915,0.058327,-0.411579,0.152797,-0.378927,-16.127216,-81.280013,14.493331
00781,114778,9.484896,-0.405371,1.025080,-0.050940,-0.156340,0.057694,-0.411615,0.153697,-0.376877,-16.523296,-81.357165,14.864378
00782,114878,9.416467,-0.375400,0.972063,-0.066272,-0.165106,0.052073,-0.411642,0.154123,-0.375352,-16.924398,-81.439692,15.231538
00783,114978,9.322964,-0.337188,1.027167,-0.068655,-0.178214,0.044919,-0.412151,0.153111,-0.374904,-17.323095,-81.530241,15.594800
00784,115078,9.334938,-0.362673,1.133792,-0.062358,-0.179092,0.038045,-0.411694,0.155972,-0.372252,-17.701964,-81.622102,15.941577
00785,115178,9.408944,-0.474381,1.171129,-0.044717,-0.154765,0.034693,-0.413177,0.157514,-0.372676,-18.036616,-81.700974,16.253800
00786,115278,9.562788,-0.647608,1.183071,-0.013419,-0.122461,0.035808,-0.410216,0.157394,-0.371176,-18.323538,-81.761819,16.535854
00787,115378,9.741169,-0.894360,1.159018,0.033485,-0.097558,0.038958,-0.411170,0.160496,-0.373023,-18.568297,-81.808367,16.802414
00788,115478,9.917188,-1.105021,1.085004,0.084637,-0.104211,0.049764,-0.411731,0.155875,-0.370253,-18.836569,-81.856371,17.122296
00789,115578,9.992371,-1.276369,1.045955,0.127955,-0.144205,0.063934,-0.412123,0.158639,-0.375624,-19.190921,-81.923147,17.554143
00790,115678,9.991875,-1.381568,1.050056,0.168441,-0.202430,0.081120,-0.413677,0.156525,-0.372727,-19.674993,-82.017656,18.140322
00791,115778,9.933180,-1.426397,1.151273,0.203295,-0.264064,0.098571,-0.409643,0.157579,-0.375174,-20.308714,-82.141113,18.897585
00792,115878,9.978035,-1.407485,1.243227,0.225699,-0.303260,0.112063,-0.411197,0.155465,-0.372277,-21.064806,-82.281550,19.791064
00793,115978,10.071197,-1.337201,1.426308,0.231499,-0.299644,0.121799,-0.413152,0.155593,-0.374277,-21.881435,-82.416302,20.748676
00794,116078,10.197631,-1.210003,1.601197,0.224842,-0.233631,0.124062,-0.411215,0.155915,-0.371252,-22.631636,-82.513750,21.635168
00795,116178,10.215233,-0.924115,1.654556,0.207430,-0.146449,0.119202,-0.405697,0.156423,-0.373224,-23.241347,-82.564845,22.369755
00796,116278,10.214329,-0.625047,1.685249,0.177833,-0.077375,0.108337,-0.408216,0.156390,-0.371726,-23.710223,-82.581179,22.945156
00797,116378,10.238973,-0.413762,1.723187,0.143114,-0.044308,0.097067,-0.404242,0.155306,-0.371275,-24.096092,-82.582217,23.416779
00798,116478,10.337021,-0.235327,1.794868,0.112956,-0.036810,0.082399,-0.403224,0.156833,-0.372199,-24.426583,-82.582377,23.815135
00799,116578,10.378509,-0.113713,1.810998,0.088603,-0.038391,0.069448,-0.404241,0.155805,-0.371250,-24.721775,-82.586137,24.163826
00800,116678,10.305439,-0.020761,1.817377,0.071921,-0.047642,0.055287,-0.405254,0.156769,-0.370200,-24.987070,-82.597869,24.472729
00801,116778,10.136371,0.000433,1.797657,0.060516,-0.056819,0.043249,-0.403774,0.153732,-0.369852,-25.228526,-82.617085,24.750998
00802,116878,9.910436,-0.071900,1.826890,0.058183,-0.067153,0.028762,-0.403803,0.153161,-0.368378,-25.433919,-82.645031,24.991547
00803,116978,9.639932,-0.186920,1.804729,0.064260,-0.070968,0.014891,-0.408280,0.151263,-0.368981,-25.588758,-82.678235,25.184620
00804,117078,9.362365,-0.263100,1.754434,0.073160,-0.073859,0.003006,-0.406311,0.154149,-0.367328,-25.697404,-82.715781,25.336252
00805,117178,9.120452,-0.353591,1.680478,0.076584,-0.073122,-0.008906,-0.407863,0.153032,-0.364381,-25.755412,-82.755840,25.438803
00806,117278,8.921496,-0.420158,1.560418,0.068940,-0.080533,-0.020145,-0.408846,0.155065,-0.364779,-25.787295,-82.802473,25.510596
00807,117378,8.863004,-0.523403,1.501670,0.057723,-0.087959,-0.023634,-0.412343,0.154598,-0.364306,-25.826651,-82.853764,25.583435
00808,117478,8.906342,-0.595372,1.414166,0.051747,-0.091719,-0.020431,-0.411318,0.155152,-0.365780,-25.891053,-82.906151,25.678055
00809,117578,9.136225,-0.690087,1.360967,0.047541,-0.098287,-0.011642,-0.412869,0.154533,-0.362807,-26.009103,-82.959668,25.824293
00810,117678,9.345807,-0.715421,1.319055,0.037886,-0.104595,-0.002069,-0.414378,0.156502,-0.361706,-26.187977,-83.013943,26.026220
00811,117778,9.485486,-0.754727,1.372869,0.027543,-0.114147,0.002141,-0.417338,0.157120,-0.363181,-26.413654,-83.071935,26.269301
00812,117878,9.553544,-0.692285,1.470497,0.015243,-0.119230,-0.002120,-0.418396,0.158960,-0.359581,-26.643092,-83.133468,26.509039
00813,117978,9.583596,-0.657557,1.524223,0.002094,-0.112958,-0.008900,-0.417917,0.158405,-0.358607,-26.841652,-83.193391,26.710059
00814,118078,9.593856,-0.613039,1.513292,-0.013521,-0.095788,-0.017818,-0.421353,0.161571,-0.360954,-26.976464,-83.246745,26.837849
00815,118178,9.599040,-0.593047,1.412293,-0.026472,-0.080773,-0.027656,-0.421911,0.163901,-0.357329,-27.044741,-83.294936,26.891155
00816,118278,9.689876,-0.612765,1.241799,-0.014711,-0.061539,-0.035243,-0.420889,0.162961,-0.358879,-27.031071,-83.335266,26.868733
00817,118378,9.729042,-0.661880,1.098490,-0.000232,-0.057815,-0.043157,-0.421944,0.161338,-0.355957,-26.965830,-83.375741,26.802742
00818,118478,9.722455,-0.704462,0.968024,0.016872,-0.070329,-0.049056,-0.422922,0.160903,-0.356982,-26.892106,-83.424127,26.738082
00819,118578,9.671767,-0.669752,0.973584,0.043362,-0.102693,-0.050014,-0.425905,0.158982,-0.357584,-26.871266,-83.489291,26.741934
00820,118678,9.616132,-0.659550,1.116128,0.061759,-0.150647,-0.053408,-0.424923,0.161409,-0.356457,-26.934637,-83.579823,26.841142
00821,118778,9.619551,-0.620446,1.230079,0.067397,-0.186916,-0.057447,-0.423964,0.161297,-0.354458,-27.063815,-83.689879,27.009795
00822,118878,9.619103,-0.562365,1.378884,0.074359,-0.212054,-0.061779,-0.425487,0.160750,-0.352984,-27.234588,-83.813802,27.224263
00823,118978,9.628865,-0.478019,1.500709,0.078789,-0.211313,-0.067873,-0.425491,0.158757,-0.353086,-27.379460,-83.938844,27.415185
00824,119078,9.572427,-0.435417,1.491122,0.075819,-0.188324,-0.076722,-0.428936,0.161400,-0.354959,-27.431256,-84.054450,27.510763
00825,119178,9.490467,-0.431736,1.471404,0.073318,-0.163951,-0.082517,-0.426975,0.159303,-0.353561,-27.395378,-84.159148,27.516740
00826,119278,9.432614,-0.407761,1.467653,0.077955,-0.147194,-0.084772,-0.426976,0.158805,-0.353586,-27.300760,-84.255870,27.466346
00827,119378,9.368896,-0.350541,1.484053,0.083995,-0.141902,-0.086542,-0.429527,0.156209,-0.350715,-27.176764,-84.350309,27.389913
00828,119478,9.340064,-0.336832,1.416851,0.087614,-0.153784,-0.089041,-0.429498,0.156780,-0.352189,-27.065786,-84.451408,27.328657
00829,119578,9.346097,-0.318909,1.406906,0.094490,-0.183294,-0.087899,-0.430499,0.159262,-0.351563,-27.034132,-84.567222,27.351057
00830,119678,9.328540,-0.334717,1.434686,0.098896,-0.217483,-0.085793,-0.428504,0.155269,-0.352265,-27.106978,-84.699887,27.480950
00831,119778,9.335535,-0.333582,1.510240,0.102231,-0.238129,-0.083787,-0.431521,0.155244,-0.350766,-27.254022,-84.842479,27.687238
00832,119878,9.317704,-0.313127,1.568445,0.095974,-0.241338,-0.083956,-0.429105,0.155012,-0.346767,-27.423048,-84.986642,27.911948
00833,119978,9.258859,-0.315882,1.619987,0.086554,-0.231576,-0.084817,-0.434556,0.155171,-0.348268,-27.573253,-85.125956,28.112299
00834,120078,9.164823,-0.309919,1.624481,0.068302,-0.225601,-0.085429,-0.432611,0.159977,-0.345015,-27.720965,-85.262293,28.299611
00835,120178,9.120546,-0.321546,1.685151,0.050251,-0.214812,-0.087491,-0.432569,0.157607,-0.347641,-27.839778,-85.393606,28.447514
00836,120278,9.136504,-0.327454,1.769702,0.038318,-0.204462,-0.088375,-0.432575,0.159575,-0.347040,-27.931632,-85.519815,28.561485
00837,120378,9.272565,-0.386669,1.852050,0.035624,-0.189945,-0.086171,-0.433097,0.156546,-0.346192,-27.993872,-85.637988,28.644185
00838,120478,9.575817,-0.472802,1.926624,0.040974,-0.169884,-0.082999,-0.430574,0.159070,-0.347564,-28.005444,-85.745063,28.679131
00839,120578,9.878528,-0.544030,2.012069,0.039054,-0.148900,-0.078680,-0.433152,0.156401,-0.343194,-27.971237,-85.840258,28.667065
00840,120678,10.073448,-0.600628,2.075029,0.027102,-0.124227,-0.079773,-0.433160,0.157374,-0.342643,-27.841730,-85.923146,28.552585
00841,120778,10.062878,-0.603339,2.163511,0.009973,-0.097407,-0.080125,-0.433161,0.156876,-0.342669,-27.612060,-85.992384,28.327862
00842,120878,10.019230,-0.507522,2.361666,0.002200,-0.076528,-0.081938,-0.431126,0.154473,-0.345294,-27.285182,-86.051280,28.001246
00843,120978,9.880687,-0.383978,2.485073,-0.020481,-0.046013,-0.086987,-0.433219,0.155735,-0.339720,-26.806788,-86.095628,27.509749
00844,121078,9.696625,-0.263657,2.492770,-0.034796,-0.014734,-0.093240,-0.432185,0.155815,-0.341719,-26.159900,-86.125069,26.841168
00845,121178,9.467087,-0.193431,2.480704,-0.038239,0.006470,-0.097374,-0.432199,0.153300,-0.341347,-25.394758,-86.143910,26.052102
00846,121278,9.273480,-0.188951,2.430492,-0.021693,0.011628,-0.102779,-0.435159,0.153918,-0.342822,-24.551434,-86.160505,25.194192
00847,121378,9.187495,-0.253328,2.343037,0.009429,0.002381,-0.109646,-0.436201,0.148855,-0.341076,-23.660191,-86.182548,24.306142
00848,121478,9.278943,-0.331593,2.312441,0.043884,-0.017357,-0.115865,-0.433710,0.148815,-0.341076,-22.754853,-86.215333,23.423776
00849,121578,9.426960,-0.471890,2.215170,0.083019,-0.041015,-0.118069,-0.434250,0.146734,-0.339179,-21.870403,-86.260103,22.584848
00850,121678,9.563099,-0.581736,2.151819,0.113579,-0.058161,-0.121253,-0.435219,0.146324,-0.340703,-20.975617,-86.313708,21.753149
00851,121778,9.633605,-0.636845,2.079466,0.131256,-0.078106,-0.119407,-0.436238,0.143800,-0.339831,-20.122936,-86.376702,20.973837
00852,121878,9.627775,-0.669274,2.122421,0.136552,-0.107739,-0.115900,-0.434805,0.140643,-0.336984,-19.359525,-86.454175,20.287065
00853,121978,9.619210,-0.623448,2.250183,0.136766,-0.135715,-0.112066,-0.437285,0.141205,-0.337460,-18.682801,-86.545414,19.687320
00854,122078,9.663172,-0.559797,2.461249,0.134817,-0.148151,-0.105227,-0.437281,0.138239,-0.338112,-18.073457,-86.641622,19.154008
00855,122178,9.761427,-0.411681,2.614858,0.129989,-0.145707,-0.098774,-0.437375,0.137500,-0.333139,-17.487236,-86.734880,18.641131
00856,122278,9.848928,-0.296525,2.675238,0.107020,-0.132851,-0.092580,-0.440371,0.138520,-0.332589,-16.903999,-86.819594,18.118100
00857,122378,9.935019,-0.316272,2.633209,0.077562,-0.122839,-0.089011,-0.437334,0.134631,-0.335790,-16.313528,-86.897769,17.570955
00858,122478,9.892226,-0.219464,2.571867,0.053155,-0.118993,-0.085465,-0.438904,0.133964,-0.331818,-15.732916,-86.972811,17.019712
00859,122578,9.996594,-0.238430,2.548574,0.040472,-0.094625,-0.091878,-0.439857,0.132107,-0.334419,-14.991503,-87.034874,16.300199
00860,122678,10.217165,-0.318717,2.354744,0.049896,-0.059860,-0.094219,-0.438889,0.131521,-0.332944,-14.091868,-87.077320,15.427688
00861,122778,10.527588,-0.484439,2.056499,0.072074,-0.036497,-0.095484,-0.438425,0.128451,-0.331597,-13.079330,-87.106063,14.454872
00862,122878,10.791331,-0.691605,1.569820,0.100229,-0.039594,-0.093668,-0.444368,0.126650,-0.333700,-12.059337,-87.135361,13.490762
00863,122978,10.859375,-0.924932,1.161309,0.125840,-0.088665,-0.085003,-0.438924,0.127961,-0.331623,-11.214535,-87.190363,12.716778
00864,123078,10.854127,-0.913871,0.987948,0.165566,-0.166651,-0.075882,-0.438488,0.124321,-0.328802,-10.593948,-87.287730,12.190103
00865,123178,11.076100,-0.828231,0.994226,0.215382,-0.226990,-0.076518,-0.440495,0.121339,-0.328455,-10.027431,-87.418881,11.746174
00866,123278,11.336341,-0.799430,1.006806,0.257113,-0.238235,-0.086971,-0.440972,0.122392,-0.329404,-9.269714,-87.557116,11.134836
00867,123378,11.539296,-0.841891,0.889547,0.278620,-0.232937,-0.104479,-0.442505,0.116365,-0.328210,-8.161092,-87.693399,10.184683
00868,123478,11.586624,-0.842541,0.808958,0.288406,-0.236085,-0.115491,-0.439041,0.113770,-0.327336,-6.759601,-87.831384,8.947134
00869,123578,11.569444,-0.652429,0.982912,0.284250,-0.247681,-0.120676,-0.437621,0.108595,-0.324091,-5.116717,-87.974929,7.465758
00870,123678,11.635969,-0.337629,1.318260,0.256406,-0.227918,-0.121396,-0.439610,0.105164,-0.324769,-3.221614,-88.105419,5.716170
00871,123778,11.709645,0.015296,1.660416,0.200341,-0.163290,-0.113434,-0.435149,0.103549,-0.323844,-1.213518,-88.196532,3.821497
00872,123878,11.586668,0.308449,1.676437,0.121591,-0.076293,-0.110698,-0.433177,0.101975,-0.322921,0.877310,-88.235460,1.798968
00873,123978,11.262678,0.463695,1.469453,0.032206,-0.004899,-0.107059,-0.436670,0.099041,-0.323074,2.870776,-88.231228,-0.177379
00874,124078,10.754816,0.556472,1.194559,-0.063173,0.043496,-0.100718,-0.435219,0.095433,-0.321252,4.610080,-88.197528,-1.954141
00875,124178,10.173729,0.778807,0.772413,-0.148647,0.067562,-0.108853,-0.435712,0.092974,-0.321879,6.333182,-88.147982,-3.763738
00876,124278,9.511507,0.840547,0.187978,-0.237580,0.088180,-0.107183,-0.436241,0.091415,-0.320457,7.836897,-88.085252,-5.404874
00877,124378,8.910938,1.026558,-0.353664,-0.311116,0.062607,-0.104177,-0.434715,0.093457,-0.321854,9.220092,-88.035997,-6.967632
00878,124478,8.398699,1.167063,-0.802835,-0.372087,-0.006610,-0.093919,-0.437192,0.090555,-0.323006,10.542732,-88.025686,-8.504781
00879,124578,8.040694,1.314188,-1.131957,-0.425344,-0.093304,-0.083530,-0.438226,0.090474,-0.321007,11.954304,-88.064119,-10.161432
00880,124678,7.893194,1.443285,-1.277962,-0.449871,-0.183563,-0.078186,-0.437763,0.096325,-0.318203,13.699629,-88.152216,-12.166012
00881,124778,7.920637,1.594611,-1.267002,-0.431216,-0.247991,-0.077871,-0.439258,0.095850,-0.318229,15.972846,-88.273796,-14.687926
00882,124878,8.139853,1.681314,-1.156451,-0.399834,-0.272631,-0.082370,-0.435277,0.098752,-0.317576,18.878090,-88.404507,-17.823973
00883,124978,8.685299,1.505689,-0.937584,-0.358420,-0.270241,-0.085310,-0.440309,0.102175,-0.314401,22.380602,-88.528146,-21.533572
00884,125078,9.481517,1.227480,-0.628387,-0.283012,-0.252631,-0.078624,-0.439776,0.105726,-0.315722,26.239185,-88.637589,-25.555937
00885,125178,10.265521,0.973233,-0.354638,-0.189234,-0.220454,-0.066437,-0.442285,0.106216,-0.314698,30.123774,-88.727128,-29.550406
00886,125278,10.912866,0.816543,-0.219983,-0.113969,-0.179458,-0.058200,-0.444717,0.112853,-0.316868,33.808860,-88.792981,-33.302071
00887,125378,11.326959,0.614437,-0.035747,-0.069907,-0.134733,-0.050891,-0.443748,0.113263,-0.315342,36.993839,-88.835383,-36.528199
00888,125478,11.571927,0.439161,0.042552,-0.055430,-0.104287,-0.040391,-0.448219,0.114853,-0.315767,39.617618,-88.864390,-39.184678
00889,125578,11.512310,0.318200,-0.003394,-0.070428,-0.118481,-0.022275,-0.446746,0.118245,-0.314090,42.252132,-88.903887,-41.860458
00890,125678,11.158159,0.261725,-0.076626,-0.139203,-0.182718,0.000743,-0.450650,0.117030,-0.318665,45.977013,-88.976090,-45.666151
00891,125778,10.668049,0.330609,0.086025,-0.222327,-0.253907,0.019375,-0.448692,0.118397,-0.316589,51.726975,-89.077213,-51.544747
00892,125878,10.171346,0.539708,0.401593,-0.273748,-0.299586,0.027263,-0.449224,0.120301,-0.314489,60.189828,-89.183753,-60.165838
00893,125978,9.699306,0.795498,0.652063,-0.296765,-0.305867,0.031218,-0.453729,0.118829,-0.313566,71.083672,-89.270408,-71.231124
00894,126078,9.311747,1.016579,0.817350,-0.307180,-0.285863,0.023398,-0.453272,0.121691,-0.310915,83.361921,-89.318281,-83.686725
00895,126178,9.034416,1.056473,0.842677,-0.308527,-0.244788,0.015913,-0.450763,0.121201,-0.311939,94.730355,-89.328804,-95.233151
00896,126278,8.793657,0.944310,0.816691,-0.294739,-0.190852,0.002845,-0.454737,0.122285,-0.312389,103.350046,-89.312869,-104.022755
00897,126378,8.696088,0.806721,0.769224,-0.264187,-0.141963,-0.008297,-0.454237,0.123772,-0.312313,109.131486,-89.285703,-109.956436
00898,126478,8.725813,0.659278,0.694748,-0.236980,-0.106795,-0.010804,-0.453241,0.123258,-0.312338,112.980843,-89.258451,-113.942328
00899,126578,8.780635,0.527673,0.635168,-0.232288,-0.074168,-0.005831,-0.452266,0.127156,-0.310635,115.374257,-89.238748,-116.469489
00900,126678,8.676149,0.553809,0.594543,-0.240097,-0.046291,0.000321,-0.453253,0.127195,-0.311136,116.703809,-89.228158,-117.937179
00901,126778,8.544393,0.642249,0.561055,-0.255412,-0.038561,0.007706,-0.453737,0.129718,-0.311508,117.841404,-89.222930,-119.221674
00902,126878,8.392516,0.696825,0.485733,-0.264186,-0.044201,0.012828,-0.450726,0.131712,-0.312405,119.265787,-89.218332,-120.798015
00903,126978,8.287746,0.712203,0.436667,-0.258970,-0.058303,0.017858,-0.450226,0.132701,-0.312355,121.283429,-89.211490,-122.964687
00904,127078,8.299982,0.695722,0.487615,-0.247784,-0.073202,0.023779,-0.452712,0.135231,-0.312228,123.911413,-89.201696,-125.735355
00905,127178,8.512302,0.715134,0.493963,-0.227470,-0.071490,0.030789,-0.452703,0.135255,-0.312728,126.590655,-89.193972,-128.545654
00906,127278,8.834085,0.754888,0.523956,-0.200788,-0.042393,0.040673,-0.453213,0.139201,-0.311525,128.556663,-89.199306,-130.627362
00907,127378,9.236572,0.762625,0.559693,-0.161114,0.011303,0.051272,-0.452724,0.139169,-0.311025,129.126147,-89.228010,-131.289673
00908,127478,9.553010,0.749127,0.515232,-0.106175,0.075086,0.054736,-0.450225,0.143613,-0.310796,127.634818,-89.281021,-129.859510
00909,127578,9.707170,0.664451,0.505032,-0.047733,0.118220,0.054598,-0.451666,0.142785,-0.313846,124.182011,-89.347624,-126.434258
00910,127678,9.795481,0.540811,0.625658,-0.002102,0.145192,0.054134,-0.451681,0.144730,-0.312745,118.657177,-89.418691,-120.910758
00911,127778,9.903485,0.529847,0.765039,0.012320,0.173538,0.059503,-0.448133,0.147310,-0.315615,110.110761,-89.491561,-112.357346
00912,127878,10.011744,0.617069,0.840893,0.003200,0.211590,0.072888,-0.449659,0.145767,-0.314193,96.390648,-89.560097,-98.635380
00913,127978,9.932123,0.792383,0.788090,-0.006175,0.257245,0.088477,-0.446141,0.147279,-0.315615,75.115346,-89.598506,-77.363495
00914,128078,9.723437,0.849473,0.776808,0.004538,0.294354,0.094403,-0.448592,0.148909,-0.317539,50.511335,-89.565214,-52.756683
00915,128178,9.534833,0.799528,0.954455,0.038576,0.318411,0.096129,-0.445570,0.146965,-0.319638,31.336866,-89.457242,-33.559861
00916,128278,9.463114,0.780768,1.146081,0.085591,0.333879,0.096029,-0.444052,0.149481,-0.320511,19.183358,-89.301725,-21.357034
00917,128378,9.555358,0.863578,1.229452,0.120196,0.352158,0.101845,-0.446478,0.149191,-0.324035,11.348454,-89.116796,-13.452935
00918,128478,9.626132,0.988375,1.273109,0.123650,0.379041,0.113048,-0.446437,0.151778,-0.325907,5.882471,-88.906333,-7.915696
00919,128578,9.568408,1.097030,1.280313,0.098449,0.414538,0.127016,-0.443938,0.150766,-0.326458,1.827580,-88.668940,-3.803881
00920,128678,9.442287,1.198578,1.358097,0.041628,0.456044,0.133799,-0.444421,0.149328,-0.327533,-1.132310,-88.402906,-0.819554
00921,128778,9.467412,1.226385,1.521894,-0.029763,0.502506,0.143288,-0.442377,0.151907,-0.329905,-3.392821,-88.106820,1.424571
00922,128878,9.657736,1.198553,1.702610,-0.085071,0.547006,0.157710,-0.441339,0.154479,-0.331777,-5.224049,-87.782372,3.207848
00923,128978,9.906138,1.130787,1.796232,-0.096139,0.584563,0.177469,-0.443730,0.158746,-0.336572,-6.792901,-87.433509,4.722599
00924,129078,10.403361,0.909925,1.890308,-0.063645,0.629590,0.200135,-0.438245,0.161648,-0.336418,-8.153817,-87.055798,6.048268
00925,129178,11.048567,0.555126,1.747700,-0.013121,0.696043,0.216619,-0.439682,0.162813,-0.339367,-9.236029,-86.637692,7.124302
00926,129278,11.933279,0.078459,1.231804,0.055939,0.770461,0.224024,-0.439057,0.166107,-0.345712,-9.992882,-86.175934,7.914500
00927,129378,12.817635,-0.308659,0.366118,0.137893,0.799556,0.219170,-0.436528,0.167160,-0.347659,-10.461898,-85.697832,8.463676
00928,129478,13.411091,-0.340587,-0.509975,0.188675,0.735779,0.192195,-0.436960,0.167337,-0.351158,-10.701858,-85.258407,8.812632
00929,129578,13.629617,-0.050685,-1.260735,0.158571,0.621378,0.156866,-0.439873,0.168573,-0.355106,-10.825763,-84.887292,9.028024
00930,129678,13.655679,0.332886,-1.859354,0.044473,0.484594,0.101966,-0.436884,0.168526,-0.355105,-10.821538,-84.599319,9.049234
00931,129778,13.579413,0.387665,-1.938094,-0.104624,0.329485,0.044776,-0.438773,0.169321,-0.360579,-10.742384,-84.405061,8.909378
00932,129878,12.761354,0.218837,-1.893649,-0.188117,0.151918,-0.001018,-0.437284,0.166806,-0.360705,-10.647953,-84.315890,8.706080
00933,129978,11.647827,0.034291,-1.411194,-0.169332,-0.036610,-0.022899,-0.442266,0.171345,-0.359979,-10.621941,-84.335391,8.582348
00934,130078,10.576712,-0.138097,-0.766145,-0.085058,-0.176705,-0.046210,-0.442769,0.168862,-0.360106,-10.563109,-84.436392,8.474168
00935,130178,9.452109,-0.447999,-0.146114,0.025736,-0.274005,-0.067125,-0.439290,0.169280,-0.359579,-10.419926,-84.594464,8.345038
00936,130278,8.539339,-0.702671,0.388501,0.129682,-0.324466,-0.072907,-0.443246,0.170412,-0.361029,-10.229379,-84.781575,8.228177
00937,130378,7.931983,-0.757118,0.850900,0.209011,-0.280607,-0.084661,-0.445239,0.169946,-0.361055,-9.857280,-84.945059,7.974688
00938,130478,7.537527,-0.715255,0.983674,0.273812,-0.155804,-0.104927,-0.443300,0.170766,-0.358005,-9.159165,-85.039704,7.431242
00939,130578,7.356895,-0.633466,0.798667,0.315456,0.036521,-0.124617,-0.445225,0.172461,-0.361428,-8.098020,-85.026355,6.547372
00940,130678,7.425273,-0.642890,0.338243,0.329496,0.231494,-0.142939,-0.441237,0.174391,-0.361325,-6.762760,-84.902029,5.396306
00941,130778,7.867145,-0.603805,0.009415,0.344260,0.355492,-0.164177,-0.440686,0.177991,-0.363646,-5.274139,-84.705940,4.099452
00942,130878,8.485057,-0.522620,-0.090896,0.347886,0.395684,-0.181378,-0.442160,0.179059,-0.364595,-3.765615,-84.484755,2.784258
00943,130978,9.338872,-0.450129,0.092831,0.353191,0.366526,-0.189942,-0.443092,0.178745,-0.368120,-2.322169,-84.277485,1.537037
00944,131078,10.204402,-0.385717,0.388798,0.339610,0.314434,-0.182693,-0.441585,0.180738,-0.368518,-1.026795,-84.097143,0.430409
00945,131178,10.956552,-0.371450,0.686209,0.284429,0.275104,-0.155880,-0.440520,0.182386,-0.371940,0.021253,-83.937005,-0.459669
00946,131278,11.482730,-0.346175,0.775364,0.192672,0.257217,-0.104109,-0.441479,0.182498,-0.373939,0.696153,-83.785982,-1.027581
00947,131378,11.627629,-0.304541,0.735400,0.082971,0.252436,-0.050742,-0.441954,0.185544,-0.374787,1.005508,-83.637697,-1.291128
00948,131478,11.149253,-0.200407,0.569147,-0.011791,0.233608,-0.024671,-0.442411,0.182184,-0.377464,1.118915,-83.500439,-1.412196
00949,131578,10.465430,-0.141447,0.381818,-0.066172,0.181374,-0.025179,-0.442932,0.185109,-0.375812,1.204465,-83.393150,-1.536610
00950,131678,9.743907,-0.158655,0.353919,-0.056764,0.120921,-0.036429,-0.443384,0.185238,-0.378311,1.353606,-83.320391,-1.719639
00951,131778,9.098284,-0.166255,0.431632,-0.010858,0.045517,-0.051085,-0.442383,0.182257,-0.378963,1.606303,-83.290593,-1.980469
00952,131878,8.589793,-0.115066,0.645645,0.043909,-0.035385,-0.060690,-0.446351,0.181870,-0.379989,1.947691,-83.306839,-2.299012
00953,131978,8.211035,-0.058278,0.907800,0.088734,-0.110616,-0.069070,-0.445859,0.183332,-0.379413,2.372346,-83.365745,-2.675509
00954,132078,8.023844,-0.062962,1.070684,0.118912,-0.160263,-0.074813,-0.442838,0.180890,-0.381538,2.862087,-83.452568,-3.100068
00955,132178,8.047787,-0.038608,1.111240,0.141464,-0.181572,-0.075145,-0.440833,0.182378,-0.381961,3.384939,-83.551136,-3.544876
00956,132278,8.100667,-0.032330,1.120224,0.162386,-0.172092,-0.071640,-0.444798,0.183485,-0.382911,3.913434,-83.643942,-3.983221
00957,132378,8.081508,-0.047739,1.058614,0.177199,-0.140664,-0.065609,-0.440304,0.184435,-0.383359,4.420736,-83.718595,-4.391640
00958,132478,8.046680,-0.116717,0.961907,0.187982,-0.112376,-0.060157,-0.442333,0.184370,-0.381360,4.903835,-83.776964,-4.769449
00959,132578,8.070509,-0.096592,0.910610,0.187900,-0.114708,-0.046324,-0.443261,0.186547,-0.384758,5.322929,-83.837057,-5.082885
00960,132678,8.269365,-0.099643,0.844618,0.168489,-0.144156,-0.031403,-0.442792,0.190927,-0.382529,5.673785,-83.914553,-5.338842
00961,132778,8.505717,-0.164728,0.856992,0.137648,-0.189045,-0.012289,-0.446326,0.190364,-0.380057,5.936061,-84.018616,-5.523454
00962,132878,8.689556,-0.291802,0.920714,0.098455,-0.233102,0.003264,-0.444814,0.195347,-0.380302,6.123209,-84.148655,-5.655080
00963,132978,8.803469,-0.439693,1.049297,0.073070,-0.274381,0.014372,-0.447304,0.195386,-0.380303,6.264930,-84.302857,-5.755640
00964,133078,8.942413,-0.551732,1.262960,0.056289,-0.295784,0.020715,-0.441340,0.198232,-0.379149,6.379803,-84.469612,-5.838864
00965,133178,9.068967,-0.640978,1.510780,0.047224,-0.284579,0.023325,-0.446326,0.200778,-0.378524,6.471290,-84.630106,-5.903801
00966,133278,9.203723,-0.639278,1.719619,0.045125,-0.242880,0.024928,-0.445859,0.204162,-0.376347,6.525843,-84.766907,-5.932848
00967,133378,9.291027,-0.585868,1.899943,0.033680,-0.186442,0.027364,-0.445351,0.204676,-0.376821,6.518571,-84.871670,-5.906404
00968,133478,9.269381,-0.486785,1.982222,0.013726,-0.130790,0.029057,-0.444813,0.206259,-0.378744,6.446668,-84.944784,-5.826563
00969,133578,9.221855,-0.367084,1.916687,-0.009536,-0.088862,0.031306,-0.445828,0.206227,-0.377745,6.313516,-84.994081,-5.698631
00970,133678,9.130426,-0.192565,1.796369,-0.024708,-0.074464,0.031432,-0.447245,0.207938,-0.381667,6.157566,-85.035091,-5.556555
00971,133778,9.114244,-0.109841,1.782662,-0.023954,-0.076887,0.029224,-0.443292,0.205810,-0.380268,6.015528,-85.077249,-5.428022
00972,133878,9.075945,-0.087341,1.685845,-0.014503,-0.087238,0.023891,-0.442744,0.207915,-0.382666,5.919045,-85.124905,-5.339789
00973,133978,9.124558,-0.141169,1.591009,0.012013,-0.087976,0.015590,-0.443791,0.210277,-0.379540,5.892193,-85.172434,-5.306201
00974,134078,9.123984,-0.254151,1.518632,0.040754,-0.084473,0.011041,-0.444738,0.211909,-0.381963,5.909390,-85.217653,-5.300297
00975,134178,9.123224,-0.347858,1.467761,0.059562,-0.072917,0.003181,-0.443740,0.212889,-0.381912,5.982745,-85.255781,-5.339939
00976,134278,9.226026,-0.365137,1.481013,0.064227,-0.063824,-0.002871,-0.442771,0.213299,-0.380387,6.094350,-85.288318,-5.415283
00977,134378,9.373168,-0.323965,1.463267,0.054059,-0.055349,-0.006265,-0.441236,0.215365,-0.382284,6.218122,-85.315767,-5.508681
00978,134478,9.490649,-0.248039,1.403489,0.032630,-0.064114,-0.010231,-0.444725,0.214424,-0.382336,6.364985,-85.347907,-5.637567
00979,134578,9.487024,-0.233146,1.302377,0.015261,-0.084361,-0.011294,-0.444193,0.217477,-0.383683,6.527169,-85.391451,-5.791804
00980,134678,9.501300,-0.290982,1.247191,0.029764,-0.112850,-0.013067,-0.444708,0.218434,-0.382632,6.736837,-85.451029,-5.985335
00981,134778,9.610272,-0.454438,1.228184,0.073472,-0.118227,-0.018239,-0.445144,0.222074,-0.385453,7.018665,-85.513227,-6.226119
00982,134878,9.940953,-0.634570,1.196468,0.136274,-0.094575,-0.022390,-0.446676,0.221503,-0.383480,7.351448,-85.561567,-6.481909
00983,134978,10.524266,-0.706513,1.308237,0.201014,-0.045731,-0.026388,-0.443667,0.222500,-0.384428,7.708160,-85.581726,-6.724489
00984,135078,11.124494,-0.699265,1.628555,0.239213,0.023179,-0.034105,-0.444126,0.218642,-0.387130,8.074069,-85.562013,-6.954348
00985,135178,11.657283,-0.572265,2.248601,0.229932,0.085443,-0.044261,-0.442560,0.222275,-0.390451,8.438390,-85.505961,-7.187969
00986,135278,12.054450,-0.348635,3.012676,0.171064,0.132555,-0.055497,-0.440557,0.218306,-0.391653,8.789472,-85.422000,-7.442177
00987,135378,12.256172,-0.064973,3.693491,0.059695,0.172567,-0.070575,-0.440578,0.216763,-0.390730,9.125896,-85.313732,-7.745747
00988,135478,12.204066,0.400565,4.140083,-0.059503,0.235527,-0.097246,-0.439524,0.217888,-0.393677,9.488701,-85.167008,-8.144390
00989,135578,12.110282,0.967997,4.397046,-0.143409,0.361763,-0.134704,-0.443983,0.216038,-0.395280,9.881388,-84.944900,-8.621401
00990,135678,12.131932,1.594325,4.318884,-0.206811,0.561012,-0.168838,-0.441974,0.214560,-0.396355,10.190900,-84.606464,-9.051586
00991,135778,11.940226,1.503621,3.776540,-0.255207,0.704514,-0.205195,-0.443357,0.214873,-0.402353,10.484279,-84.182993,-9.493701
00992,135878,11.680548,0.619463,2.650983,-0.258781,0.742953,-0.232216,-0.442822,0.219919,-0.403598,10.826711,-83.734683,-9.987553
00993,135978,11.792244,-0.369718,1.518288,-0.189142,0.705554,-0.216489,-0.444718,0.216728,-0.409275,11.111488,-83.308863,-10.383647
00994,136078,12.451373,-1.027179,0.600038,-0.083833,0.653036,-0.161242,-0.444661,0.212413,-0.413002,11.211525,-82.918657,-10.533223
00995,136178,12.823820,-1.628046,-0.444167,0.027789,0.570838,-0.081540,-0.447098,0.211102,-0.416078,11.087066,-82.583705,-10.392151
00996,136278,12.560210,-2.001982,-2.013623,0.154090,0.395046,-0.028255,-0.448036,0.212757,-0.419001,10.963886,-82.353758,-10.179283
00997,136378,11.855870,-1.394348,-2.881301,0.165228,0.199724,0.015611,-0.449031,0.208313,-0.419729,10.829231,-82.238788,-9.948300
00998,136478,10.991661,-0.511193,-2.793723,0.123016,0.013172,0.028486,-0.448016,0.208345,-0.420729,10.767488,-82.230503,-9.815261
00999,136578,9.959945,0.619527,-2.149898,0.144976,-0.190939,0.013041,-0.450479,0.207959,-0.422254,10.944801,-82.335706,-9.910757
01000,136678,8.996142,1.752312,-1.026512,0.171638,-0.358111,-0.023090,-0.450531,0.204849,-0.419908,11.437994,-82.530936,-10.309438
01001,136778,8.246057,2.531841,0.119496,0.150339,-0.440446,-0.072228,-0.451523,0.202398,-0.420535,12.237934,-82.766006,-11.029492
01002,136878,7.975628,2.948889,0.913283,0.056071,-0.419715,-0.120764,-0.452077,0.201763,-0.417562,13.233881,-82.981856,-12.001132
01003,136978,8.114740,2.940153,1.362352,-0.108007,-0.287092,-0.151146,-0.452588,0.199754,-0.417164,14.183066,-83.117607,-13.019990
01004,137078,8.406840,2.481842,1.422012,-0.280957,-0.051928,-0.143891,-0.453085,0.205716,-0.416359,14.747365,-83.122216,-13.750821
01005,137178,8.845975,1.742205,0.811753,-0.388569,0.199996,-0.101923,-0.453010,0.206407,-0.420332,14.751739,-82.992925,-13.979789
01006,137278,9.419232,0.912675,-0.165218,-0.386423,0.352438,-0.047951,-0.455469,0.213470,-0.420977,14.340288,-82.787057,-13.788540
01007,137378,9.834144,0.467804,-1.107233,-0.304756,0.347449,-0.006480,-0.454998,0.214386,-0.419426,13.820150,-82.589744,-13.440434
01008,137478,10.180432,0.193832,-1.469377,-0.210860,0.227347,0.008743,-0.451941,0.220961,-0.422094,13.432586,-82.461247,-13.171631
01009,137578,10.668550,-0.119768,-1.145261,-0.115929,0.093271,0.021946,-0.455833,0.226721,-0.426314,13.185779,-82.409271,-12.989883
01010,137678,10.988998,-0.322520,-0.503739,-0.068072,0.003573,0.027945,-0.456917,0.229486,-0.421164,13.030591,-82.408218,-12.872883
01011,137778,11.027106,-0.455180,-0.068230,-0.055666,-0.053276,0.028167,-0.458369,0.232595,-0.423011,12.936104,-82.439038,-12.809949
01012,137878,10.763579,-0.365207,0.241673,-0.047519,-0.081460,0.025336,-0.458346,0.234636,-0.423909,12.884608,-82.485336,-12.785677
01013,137978,10.226249,-0.180963,0.417015,-0.016673,-0.094999,0.017573,-0.459328,0.237665,-0.424257,12.896469,-82.538289,-12.807484
01014,138078,9.649042,0.078885,0.530228,0.039525,-0.121181,0.019654,-0.460299,0.236259,-0.425833,12.957761,-82.606192,-12.846664
01015,138178,9.241895,0.316769,0.793150,0.059230,-0.145465,0.027427,-0.460788,0.236291,-0.426333,13.022001,-82.688685,-12.877424
01016,138278,8.921070,0.458216,0.974737,0.036328,-0.146229,0.036606,-0.460287,0.237778,-0.426256,13.034642,-82.772803,-12.869387
01017,138378,8.730001,0.524117,1.080755,-0.017595,-0.132474,0.049119,-0.459362,0.239562,-0.422156,12.946574,-82.850857,-12.790982
01018,138478,8.661749,0.445563,1.005544,-0.078121,-0.114391,0.062591,-0.459793,0.240735,-0.425604,12.742767,-82.920510,-12.630900
01019,138578,8.653298,0.234099,0.926768,-0.118796,-0.093910,0.072055,-0.456803,0.241684,-0.425552,12.448234,-82.979828,-12.402904
01020,138678,8.629699,0.032522,0.815253,-0.120235,-0.082452,0.088040,-0.457778,0.242744,-0.426502,12.063680,-83.034540,-12.085071
01021,138778,8.595224,-0.014267,0.762033,-0.103911,-0.078377,0.108874,-0.457782,0.246208,-0.425824,11.582470,-83.089155,-11.660485
01022,138878,8.593994,0.057679,0.687262,-0.091306,-0.076614,0.128082,-0.455789,0.246176,-0.425823,11.009801,-83.144504,-11.136547
01023,138978,8.523358,0.100307,0.553810,-0.074727,-0.085824,0.137692,-0.456293,0.248153,-0.425222,10.400344,-83.205460,-10.566054
01024,139078,8.408409,0.191781,0.443854,-0.044985,-0.107765,0.143707,-0.456301,0.248627,-0.424697,9.786779,-83.278726,-9.974339
01025,139178,8.286420,0.243014,0.421537,-0.007813,-0.151840,0.141458,-0.456843,0.250508,-0.422096,9.227136,-83.376023,-9.415570
01026,139278,8.241451,0.314864,0.517812,0.023913,-0.200814,0.141930,-0.455338,0.251006,-0.422570,8.704043,-83.500507,-8.875416
01027,139378,8.292103,0.378983,0.727342,0.057996,-0.235606,0.140318,-0.456303,0.253087,-0.423968,8.213712,-83.644049,-8.348722
01028,139478,8.427281,0.441415,0.937831,0.083638,-0.237793,0.135979,-0.454816,0.254036,-0.423417,7.739142,-83.787995,-7.823248
01029,139578,8.628900,0.514587,1.099723,0.094524,-0.211132,0.129511,-0.455822,0.254027,-0.422918,7.263911,-83.915829,-7.290970
01030,139678,8.849914,0.577582,1.157855,0.093880,-0.164946,0.125734,-0.453357,0.254912,-0.421367,6.757879,-84.016634,-6.728202
01031,139778,8.978299,0.628711,1.124635,0.094947,-0.127360,0.122525,-0.454847,0.252469,-0.421994,6.229676,-84.095293,-6.142619
01032,139878,8.985227,0.684008,0.991803,0.095133,-0.111487,0.122981,-0.454837,0.252493,-0.422494,5.675644,-84.164363,-5.531037
01033,139978,8.941802,0.798465,0.977953,0.099323,-0.123840,0.125544,-0.457334,0.254501,-0.421893,5.102284,-84.240006,-4.897690
01034,140078,8.897000,0.922925,1.013199,0.105803,-0.137912,0.123711,-0.456866,0.252927,-0.420470,4.534089,-84.322954,-4.265886
01035,140178,8.869487,0.988351,1.060495,0.111152,-0.127424,0.119164,-0.458821,0.253054,-0.422470,3.974170,-84.399092,-3.639402
01036,140278,8.913277,0.853485,1.073205,0.129751,-0.092932,0.118124,-0.457351,0.254951,-0.420868,3.403345,-84.454856,-2.991319
01037,140378,9.017638,0.578649,1.045562,0.158496,-0.049894,0.124410,-0.457345,0.253481,-0.421444,2.787343,-84.485540,-2.281346
01038,140478,9.205699,0.346011,1.110440,0.182788,-0.003564,0.135229,-0.455336,0.252003,-0.422519,2.103654,-84.489190,-1.489407
01039,140578,9.423575,0.189670,1.225565,0.202830,0.032207,0.145724,-0.456847,0.253473,-0.421444,1.363385,-84.471584,-0.629079
01040,140678,9.604816,0.154246,1.463150,0.213823,0.045335,0.153530,-0.456761,0.249728,-0.426645,0.587811,-84.445421,0.273080
01041,140778,9.669337,0.137580,1.745831,0.211841,0.051159,0.155198,-0.455308,0.252075,-0.424019,-0.190547,-84.414706,1.176939
01042,140878,9.640567,0.175142,2.071522,0.194542,0.061322,0.154788,-0.455355,0.251955,-0.421520,-0.965990,-84.376922,2.067962
01043,140978,9.579547,0.406348,2.208252,0.157573,0.076450,0.159113,-0.457290,0.253127,-0.424468,-1.773288,-84.329145,2.969777
01044,141078,9.547274,0.737802,2.218389,0.094483,0.111967,0.165179,-0.454315,0.250564,-0.424095,-2.626952,-84.259551,3.881956
01045,141178,9.371134,0.927559,2.007092,0.015256,0.172881,0.167029,-0.456756,0.252219,-0.426518,-3.493308,-84.153644,4.761411
01046,141278,9.025552,1.012631,1.738140,-0.049302,0.217570,0.166811,-0.452283,0.251626,-0.426043,-4.344779,-84.020850,5.588911
01047,141378,8.846324,1.063386,1.569572,-0.085176,0.206595,0.159375,-0.451284,0.253603,-0.425941,-5.145021,-83.893444,6.344432
01048,141478,8.941213,1.057533,1.570233,-0.086461,0.178955,0.147568,-0.453247,0.254205,-0.427415,-5.866713,-83.781391,7.020385
01049,141578,9.103479,1.023839,1.788314,-0.060491,0.149159,0.137465,-0.451243,0.255692,-0.427838,-6.513905,-83.686051,7.636500
01050,141678,9.319653,0.936495,2.067187,-0.018763,0.155735,0.126470,-0.450765,0.254639,-0.426889,-7.058268,-83.586978,8.173329
01051,141778,9.590352,0.640797,2.229589,0.029352,0.186914,0.116075,-0.450731,0.258199,-0.428211,-7.486337,-83.470388,8.620982
01052,141878,9.984542,0.328143,2.335208,0.084210,0.239018,0.118071,-0.447217,0.257718,-0.429734,-7.842394,-83.323664,9.027904
01053,141978,10.672183,0.070184,2.364890,0.129354,0.298696,0.130945,-0.448245,0.260627,-0.427583,-8.176643,-83.141728,9.439053
01054,142078,11.654879,-0.171789,2.142424,0.160108,0.352351,0.146882,-0.445197,0.257758,-0.431233,-8.510450,-82.927747,9.867684
01055,142178,12.795112,-0.401670,1.615996,0.171400,0.374203,0.154264,-0.446163,0.258843,-0.432682,-8.833347,-82.700482,10.292049
01056,142278,13.910882,-0.394833,0.910897,0.138814,0.335465,0.148515,-0.444108,0.257485,-0.436256,-9.154635,-82.495441,10.696174
01057,142378,14.981983,-0.034524,0.229093,0.061320,0.243550,0.126698,-0.447113,0.258979,-0.435181,-9.473727,-82.344246,11.053466
01058,142478,15.495875,0.576264,-0.278773,-0.087078,0.145117,0.081228,-0.446619,0.256480,-0.435308,-9.746035,-82.252945,11.277863
01059,142578,15.286572,0.916267,-0.363953,-0.267054,0.078087,0.031159,-0.445062,0.255130,-0.438883,-9.957444,-82.204448,11.336773
01060,142678,14.502872,0.954005,-0.252497,-0.413260,0.025716,-0.020384,-0.447022,0.257725,-0.440256,-10.077000,-82.190776,11.218433
01061,142778,13.332668,0.685602,-0.386133,-0.512155,-0.027373,-0.074480,-0.448077,0.256102,-0.437333,-10.069003,-82.212640,10.914168
01062,142878,12.104740,0.224056,-0.531534,-0.515783,-0.124532,-0.095766,-0.451577,0.253642,-0.436962,-10.044391,-82.291575,10.591076
01063,142978,10.942650,-0.084033,-0.453349,-0.460497,-0.247219,-0.082785,-0.454074,0.255651,-0.436361,-10.130389,-82.438556,10.411625
01064,143078,9.822125,-0.337602,-0.279938,-0.383752,-0.381112,-0.075106,-0.456115,0.254565,-0.433913,-10.308122,-82.660400,10.369109
01065,143178,8.641694,-0.687902,-0.241084,-0.289369,-0.536126,-0.087684,-0.458094,0.256614,-0.434312,-10.507622,-82.970989,10.403050
01066,143278,7.502722,-1.179336,-0.114719,-0.117686,-0.662405,-0.112117,-0.459121,0.255063,-0.432890,-10.614047,-83.355306,10.442280
01067,143378,6.686615,-1.484198,0.018473,0.167059,-0.686845,-0.134499,-0.458734,0.255264,-0.426866,-10.470700,-83.755766,10.394286
01068,143478,6.104148,-1.620637,-0.334296,0.466516,-0.638390,-0.154652,-0.462739,0.254781,-0.425893,-9.979424,-84.130964,10.168969
01069,143578,5.990009,-1.812283,-0.743339,0.692124,-0.564299,-0.161172,-0.463284,0.248714,-0.424199,-9.196768,-84.464708,9.780860
01070,143678,6.475104,-1.894644,-0.785512,0.783533,-0.448088,-0.144459,-0.464771,0.247765,-0.424750,-8.282538,-84.730652,9.313383
01071,143778,7.490426,-1.798090,-0.445633,0.764601,-0.321051,-0.117949,-0.462815,0.248135,-0.422725,-7.369861,-84.921739,8.836734
01072,143878,8.685603,-1.519097,-0.008114,0.634513,-0.238050,-0.096509,-0.461858,0.247027,-0.420776,-6.557650,-85.063499,8.386232
01073,143978,9.984298,-1.186026,0.448142,0.450437,-0.201009,-0.064075,-0.461365,0.244030,-0.420928,-6.009386,-85.181668,8.094868
01074,144078,11.201040,-0.644597,0.856959,0.265081,-0.160679,-0.008179,-0.462376,0.245990,-0.419827,-5.906184,-85.273386,8.143585
01075,144178,12.235312,0.073959,0.909496,0.093856,-0.086113,0.058909,-0.461387,0.247445,-0.419251,-6.313951,-85.318524,8.606556
01076,144278,12.665322,0.550927,0.345048,-0.015096,0.000422,0.102253,-0.457399,0.248876,-0.419174,-7.021744,-85.311200,9.307915
01077,144378,11.927998,0.728481,-0.242850,-0.081227,0.028154,0.073632,-0.462388,0.249928,-0.418624,-7.541485,-85.289653,9.782590
01078,144478,10.967857,0.576167,-0.493444,-0.117803,-0.051867,0.013232,-0.459370,0.245492,-0.420851,-7.737257,-85.317985,9.911180
01079,144578,10.263863,0.322326,-0.353467,-0.115049,-0.184201,-0.025763,-0.463426,0.247356,-0.416753,-7.787021,-85.424502,9.894858
01080,144678,9.822704,0.136918,-0.019787,-0.072034,-0.275117,-0.055392,-0.461398,0.246424,-0.418802,-7.686274,-85.584960,9.752285
01081,144778,9.313669,-0.092957,0.434791,-0.003165,-0.298739,-0.087368,-0.462441,0.240863,-0.417083,-7.315205,-85.761187,9.378221
01082,144878,8.878545,-0.232163,0.891521,0.063647,-0.277709,-0.116884,-0.464934,0.239408,-0.417160,-6.616895,-85.927211,8.714515
01083,144978,8.519388,-0.267438,0.994536,0.122776,-0.258563,-0.144301,-0.465933,0.237929,-0.417236,-5.581954,-86.083221,7.747449
01084,145078,8.303602,-0.311690,0.897725,0.152686,-0.253020,-0.151943,-0.467428,0.237455,-0.417262,-4.377109,-86.235074,6.627447
01085,145178,8.123127,-0.363346,0.630438,0.145397,-0.265479,-0.131787,-0.467451,0.235414,-0.416364,-3.268866,-86.391720,5.600257
01086,145278,8.050712,-0.392090,0.356965,0.132584,-0.289804,-0.083763,-0.466499,0.236274,-0.413814,-2.538080,-86.559809,4.944066
01087,145378,8.119990,-0.305952,0.301722,0.122313,-0.315929,-0.027602,-0.469494,0.238290,-0.413213,-2.315613,-86.741151,4.791287
01088,145478,8.363976,-0.107147,0.391106,0.100727,-0.330004,0.016410,-0.473008,0.238273,-0.411715,-2.559284,-86.929477,5.092995
01089,145578,8.609986,-0.029854,0.490607,0.062665,-0.340524,0.042925,-0.472027,0.240202,-0.410614,-3.169137,-87.122929,5.739487
01090,145678,8.867037,0.011738,0.656234,0.007234,-0.352811,0.051064,-0.473566,0.241600,-0.408039,-4.012130,-87.322657,6.587480
01091,145778,9.068651,-0.000172,0.729293,-0.047103,-0.356134,0.046352,-0.477602,0.244010,-0.404914,-4.965256,-87.523804,7.514412
01092,145878,9.171617,-0.063006,0.596308,-0.082988,-0.347043,0.033727,-0.481107,0.249474,-0.403136,-5.911329,-87.719714,8.413565
01093,145978,9.295949,-0.297832,0.303764,-0.087055,-0.342943,0.020394,-0.481153,0.249851,-0.400612,-6.817457,-87.913502,9.270288
01094,146078,9.340699,-0.605890,0.145881,-0.060877,-0.344001,0.013585,-0.483729,0.248678,-0.396165,-7.774638,-88.107832,10.192995
01095,146178,9.263189,-0.865623,0.141492,-0.034915,-0.341585,0.011444,-0.484223,0.250679,-0.396064,-8.884473,-88.300360,11.283209
01096,146278,9.132567,-0.969107,0.214813,-0.014300,-0.345106,0.014552,-0.486757,0.252591,-0.393464,-10.344471,-88.493759,12.735427
01097,146378,9.032667,-0.858326,0.414979,-0.003160,-0.354084,0.017173,-0.486344,0.251868,-0.388991,-12.338760,-88.690585,14.728350
01098,146478,9.018190,-0.674142,0.668971,0.001573,-0.353910,0.020501,-0.489309,0.254454,-0.389864,-15.125423,-88.884636,17.516377
01099,146578,9.172563,-0.513755,0.807209,-0.000431,-0.330988,0.021631,-0.488853,0.251859,-0.387992,-18.849052,-89.062266,21.240193
01100,146678,9.427644,-0.419707,0.872879,-0.012808,-0.270702,0.013866,-0.488855,0.250863,-0.388043,-22.969501,-89.204187,25.353608
01101,146778,9.675476,-0.400113,0.694193,-0.029461,-0.170385,0.007710,-0.488394,0.250758,-0.386044,-26.350478,-89.290876,28.717830
01102,146878,9.746607,-0.519002,0.405172,-0.017988,-0.081166,-0.005875,-0.492417,0.250227,-0.384071,-27.828420,-89.333586,30.185407
01103,146978,9.854512,-0.671920,0.249391,-0.000879,-0.036238,-0.012673,-0.491425,0.247720,-0.384198,-28.071640,-89.355084,30.427975
01104,147078,10.094850,-0.788310,0.202264,0.007807,0.001783,-0.015377,-0.492946,0.248170,-0.382673,-27.285187,-89.357997,29.645781
01105,147178,10.337549,-0.776540,0.257927,0.012458,0.023971,-0.014009,-0.494941,0.247205,-0.382725,-26.054431,-89.349015,28.421920
01106,147278,10.509624,-0.602650,0.467926,0.012283,0.040919,-0.018305,-0.495903,0.250781,-0.384047,-24.317726,-89.331906,26.691972
01107,147378,10.528382,-0.343515,0.614126,-0.003986,0.062778,-0.033271,-0.496946,0.245220,-0.382327,-21.626906,-89.305818,23.998511
01108,147478,10.409613,-0.138508,0.761017,-0.018961,0.092378,-0.059465,-0.500447,0.242760,-0.381956,-17.601191,-89.266909,19.961452
01109,147578,10.222766,-0.093562,0.757603,-0.005337,0.132361,-0.088415,-0.497941,0.240775,-0.383056,-12.428127,-89.206193,14.784700
01110,147678,10.081625,-0.289662,0.727174,0.046688,0.168153,-0.116876,-0.500368,0.239987,-0.386606,-6.753009,-89.121652,9.135562
01111,147778,10.166160,-0.571918,0.810153,0.126332,0.228055,-0.138601,-0.502898,0.238934,-0.384658,-1.285067,-88.996072,3.739105
01112,147878,10.378552,-0.774779,0.983083,0.207844,0.321113,-0.158311,-0.502850,0.234594,-0.387886,3.399814,-88.809576,-0.827696
01113,147978,10.733110,-0.747078,1.225419,0.247563,0.432722,-0.177020,-0.502377,0.230552,-0.387090,6.958541,-88.552611,-4.245657
01114,148078,11.124278,-0.502986,1.417527,0.203266,0.557278,-0.182111,-0.503784,0.227828,-0.392241,9.152894,-88.220956,-6.324547
01115,148178,11.219962,-0.089557,1.266533,0.080121,0.673077,-0.175740,-0.503259,0.227394,-0.393765,10.193975,-87.822986,-7.320499
01116,148278,10.985278,0.377171,0.808647,-0.061074,0.731428,-0.161861,-0.504706,0.222579,-0.397018,10.535806,-87.393165,-7.697841
01117,148378,10.963539,0.767123,0.323355,-0.157196,0.740117,-0.148074,-0.504145,0.221245,-0.400593,10.561755,-86.959856,-7.814189
01118,148478,11.383624,1.140020,-0.256029,-0.205806,0.695834,-0.137784,-0.502100,0.219863,-0.403668,10.526201,-86.552609,-7.896873
01119,148578,12.327869,1.150438,-0.815911,-0.230115,0.602281,-0.122917,-0.505487,0.218689,-0.409243,10.495060,-86.199696,-7.997962
01120,148678,13.241830,0.742106,-1.360246,-0.217805,0.492972,-0.117155,-0.503953,0.219758,-0.411191,10.580106,-85.909071,-8.208471
01121,148778,13.521113,0.010635,-1.949380,-0.173453,0.343790,-0.127809,-0.506970,0.214775,-0.410446,10.961773,-85.701370,-8.690972
01122,148878,12.833714,-0.536669,-2.140294,-0.128251,0.156322,-0.138965,-0.508959,0.216799,-0.410345,11.685253,-85.597573,-9.490391
01123,148978,11.600490,-0.591080,-1.610312,-0.085725,-0.009409,-0.133954,-0.510360,0.211608,-0.416123,12.625868,-85.586476,-10.483205
01124,149078,10.405276,-0.332316,-0.567317,-0.017164,-0.140120,-0.126549,-0.511377,0.210579,-0.415174,13.777825,-85.647946,-11.648545
01125,149178,9.317002,0.071156,0.342216,0.017342,-0.213642,-0.123069,-0.515394,0.208079,-0.413803,15.102927,-85.748787,-12.967566
01126,149278,8.367050,0.474582,1.008937,-0.011432,-0.205020,-0.120034,-0.516912,0.205065,-0.412956,16.432689,-85.842995,-14.307622
01127,149378,7.571666,0.846176,1.468552,-0.098486,-0.124011,-0.107747,-0.517403,0.204100,-0.413507,17.482389,-85.892733,-15.416775
01128,149478,7.223282,1.156155,1.467294,-0.238967,0.041024,-0.091819,-0.514453,0.202960,-0.411558,17.943304,-85.854041,-16.016305
01129,149578,7.153225,1.410616,0.858799,-0.388205,0.233694,-0.085542,-0.516920,0.206037,-0.412405,17.799308,-85.711228,-16.095088
01130,149678,7.199802,1.612404,-0.026468,-0.514563,0.363626,-0.086113,-0.514918,0.206030,-0.412905,17.303199,-85.497370,-15.893341
01131,149778,7.662636,1.479222,-0.911876,-0.568136,0.405209,-0.073825,-0.513879,0.209598,-0.414726,16.644609,-85.262688,-15.559307
01132,149878,8.556491,1.137938,-1.230007,-0.524318,0.373048,-0.051395,-0.514856,0.215118,-0.414947,15.975167,-85.049084,-15.189065
01133,149978,9.583173,0.713423,-0.908784,-0.410931,0.332179,-0.026538,-0.515843,0.220116,-0.414693,15.330005,-84.861601,-14.777857
01134,150078,10.607057,0.282653,-0.481598,-0.269224,0.304318,-0.004059,-0.513789,0.223717,-0.417513,14.712131,-84.692555,-14.312398
01135,150178,11.356628,-0.104672,-0.254142,-0.134197,0.267766,0.014879,-0.517265,0.224294,-0.417989,14.147635,-84.546133,-13.822724
01136,150278,11.815895,-0.347135,-0.114107,-0.041807,0.220659,0.019063,-0.519259,0.228786,-0.417261,13.704279,-84.426154,-13.401460
01137,150378,11.806461,-0.307850,0.010415,-0.013256,0.180207,0.011982,-0.522699,0.228962,-0.419761,13.388574,-84.327553,-13.091946
01138,150478,11.146134,-0.114306,0.102537,-0.030931,0.148113,-0.000770,-0.522159,0.226583,-0.422387,13.185335,-84.245084,-12.905586
01139,150578,10.326493,0.108226,0.272347,-0.030624,0.091708,-0.002213,-0.522621,0.231148,-0.423658,13.067174,-84.193883,-12.804539
01140,150678,9.586117,0.349322,0.476966,-0.013733,0.031659,0.007709,-0.525647,0.226140,-0.422414,12.982035,-84.177484,-12.726947
01141,150778,9.015790,0.533455,0.732113,-0.013420,-0.026553,0.022718,-0.524623,0.225699,-0.423938,12.888493,-84.195503,-12.640728
01142,150878,8.668906,0.733473,0.966602,-0.047083,-0.070428,0.033756,-0.525660,0.224123,-0.422015,12.769352,-84.239403,-12.548170
01143,150978,8.468417,0.833200,1.164702,-0.113890,-0.091961,0.040933,-0.524624,0.225200,-0.423963,12.597312,-84.296187,-12.440923
01144,151078,8.409912,0.927578,1.265204,-0.185739,-0.084170,0.043207,-0.525638,0.225666,-0.422939,12.358861,-84.348817,-12.308319
01145,151178,8.410264,0.950075,1.258424,-0.246519,-0.055054,0.037626,-0.525612,0.224742,-0.424489,12.078377,-84.384368,-12.168480
01146,151278,8.462684,0.920989,1.134627,-0.278872,-0.033265,0.033690,-0.525620,0.225216,-0.423964,11.773338,-84.407136,-12.022600
01147,151378,8.476954,0.742603,0.965257,-0.295784,-0.034661,0.030142,-0.527164,0.228583,-0.420788,11.479112,-84.430182,-11.897327
01148,151478,8.498880,0.577864,0.783329,-0.295505,-0.053979,0.024425,-0.529660,0.231090,-0.420161,11.238985,-84.463369,-11.826251
01149,151578,8.531624,0.544667,0.690199,-0.282975,-0.085979,0.015465,-0.528184,0.231018,-0.419162,11.093556,-84.513522,-11.843105
01150,151678,8.486435,0.618630,0.674450,-0.251957,-0.125150,0.004493,-0.527697,0.230487,-0.418687,11.075470,-84.584489,-11.970024
01151,151778,8.483216,0.752829,0.743322,-0.210035,-0.166103,-0.009067,-0.529699,0.235453,-0.417434,11.213824,-84.676954,-12.229928
01152,151878,8.492208,0.823636,0.870252,-0.166231,-0.197632,-0.027548,-0.529249,0.234329,-0.414985,11.537829,-84.784924,-12.651025
01153,151978,8.602178,0.837702,0.993953,-0.130191,-0.213387,-0.035651,-0.533278,0.235268,-0.412437,11.970602,-84.900504,-13.160522
01154,152078,8.763833,0.823228,1.073207,-0.115812,-0.217889,-0.036411,-0.535273,0.239261,-0.411734,12.445114,-85.018118,-13.703558
01155,152178,8.941079,0.802366,1.171612,-0.115705,-0.215877,-0.029873,-0.533283,0.238233,-0.411784,12.898617,-85.135004,-14.225349
01156,152278,9.165501,0.737230,1.259633,-0.116349,-0.183230,-0.018624,-0.535782,0.238746,-0.411260,13.248709,-85.234772,-14.643651
01157,152378,9.316774,0.685759,1.251758,-0.120160,-0.122833,-0.005231,-0.536803,0.240683,-0.409659,13.423095,-85.302438,-14.887788
01158,152478,9.355548,0.597359,1.237954,-0.124219,-0.047804,0.009520,-0.537350,0.239076,-0.407237,13.376777,-85.330187,-14.912800
01159,152578,9.490171,0.529743,1.298457,-0.113527,0.003693,0.028040,-0.541332,0.240634,-0.407162,13.126614,-85.331617,-14.727144
01160,152678,9.835295,0.465908,1.270141,-0.102446,0.033827,0.047460,-0.540825,0.240650,-0.407661,12.703188,-85.318583,-14.361275
01161,152778,10.075355,0.455025,1.195068,-0.096492,0.064621,0.059393,-0.539832,0.238641,-0.407763,12.158730,-85.289512,-13.870535
01162,152878,10.034165,0.554296,1.129315,-0.089338,0.095985,0.064640,-0.543801,0.237258,-0.408840,11.545927,-85.243044,-13.307077
01163,152978,9.786457,0.560541,1.109873,-0.087224,0.132480,0.065279,-0.541268,0.239806,-0.410711,10.894542,-85.175602,-12.703638
01164,153078,9.594675,0.597503,1.120010,-0.085031,0.154141,0.068598,-0.542243,0.241863,-0.411609,10.214340,-85.095702,-12.069951
01165,153178,9.456036,0.555790,1.211853,-0.058991,0.151978,0.079947,-0.543792,0.242240,-0.408586,9.499066,-85.017459,-11.386011
01166,153278,9.336094,0.580029,1.261525,-0.014274,0.128796,0.089033,-0.545750,0.240874,-0.410662,8.795970,-84.952403,-10.688502
01167,153378,9.302220,0.687030,1.318030,0.031800,0.102152,0.095535,-0.544216,0.242441,-0.412585,8.120121,-84.902232,-9.991781
01168,153478,9.315377,0.847216,1.449317,0.053279,0.115427,0.099357,-0.542254,0.240344,-0.411186,7.435343,-84.844052,-9.273681
01169,153578,9.345192,1.084668,1.630029,0.044161,0.178799,0.100517,-0.545711,0.241966,-0.412610,6.708019,-84.749083,-8.518017
01170,153678,9.510969,1.279178,1.729437,-0.000843,0.282787,0.094787,-0.544218,0.240946,-0.412661,5.951115,-84.593597,-7.758386
01171,153778,9.782413,1.322047,1.750644,-0.061927,0.396275,0.092732,-0.542140,0.242128,-0.417107,5.154703,-84.372283,-6.993984
01172,153878,10.231809,1.242531,1.801567,-0.093178,0.493570,0.098931,-0.543614,0.243196,-0.418056,4.324596,-84.094633,-6.213377
01173,153978,10.928615,0.942872,1.720558,-0.071254,0.574604,0.110004,-0.541518,0.243928,-0.423528,3.494851,-83.769951,-5.420071
01174,154078,11.746930,0.808331,1.429286,-0.004431,0.639526,0.113159,-0.539985,0.244997,-0.425476,2.751974,-83.407096,-4.675120
01175,154178,12.416058,0.439373,1.188074,0.106605,0.656624,0.087477,-0.538881,0.243277,-0.431575,2.266261,-83.032957,-4.124513
01176,154278,13.067339,0.240202,1.170202,0.197616,0.660848,0.056735,-0.539334,0.242409,-0.434125,2.020265,-82.655364,-3.762496
01177,154378,13.767328,0.181283,1.016900,0.236547,0.642706,0.037554,-0.534785,0.243005,-0.437597,1.909283,-82.287692,-3.513854
01178,154478,14.431003,0.026360,0.589542,0.208658,0.579818,0.034097,-0.535221,0.241188,-0.441198,1.820775,-81.955995,-3.303813
01179,154578,14.478954,-0.118249,-0.155120,0.111565,0.457962,0.028518,-0.536685,0.237322,-0.443401,1.725201,-81.694066,-3.142669
01180,154678,13.481874,-0.226833,-0.983840,-0.018186,0.276114,0.014100,-0.537102,0.236052,-0.447975,1.638827,-81.536174,-3.065871
01181,154778,12.144010,-0.345115,-1.121865,-0.087845,0.035802,0.017314,-0.537072,0.237121,-0.449424,1.528216,-81.516115,-3.004896
01182,154878,11.028366,-0.451871,-0.754685,-0.080713,-0.181440,0.037941,-0.538586,0.236598,-0.448450,1.363003,-81.620897,-2.884594
01183,154978,10.102886,-0.560115,-0.397912,-0.014115,-0.341101,0.060907,-0.539081,0.233143,-0.449128,1.154582,-81.817472,-2.682119
01184,155078,9.223054,-0.704460,0.015405,0.091577,-0.471433,0.067858,-0.542087,0.234138,-0.448078,0.977480,-82.088755,-2.450240
01185,155178,8.357414,-0.830033,0.441036,0.215424,-0.548790,0.060877,-0.540614,0.232572,-0.447155,0.892260,-82.404255,-2.239652
01186,155278,7.631607,-0.782786,0.899290,0.356329,-0.548258,0.049282,-0.541679,0.230426,-0.443758,0.928218,-82.719337,-2.070019
01187,155378,7.170695,-0.660285,1.126236,0.494520,-0.465472,0.033551,-0.541176,0.232909,-0.443630,1.105876,-82.986862,-1.963518
01188,155478,6.815617,-0.592168,1.039909,0.622184,-0.320868,0.011577,-0.540185,0.230402,-0.443757,1.451348,-83.171323,-1.952440
01189,155578,6.645001,-0.606246,0.789321,0.719678,-0.153795,-0.009877,-0.540751,0.228249,-0.440361,1.942832,-83.259745,-2.032160
01190,155678,6.961345,-0.555889,0.678344,0.761178,0.015910,-0.021300,-0.536693,0.227880,-0.444383,2.488455,-83.250677,-2.142449
01191,155778,7.777929,-0.380535,0.772665,0.735104,0.182441,-0.032304,-0.536671,0.224465,-0.446060,3.031469,-83.145891,-2.265171
01192,155878,8.789786,-0.228973,0.884905,0.654668,0.304151,-0.044604,-0.537161,0.223998,-0.446586,3.542720,-82.970965,-2.402358
01193,155978,9.801206,-0.150543,0.887180,0.526518,0.351637,-0.037029,-0.533582,0.223686,-0.451608,3.917157,-82.769070,-2.475714
01194,156078,10.764355,0.055530,0.896116,0.352866,0.357153,-0.004857,-0.532584,0.224666,-0.451557,4.038615,-82.565292,-2.394351
01195,156178,11.554359,0.312749,0.898894,0.166633,0.351509,0.041381,-0.532573,0.220231,-0.452785,3.858262,-82.366594,-2.116139
01196,156278,11.845734,0.432330,0.688558,0.024192,0.318765,0.068906,-0.532944,0.224039,-0.459105,3.502953,-82.187511,-1.743599
01197,156378,11.640514,0.373603,0.440074,-0.055492,0.252395,0.064391,-0.532465,0.223983,-0.458105,3.152294,-82.046001,-1.421696
01198,156478,11.041958,0.198841,0.232831,-0.073630,0.138423,0.039084,-0.531395,0.223163,-0.462154,2.928587,-81.968785,-1.238393
01199,156578,10.380912,-0.012904,0.289965,-0.041488,0.015666,0.020087,-0.534343,0.225300,-0.464052,2.827825,-81.961262,-1.160632
01200,156678,9.717737,-0.123928,0.553280,0.014359,-0.083105,0.010353,-0.535847,0.220341,-0.464307,2.818196,-82.010022,-1.142592
01201,156778,9.151493,-0.171370,0.799375,0.073784,-0.168020,-0.002886,-0.536331,0.217906,-0.465434,2.914349,-82.107022,-1.196987
01202,156878,8.796761,-0.143267,1.138249,0.120593,-0.233122,-0.013558,-0.536822,0.216444,-0.466010,3.098398,-82.240933,-1.313019
01203,156978,8.582323,-0.103587,1.467011,0.145790,-0.270232,-0.017445,-0.538805,0.216500,-0.466511,3.327862,-82.395869,-1.460274
01204,157078,8.388837,-0.085203,1.625417,0.158707,-0.284651,-0.017184,-0.538781,0.214579,-0.468112,3.575250,-82.558944,-1.618095
01205,157178,8.265530,-0.073612,1.680540,0.155817,-0.286326,-0.005379,-0.538818,0.214482,-0.466112,3.777548,-82.723289,-1.732067
01206,157278,8.157281,-0.074243,1.673693,0.148014,-0.260059,0.015424,-0.540376,0.215334,-0.462563,3.879126,-82.873333,-1.748990
01207,157378,8.126122,-0.114351,1.625055,0.147161,-0.201032,0.030847,-0.537817,0.217456,-0.465960,3.892014,-82.990192,-1.677038
01208,157478,8.182205,-0.197108,1.452404,0.151959,-0.138726,0.049953,-0.542881,0.217816,-0.461437,3.796819,-83.072131,-1.493449
01209,157578,8.235559,-0.318872,1.183172,0.144152,-0.102652,0.073280,-0.540889,0.217287,-0.461462,3.571857,-83.134228,-1.183686
01210,157678,8.339325,-0.426923,0.982381,0.117029,-0.117433,0.091422,-0.541833,0.220911,-0.463784,3.243120,-83.205217,-0.785107
01211,157778,8.534346,-0.517999,0.919002,0.085616,-0.171543,0.104643,-0.543859,0.222838,-0.461684,2.837033,-83.307266,-0.326838
01212,157878,8.841107,-0.543499,0.959988,0.063792,-0.225143,0.116732,-0.544862,0.224325,-0.461108,2.355595,-83.439893,0.194583
01213,157978,9.094441,-0.484375,1.072080,0.052836,-0.265214,0.119617,-0.545377,0.225281,-0.460057,1.838688,-83.594990,0.745228
01214,158078,9.208751,-0.474698,1.229536,0.037288,-0.257746,0.112605,-0.546389,0.226743,-0.458982,1.321817,-83.745118,1.286703
01215,158178,9.152856,-0.479642,1.483952,0.027948,-0.245067,0.097770,-0.552357,0.226862,-0.459484,0.851712,-83.887268,1.775598
01216,158278,9.103160,-0.540461,1.850492,-0.001607,-0.245745,0.084591,-0.549402,0.228712,-0.457382,0.413559,-84.029243,2.215196
01217,158378,9.038398,-0.544936,2.060298,-0.035694,-0.239829,0.071264,-0.552919,0.227698,-0.455935,0.008738,-84.167383,2.601530
01218,158478,9.059095,-0.473653,2.058143,-0.058723,-0.232383,0.064763,-0.554403,0.228244,-0.456409,-0.391260,-84.300913,2.969652
01219,158578,9.196507,-0.395378,1.944372,-0.074068,-0.191242,0.057849,-0.552461,0.230559,-0.453283,-0.774967,-84.410588,3.312484
01220,158678,9.284533,-0.385451,1.630771,-0.083494,-0.129446,0.054250,-0.553433,0.228654,-0.454884,-1.150123,-84.484622,3.641241
01221,158778,9.278754,-0.389382,1.382138,-0.094329,-0.098684,0.049709,-0.552894,0.231234,-0.456756,-1.509225,-84.540856,3.947593
01222,158878,9.427841,-0.395786,1.309373,-0.085001,-0.110090,0.045166,-0.554957,0.228108,-0.453411,-1.844790,-84.603492,4.235636
01223,158978,9.592698,-0.444195,1.266767,-0.060669,-0.144805,0.042357,-0.552979,0.230021,-0.452309,-2.164670,-84.685879,4.521890
01224,159078,9.630994,-0.521326,1.224425,-0.029802,-0.191064,0.035668,-0.555480,0.229538,-0.451835,-2.447090,-84.794737,4.788239
01225,159178,9.578645,-0.621836,1.267033,0.014522,-0.236446,0.026667,-0.558015,0.230453,-0.449286,-2.671815,-84.929664,5.022101
01226,159278,9.592566,-0.791672,1.344379,0.075474,-0.265931,0.024375,-0.558523,0.230438,-0.448786,-2.868895,-85.081413,5.263213
01227,159378,9.571264,-0.890839,1.284044,0.144125,-0.285856,0.025824,-0.558072,0.229811,-0.446313,-3.057948,-85.244414,5.535682
01228,159478,9.431237,-0.990990,1.180530,0.207098,-0.286215,0.024655,-0.557510,0.229473,-0.449836,-3.219238,-85.407554,5.816428
01229,159578,9.219671,-1.102077,0.955363,0.281834,-0.255295,0.019312,-0.560558,0.227383,-0.446940,-3.301146,-85.553112,6.060435
01230,159678,9.220702,-1.243492,0.678220,0.365413,-0.217844,0.008374,-0.559534,0.227440,-0.448439,-3.246604,-85.677596,6.215571
01231,159778,9.590767,-1.311083,0.570619,0.451904,-0.178532,0.000366,-0.558566,0.227352,-0.446940,-3.066405,-85.779869,6.294368
01232,159878,10.202532,-1.107477,0.804030,0.519847,-0.121750,-0.014435,-0.559597,0.223310,-0.445644,-2.705151,-85.850092,6.230648
01233,159978,10.774967,-0.569729,1.237880,0.512419,-0.065572,-0.040006,-0.556652,0.219180,-0.443847,-2.118323,-85.888697,5.936502
01234,160078,11.231494,0.053365,1.914421,0.415301,-0.041454,-0.062902,-0.555612,0.217790,-0.446422,-1.389744,-85.913570,5.444462
01235,160178,11.553517,0.538822,2.743868,0.256773,-0.035447,-0.083045,-0.555157,0.214198,-0.444600,-0.581304,-85.934598,4.781308
01236,160278,11.750871,1.066188,3.431329,0.066107,-0.004328,-0.108279,-0.552603,0.213331,-0.448149,0.329183,-85.936948,3.906334
01237,160378,11.865770,1.694333,3.612579,-0.129352,0.100430,-0.151822,-0.549613,0.214280,-0.448097,1.459083,-85.877601,2.699071
01238,160478,11.765497,2.020168,3.214781,-0.258372,0.253027,-0.219103,-0.552078,0.212897,-0.449674,2.946911,-85.727282,1.058633
01239,160578,11.602458,1.902679,2.268637,-0.296887,0.382316,-0.283407,-0.551549,0.209497,-0.451850,4.701680,-85.497140,-0.872071
01240,160678,11.649193,1.591201,1.343374,-0.283830,0.432498,-0.330507,-0.553582,0.207440,-0.449954,6.567536,-85.231138,-2.907377
01241,160778,12.361258,0.990457,0.656802,-0.283179,0.435346,-0.335521,-0.554019,0.205623,-0.453554,8.256208,-84.958199,-4.765267
01242,160878,13.300603,0.024535,-0.170369,-0.282507,0.414481,-0.327290,-0.555994,0.204707,-0.454605,9.733905,-84.693619,-6.411697
01243,160978,13.724111,-1.286190,-1.512355,-0.240266,0.330061,-0.282402,-0.557421,0.200937,-0.458807,10.921172,-84.478067,-7.742718
01244,161078,13.204555,-1.866500,-2.906446,-0.197882,0.174908,-0.219223,-0.558846,0.198663,-0.462933,11.866821,-84.354820,-8.806936
01245,161178,12.178372,-1.638642,-3.473018,-0.178593,-0.024455,-0.175760,-0.559845,0.196685,-0.463035,12.790774,-84.347144,-9.838348
01246,161278,11.072594,-0.843983,-3.143317,-0.139567,-0.215014,-0.147695,-0.557838,0.194709,-0.464135,13.840990,-84.447964,-10.974060
01247,161378,10.105591,0.306853,-2.179748,-0.082500,-0.352729,-0.145102,-0.561372,0.194146,-0.461663,15.166449,-84.623432,-12.353139
01248,161478,9.307638,1.552180,-0.689488,-0.033494,-0.433768,-0.154388,-0.562927,0.191534,-0.458792,16.815549,-84.838683,-14.028575
01249,161578,8.619053,2.397594,0.814312,-0.060178,-0.466068,-0.186473,-0.561964,0.188457,-0.457444,18.863458,-85.060804,-16.119134
01250,161678,8.424445,2.547896,1.993228,-0.176015,-0.412274,-0.227108,-0.562005,0.191325,-0.454793,21.163975,-85.238715,-18.529185
01251,161778,8.671945,2.232826,2.618578,-0.337803,-0.193088,-0.189008,-0.562525,0.189292,-0.453895,22.692809,-85.301165,-20.257516
01252,161878,8.979756,1.831153,1.860576,-0.461508,0.094521,-0.117144,-0.561562,0.191671,-0.451768,22.931393,-85.225347,-20.762316
01253,161978,9.126600,1.285780,0.358900,-0.485728,0.280286,-0.060083,-0.561525,0.191767,-0.453768,22.310393,-85.063989,-20.418445
01254,162078,9.504799,0.736260,-1.046620,-0.454314,0.306606,-0.010157,-0.559471,0.194870,-0.456613,21.378133,-84.898993,-19.743950
01255,162178,9.810533,0.250281,-1.820430,-0.393564,0.212352,0.027119,-0.561931,0.196476,-0.458037,20.520837,-84.791332,-19.109615
01256,162278,10.204510,-0.195742,-1.638836,-0.306654,0.085439,0.048872,-0.562431,0.200446,-0.457335,19.884421,-84.755654,-18.646992
01257,162378,10.481291,-0.440283,-0.869406,-0.222016,0.003471,0.067340,-0.564393,0.202044,-0.458758,19.364767,-84.767470,-18.252908
01258,162478,10.508141,-0.463958,-0.317988,-0.179876,-0.049911,0.072822,-0.564936,0.202929,-0.456208,18.943444,-84.809006,-17.933331
01259,162578,10.270340,-0.262302,-0.015180,-0.174436,-0.090504,0.063919,-0.567913,0.204494,-0.456633,18.655487,-84.870802,-17.744558
01260,162678,9.952195,0.106276,0.100171,-0.161403,-0.135085,0.049079,-0.567434,0.203940,-0.455659,18.552047,-84.954082,-17.733555
01261,162778,9.563736,0.505673,0.242047,-0.118090,-0.161471,0.031006,-0.565911,0.204487,-0.457132,18.640769,-85.048416,-17.890534
01262,162878,9.098630,0.838950,0.378074,-0.052389,-0.165436,0.012283,-0.568413,0.203506,-0.456684,18.900899,-85.141413,-18.181745
01263,162978,8.759734,1.035484,0.474191,-0.025822,-0.162955,0.000022,-0.569890,0.203080,-0.457710,19.261742,-85.230626,-18.558708
01264,163078,8.573354,1.096545,0.576772,-0.078094,-0.151792,-0.002043,-0.566928,0.203458,-0.456184,19.594488,-85.313203,-18.937481
01265,163178,8.460149,1.014370,0.656101,-0.175921,-0.130258,0.012356,-0.569448,0.202429,-0.454736,19.735817,-85.386783,-19.180397
01266,163278,8.337010,0.922078,0.667570,-0.281132,-0.096695,0.032054,-0.567469,0.205338,-0.453583,19.607750,-85.446026,-19.213507
01267,163378,8.336464,0.714131,0.595212,-0.348983,-0.071586,0.047779,-0.566473,0.205323,-0.453583,19.270923,-85.494691,-19.076197
01268,163478,8.424795,0.495047,0.579294,-0.370597,-0.060600,0.066141,-0.568943,0.206407,-0.454533,18.762885,-85.540738,-18.779585
01269,163578,8.392092,0.378694,0.545635,-0.361829,-0.060993,0.073403,-0.569465,0.208336,-0.452932,18.201429,-85.588088,-18.424375
01270,163678,8.442927,0.356848,0.555827,-0.341983,-0.069867,0.077645,-0.571447,0.209388,-0.453382,17.631582,-85.640738,-18.049371
01271,163778,8.667422,0.476071,0.602919,-0.305868,-0.058845,0.077789,-0.569429,0.212892,-0.454202,17.045510,-85.687075,-17.637371
01272,163878,9.053886,0.714278,0.616475,-0.274768,-0.024867,0.071607,-0.571440,0.213374,-0.453178,16.438325,-85.713399,-17.186351
01273,163978,9.267449,0.814722,0.501202,-0.258379,0.001763,0.055038,-0.569965,0.212803,-0.452204,15.900756,-85.722071,-16.795735
01274,164078,9.406533,0.860999,0.514434,-0.233698,-0.002340,0.043295,-0.572416,0.214434,-0.454127,15.471324,-85.730923,-16.499382
01275,164178,9.575335,0.823035,0.662723,-0.203524,-0.011119,0.036789,-0.572450,0.215832,-0.452052,15.124160,-85.743468,-16.268194
01276,164278,9.640860,0.699843,0.911115,-0.163615,-0.033705,0.029141,-0.572432,0.215880,-0.453052,14.900517,-85.767251,-16.137945
01277,164378,9.709655,0.669253,1.107609,-0.126088,-0.050097,0.030648,-0.571961,0.215800,-0.451552,14.717790,-85.800248,-16.027173
01278,164478,9.675905,0.593113,1.188345,-0.103548,-0.052551,0.044210,-0.572943,0.213373,-0.452679,14.447362,-85.836474,-15.815527
01279,164578,9.489310,0.487580,1.055902,-0.096998,-0.050499,0.061514,-0.573456,0.215824,-0.451552,14.039280,-85.873860,-15.462116
01280,164678,9.213083,0.372762,0.992639,-0.083112,-0.038160,0.076042,-0.573428,0.215896,-0.453052,13.495856,-85.906106,-14.965060
01281,164778,8.946842,0.430727,0.916767,-0.050418,-0.012970,0.082500,-0.575922,0.213943,-0.453154,12.866944,-85.924737,-14.363536
01282,164878,8.770635,0.501850,0.860081,-0.020659,0.005966,0.086676,-0.575426,0.212939,-0.453205,12.184369,-85.932768,-13.691134
01283,164978,8.726289,0.530783,0.924973,0.001953,0.006093,0.091647,-0.574935,0.213903,-0.452654,11.472760,-85.940688,-12.976647
01284,165078,8.807051,0.480238,1.145590,0.020135,-0.000509,0.107170,-0.572443,0.214860,-0.452602,10.655399,-85.953297,-12.145714
01285,165178,8.936297,0.430681,1.443471,0.015870,-0.002125,0.124314,-0.571957,0.212835,-0.452204,9.695510,-85.967567,-11.174369
01286,165278,9.119875,0.471667,1.706208,-0.007215,0.025790,0.145237,-0.570947,0.215334,-0.452576,8.513346,-85.966569,-9.993471
01287,165378,9.280682,0.588918,1.834511,-0.044875,0.081241,0.166344,-0.570944,0.217327,-0.452475,7.085123,-85.933744,-8.587514
01288,165478,9.344040,0.727113,1.831554,-0.079245,0.158185,0.175707,-0.570914,0.218396,-0.453923,5.527232,-85.855012,-7.071207
01289,165578,9.176582,0.832083,1.626523,-0.103581,0.215306,0.178596,-0.571927,0.219360,-0.452874,3.961141,-85.740788,-5.560478
01290,165678,9.010102,0.802730,1.383539,-0.116124,0.227502,0.172545,-0.570394,0.220429,-0.454822,2.510924,-85.616456,-4.172928
01291,165778,8.986710,0.788064,1.274061,-0.103781,0.207968,0.160554,-0.568412,0.219875,-0.454346,1.237327,-85.500586,-2.955215
01292,165878,9.127103,0.846308,1.231427,-0.085206,0.191900,0.138772,-0.567850,0.223998,-0.457142,0.192739,-85.391838,-1.956372
01293,165978,9.322481,0.904712,1.246873,-0.068005,0.192015,0.116190,-0.568353,0.221514,-0.457269,-0.637425,-85.281750,-1.162622
01294,166078,9.605606,0.905979,1.399110,-0.059997,0.203510,0.094300,-0.569363,0.224472,-0.456117,-1.275234,-85.164421,-0.557163
01295,166178,9.885993,0.899080,1.619270,-0.065130,0.215231,0.073340,-0.568794,0.222165,-0.460243,-1.745094,-85.040154,-0.123111
01296,166278,10.043653,0.894154,1.917417,-0.084474,0.217382,0.054054,-0.566766,0.226690,-0.461513,-2.078674,-84.914693,0.163090
01297,166378,10.060213,0.863251,2.285483,-0.105495,0.227348,0.038615,-0.566751,0.224745,-0.462614,-2.309348,-84.783646,0.333931
01298,166478,9.942594,0.830016,2.430887,-0.118387,0.263908,0.022289,-0.564763,0.227180,-0.461987,-2.427847,-84.631906,0.384736
01299,166578,9.674430,0.736083,2.470946,-0.089792,0.307659,0.016318,-0.566205,0.225854,-0.465062,-2.478717,-84.455157,0.384075
01300,166678,9.531770,0.580340,2.478348,-0.019268,0.360505,0.017788,-0.564203,0.225846,-0.465561,-2.483366,-84.248020,0.377571
01301,166778,9.708741,0.359510,2.363453,0.068757,0.436150,0.023172,-0.563665,0.226932,-0.467510,-2.450086,-83.997361,0.383638
01302,166878,10.417830,0.102927,2.204122,0.137735,0.516253,0.042470,-0.562094,0.228595,-0.471431,-2.461795,-83.700307,0.474709
01303,166978,11.648367,-0.141604,1.822462,0.177444,0.591093,0.077252,-0.559575,0.229126,-0.472904,-2.601867,-83.359493,0.717923
01304,167078,12.935137,-0.203654,1.294835,0.203788,0.628577,0.100076,-0.559457,0.227446,-0.479504,-2.806673,-82.996547,1.041715
01305,167178,14.005541,0.075336,0.676025,0.203619,0.614197,0.097225,-0.558421,0.229022,-0.481426,-2.976394,-82.641861,1.330308
01306,167278,14.822371,0.528090,0.097607,0.136200,0.539205,0.074736,-0.556407,0.225574,-0.483103,-3.084950,-82.330797,1.518475
01307,167378,15.436180,0.910797,-0.464548,-0.001136,0.421825,0.021161,-0.557811,0.223846,-0.488203,-3.065777,-82.088681,1.498445
01308,167478,15.320138,1.043688,-1.015223,-0.198179,0.291406,-0.040502,-0.554788,0.222400,-0.490277,-2.938543,-81.923228,1.255298
01309,167578,14.135846,1.067318,-1.202271,-0.380638,0.161112,-0.084454,-0.558705,0.224127,-0.493701,-2.772155,-81.833695,0.866942
01310,167678,12.619431,0.960549,-0.950314,-0.450324,-0.006666,-0.121765,-0.560202,0.223154,-0.493752,-2.531728,-81.841140,0.363428
01311,167778,11.444650,0.490738,-0.573561,-0.400413,-0.183155,-0.128079,-0.562242,0.222069,-0.491305,-2.263113,-81.949569,-0.139592
01312,167878,10.291726,-0.132113,-0.299939,-0.293127,-0.358825,-0.118766,-0.564238,0.225564,-0.490628,-1.984386,-82.158130,-0.590561
01313,167978,9.200059,-0.708805,-0.017281,-0.148830,-0.509037,-0.106138,-0.563781,0.223467,-0.488730,-1.674630,-82.452216,-0.989150
01314,168078,8.357968,-1.192612,0.457017,0.045942,-0.585620,-0.091684,-0.563310,0.223387,-0.487230,-1.295979,-82.789645,-1.344404
01315,168178,7.843424,-1.522955,1.005605,0.271894,-0.535994,-0.080763,-0.567793,0.223458,-0.487232,-0.798004,-83.098154,-1.689208
01316,168278,7.489196,-1.702447,1.037469,0.481621,-0.383828,-0.066684,-0.567879,0.222245,-0.482785,-0.204129,-83.318973,-2.009398
01317,168378,7.083966,-1.740389,0.673137,0.612138,-0.188697,-0.038044,-0.564888,0.218235,-0.483487,0.347923,-83.427621,-2.212104
01318,168478,6.808729,-1.607937,0.239808,0.664306,-0.003741,-0.004771,-0.565899,0.215238,-0.483140,0.764086,-83.430312,-2.247919
01319,168578,7.084858,-1.243027,0.073915,0.656219,0.145503,0.018106,-0.564431,0.216138,-0.481589,1.049949,-83.347723,-2.157234
01320,168678,7.784096,-0.774669,0.029037,0.600356,0.239014,0.026430,-0.563907,0.214708,-0.483165,1.252140,-83.211753,-2.014506
01321,168778,8.705907,-0.381279,0.009368,0.492311,0.271750,0.031123,-0.565833,0.215904,-0.486613,1.366121,-83.057191,-1.845238
01322,168878,9.717976,-0.029552,0.013368,0.344989,0.252908,0.046431,-0.560353,0.216316,-0.486586,1.329118,-82.913699,-1.608837
01323,168978,10.698808,0.242099,0.149013,0.192292,0.225152,0.072121,-0.561339,0.216356,-0.487086,1.097185,-82.786406,-1.264078
01324,169078,11.479261,0.348246,0.255686,0.073660,0.215876,0.098785,-0.558278,0.215504,-0.491134,0.689826,-82.664483,-0.810893
01325,169178,11.914356,0.279541,0.313741,-0.011408,0.232847,0.103650,-0.560253,0.215086,-0.492160,0.226663,-82.532481,-0.350452
01326,169278,11.764269,0.040602,0.286838,-0.063623,0.241578,0.080798,-0.558705,0.213712,-0.495234,-0.151928,-82.395093,-0.005354
01327,169378,11.240617,-0.097636,0.251084,-0.075762,0.195971,0.054526,-0.559683,0.213776,-0.496234,-0.415278,-82.283713,0.216551
01328,169478,10.581730,-0.141469,0.435789,-0.048398,0.129311,0.037862,-0.558158,0.209863,-0.498436,-0.589626,-82.210536,0.364507
01329,169578,9.875972,-0.058125,0.728673,0.005181,0.072510,0.014711,-0.560616,0.207507,-0.500563,-0.637077,-82.170022,0.415383
01330,169678,9.302255,-0.039712,0.977653,0.072514,0.017106,-0.012164,-0.561596,0.201119,-0.502393,-0.536458,-82.161410,0.355738
01331,169778,8.941020,-0.102523,1.204148,0.141091,-0.045034,-0.030253,-0.562078,0.199680,-0.503469,-0.323289,-82.188439,0.222146
01332,169878,8.739886,-0.146602,1.475715,0.186419,-0.082015,-0.030976,-0.564096,0.195678,-0.502673,-0.080372,-82.236551,0.084750
01333,169978,8.588124,-0.268535,1.715415,0.207272,-0.078577,-0.012720,-0.563090,0.190728,-0.503927,0.099484,-82.282577,0.023063
01334,170078,8.400912,-0.342041,1.810701,0.202811,-0.027816,0.021167,-0.563050,0.192319,-0.505850,0.133575,-82.299487,0.105890
01335,170178,8.230181,-0.251681,1.605633,0.162063,0.046116,0.045783,-0.562540,0.188871,-0.507027,0.039513,-82.274010,0.294475
01336,170278,8.085439,-0.207110,1.328377,0.120558,0.088291,0.059619,-0.563066,0.188807,-0.505527,-0.135219,-82.224275,0.540487
01337,170378,8.051178,-0.208945,1.213527,0.080563,0.091938,0.063960,-0.563514,0.185472,-0.508704,-0.348255,-82.172307,0.802059
01338,170478,8.191388,-0.195511,1.206100,0.047859,0.070470,0.061215,-0.560025,0.186911,-0.508627,-0.566503,-82.132499,1.050003
01339,170578,8.355467,-0.166971,1.192334,0.026165,0.057052,0.059957,-0.561507,0.188454,-0.509051,-0.790493,-82.100240,1.291212
01340,170678,8.519999,-0.224675,1.152509,0.005462,0.049095,0.058971,-0.561508,0.187955,-0.509077,-1.021081,-82.072406,1.527124
01341,170778,8.641773,-0.372186,1.184823,-0.008775,0.031329,0.057633,-0.564476,0.189546,-0.510001,-1.254468,-82.054621,1.757634
01342,170878,8.726982,-0.517084,1.368430,-0.019821,0.011754,0.055396,-0.562963,0.189570,-0.511000,-1.486286,-82.047927,1.980173
01343,170978,8.687963,-0.627576,1.598554,-0.023817,-0.005994,0.052659,-0.564456,0.190092,-0.510975,-1.711233,-82.051283,2.193457
01344,171078,8.655732,-0.703063,1.786753,-0.030522,-0.019093,0.050638,-0.563064,0.189803,-0.505477,-1.934014,-82.062016,2.400665
01345,171178,8.635624,-0.682687,1.963473,-0.041623,-0.017682,0.047106,-0.565497,0.190984,-0.508425,-2.149274,-82.071847,2.593845
01346,171278,8.573808,-0.611035,2.077696,-0.042615,0.005471,0.043444,-0.564987,0.192495,-0.508849,-2.346882,-82.068347,2.768620
01347,171378,8.595674,-0.492228,2.131292,-0.040827,0.045255,0.037191,-0.564530,0.189899,-0.506977,-2.510667,-82.042084,2.910279
01348,171478,8.646322,-0.268923,2.076484,-0.048308,0.095957,0.022289,-0.565976,0.191040,-0.509425,-2.607620,-81.987078,2.980134
01349,171578,8.645250,-0.182093,1.972928,-0.048256,0.119092,0.006260,-0.563983,0.186548,-0.510153,-2.634453,-81.919188,2.979208
01350,171678,8.625845,-0.176675,1.901648,-0.051472,0.103957,-0.008258,-0.566943,0.192124,-0.510874,-2.607654,-81.860295,2.922244
01351,171778,8.505755,-0.217998,1.756589,-0.041937,0.053032,-0.021408,-0.567948,0.192615,-0.510350,-2.532732,-81.830843,2.822175
01352,171878,8.384386,-0.271869,1.813006,-0.003833,-0.017083,-0.028834,-0.566991,0.191506,-0.508401,-2.418981,-81.841644,2.704930
01353,171978,8.453385,-0.368829,1.921814,0.049496,-0.066349,-0.033974,-0.566009,0.188477,-0.508053,-2.261752,-81.880683,2.574633
01354,172078,8.534089,-0.455182,1.889539,0.100002,-0.087632,-0.035270,-0.568411,0.191224,-0.512425,-2.072219,-81.931835,2.440947
01355,172178,8.672289,-0.526286,1.795059,0.145659,-0.093982,-0.035916,-0.569937,0.189183,-0.511028,-1.852816,-81.986529,2.303527
01356,172278,8.831081,-0.537390,1.614639,0.184431,-0.095839,-0.036404,-0.570005,0.187519,-0.507605,-1.607114,-82.042190,2.161997
01357,172378,9.001426,-0.594776,1.509127,0.223054,-0.120028,-0.040695,-0.570524,0.185984,-0.506682,-1.321437,-82.111656,2.002468
01358,172478,9.230796,-0.623053,1.623219,0.249044,-0.170454,-0.051144,-0.573986,0.184617,-0.508259,-0.977378,-82.209982,1.799067
01359,172578,9.404597,-0.560753,1.925623,0.256367,-0.219767,-0.060065,-0.572485,0.182625,-0.508859,-0.586925,-82.336409,1.553131
01360,172678,9.488795,-0.457354,2.312885,0.257836,-0.244666,-0.068223,-0.577501,0.184102,-0.506786,-0.150288,-82.476825,1.261524
01361,172778,9.521713,-0.316860,2.718521,0.263752,-0.251836,-0.068323,-0.576565,0.181949,-0.503888,0.303996,-82.620959,0.955627
01362,172878,9.583316,-0.210613,2.908947,0.270599,-0.216057,-0.067457,-0.579516,0.182093,-0.505888,0.771350,-82.744175,0.640595
01363,172978,9.594989,-0.184248,2.792841,0.267159,-0.150282,-0.065531,-0.577094,0.179892,-0.502491,1.235156,-82.829309,0.327218
01364,173078,9.450939,-0.150577,2.587194,0.248551,-0.091597,-0.072696,-0.577120,0.175858,-0.501694,1.722638,-82.880313,-0.020723
01365,173178,9.548920,-0.168402,2.547472,0.221364,-0.057583,-0.080838,-0.579596,0.173952,-0.502796,2.231998,-82.911221,-0.406384
01366,173278,9.911870,-0.050003,2.742242,0.174102,-0.022385,-0.095294,-0.578629,0.177826,-0.500593,2.777083,-82.921094,-0.855320
01367,173378,10.467712,0.222456,3.021605,0.113253,0.034948,-0.119221,-0.577606,0.171928,-0.502897,3.383513,-82.896772,-1.401220
01368,173478,10.970397,0.520934,3.410495,0.067150,0.088680,-0.146719,-0.581132,0.170891,-0.500950,4.068003,-82.839830,-2.052464
01369,173578,11.386532,0.871914,3.788823,0.031477,0.109162,-0.178358,-0.580126,0.171397,-0.501424,4.856575,-82.768606,-2.829318
01370,173678,11.761985,1.036648,4.205910,0.001514,0.116728,-0.216879,-0.580609,0.169460,-0.502526,5.780884,-82.689415,-3.760452
01371,173778,12.027590,0.997234,4.478743,-0.013708,0.134965,-0.259372,-0.582624,0.166952,-0.501653,6.853356,-82.594947,-4.849967
01372,173878,11.918156,0.782873,4.629620,-0.017704,0.185770,-0.293467,-0.582610,0.164509,-0.502780,8.012091,-82.466210,-6.029081
01373,173978,11.738871,0.418218,4.588287,-0.023119,0.272955,-0.314497,-0.583043,0.164686,-0.506279,9.157149,-82.283054,-7.197967
01374,174078,11.833723,-0.050012,4.293347,-0.036906,0.391477,-0.312117,-0.581556,0.160676,-0.506482,10.144049,-82.030183,-8.215795
01375,174178,12.171579,-0.516952,3.674175,-0.093255,0.504502,-0.290034,-0.586475,0.159429,-0.510058,10.866115,-81.713811,-8.999440
01376,174278,12.222292,-1.111064,2.714903,-0.128012,0.558538,-0.248969,-0.582453,0.158964,-0.512081,11.319741,-81.370439,-9.532501
01377,174378,12.122577,-1.422032,1.561284,-0.070661,0.545661,-0.188965,-0.584909,0.157605,-0.514158,11.563238,-81.040695,-9.820168
01378,174478,12.615306,-1.523135,0.663948,0.046043,0.514976,-0.108906,-0.584413,0.156601,-0.514208,11.599759,-80.737384,-9.830751
01379,174578,13.347286,-1.621172,-0.125198,0.216963,0.468111,-0.025125,-0.582868,0.153733,-0.517359,11.482889,-80.470147,-9.586603
01380,174678,13.302555,-1.368398,-1.185008,0.362354,0.376284,0.023155,-0.579844,0.147328,-0.520187,11.359998,-80.260095,-9.251674
01381,174778,12.422075,-0.738176,-2.126820,0.369445,0.256031,0.056786,-0.580864,0.144307,-0.519340,11.218615,-80.121510,-8.893665
01382,174878,11.552725,0.012952,-2.152146,0.334094,0.082128,0.077386,-0.578380,0.140780,-0.519517,11.106332,-80.083071,-8.585639
01383,174978,10.774924,0.912618,-1.633334,0.370333,-0.122247,0.069081,-0.578425,0.141656,-0.516968,11.171481,-80.158777,-8.436634
01384,175078,9.948130,1.479198,-0.748046,0.445497,-0.298188,0.051726,-0.579439,0.136665,-0.516722,11.451432,-80.331581,-8.461919
01385,175178,9.280578,1.868360,0.272050,0.446423,-0.404228,0.027590,-0.577538,0.131932,-0.512452,11.893074,-80.561108,-8.650597
01386,175278,9.008999,2.033650,1.070575,0.318839,-0.405061,0.000976,-0.581073,0.131369,-0.509979,12.369502,-80.787639,-8.948469
01387,175378,8.975459,1.980109,1.430241,0.104793,-0.268369,0.000169,-0.577093,0.128316,-0.510130,12.636597,-80.937267,-9.158366
01388,175478,8.752461,1.930093,1.221832,-0.102935,-0.059294,0.008919,-0.579637,0.129706,-0.507056,12.594210,-80.971011,-9.175339
01389,175578,8.670383,1.750788,0.334341,-0.248377,0.102291,0.038879,-0.579643,0.131675,-0.506455,12.238281,-80.918079,-8.959185
01390,175678,9.043661,1.621793,-0.760470,-0.343484,0.143228,0.088481,-0.578089,0.133789,-0.509352,11.629290,-80.847901,-8.541863
01391,175778,9.816838,1.472912,-1.546476,-0.386114,0.086309,0.119480,-0.579614,0.137204,-0.507175,10.935545,-80.812599,-8.063349
01392,175878,10.562984,1.203002,-1.681606,-0.357089,0.008949,0.124590,-0.580623,0.140659,-0.505998,10.294998,-80.820701,-7.621837
01393,175978,11.018640,0.792021,-1.587670,-0.265212,-0.056545,0.103838,-0.575670,0.145466,-0.503743,9.819077,-80.863176,-7.293769
01394,176078,11.174804,0.316919,-1.191082,-0.131221,-0.109386,0.067250,-0.581089,0.148189,-0.506617,9.577270,-80.931807,-7.125086
01395,176178,11.030317,-0.130137,-0.635339,-0.003069,-0.175608,0.049385,-0.577652,0.146518,-0.504193,9.509347,-81.036224,-7.058150
01396,176278,10.751009,-0.324877,-0.050122,0.083778,-0.246579,0.049392,-0.581157,0.146525,-0.503194,9.532819,-81.180845,-7.033375
01397,176378,10.333592,-0.294242,0.365616,0.108945,-0.286278,0.057322,-0.582160,0.148012,-0.502619,9.565976,-81.348725,-7.003817
01398,176478,9.842208,-0.222250,0.718842,0.091002,-0.315915,0.080200,-0.582168,0.148486,-0.502094,9.520773,-81.535567,-6.905429
01399,176578,9.432174,-0.110701,1.000756,0.034947,-0.311477,0.108222,-0.582731,0.148823,-0.498569,9.328013,-81.722518,-6.690407
01400,176678,8.997154,-0.037557,1.091190,-0.046957,-0.273021,0.136856,-0.582250,0.149266,-0.497545,8.940194,-81.890165,-6.325825
01401,176778,8.582250,0.093097,1.020668,-0.139800,-0.219606,0.162471,-0.583232,0.152295,-0.497892,8.346744,-82.029313,-5.807436
01402,176878,8.165978,0.197526,0.974095,-0.219822,-0.172926,0.186602,-0.582800,0.151620,-0.494419,7.562033,-82.143005,-5.142399
01403,176978,7.940462,0.303461,0.917521,-0.264881,-0.143144,0.207203,-0.581810,0.153573,-0.493817,6.629473,-82.239834,-4.354359
01404,177078,7.865742,0.420449,0.887706,-0.265413,-0.134244,0.224031,-0.580338,0.155968,-0.492190,5.600244,-82.330772,-3.469253
01405,177178,8.027939,0.524288,0.924805,-0.243737,-0.135746,0.233353,-0.579384,0.158822,-0.489538,4.521586,-82.420832,-2.521935
01406,177278,8.141953,0.654075,0.981797,-0.215755,-0.134629,0.230510,-0.581319,0.159496,-0.492512,3.447407,-82.507755,-1.563161
01407,177378,8.180748,0.764211,1.011274,-0.195065,-0.125392,0.210403,-0.580936,0.162663,-0.485837,2.448744,-82.586500,-0.668774
01408,177478,8.109036,0.826688,0.975710,-0.181212,-0.108298,0.179972,-0.580467,0.162084,-0.484363,1.571621,-82.652924,0.110913
01409,177578,8.072506,0.804627,0.844627,-0.171245,-0.099431,0.148918,-0.583474,0.167540,-0.482585,0.824300,-82.712466,0.765379
01410,177678,7.971235,0.732417,0.717951,-0.166270,-0.107154,0.117605,-0.582934,0.165161,-0.485211,0.210345,-82.775280,1.288186
01411,177778,7.955390,0.673079,0.691855,-0.157625,-0.129676,0.087103,-0.583990,0.167998,-0.481560,-0.269563,-82.850377,1.680799
01412,177878,8.045752,0.614702,0.944153,-0.141224,-0.149426,0.064587,-0.585473,0.169042,-0.482009,-0.645997,-82.936513,1.978536
01413,177978,8.199661,0.552999,1.164373,-0.124079,-0.151708,0.053866,-0.589991,0.170013,-0.479961,-0.970581,-83.023791,2.233872
01414,178078,8.506741,0.499838,1.336829,-0.119008,-0.139097,0.059181,-0.587069,0.169299,-0.476487,-1.323184,-83.103565,2.520313
01415,178178,8.821840,0.436839,1.436726,-0.122228,-0.105075,0.082031,-0.586550,0.170336,-0.477435,-1.789354,-83.163212,2.919237
01416,178278,8.973207,0.468375,1.434849,-0.131950,-0.068769,0.104792,-0.588039,0.173349,-0.477283,-2.370963,-83.201122,3.428770
01417,178378,8.905321,0.552983,1.338870,-0.152164,-0.046861,0.126749,-0.589562,0.173301,-0.475784,-3.070327,-83.225188,4.045190
01418,178478,8.696129,0.702211,1.296179,-0.184228,-0.038327,0.135878,-0.590578,0.172770,-0.474811,-3.833693,-83.243098,4.707532
01419,178578,8.502710,0.822712,1.213999,-0.211782,-0.041873,0.128731,-0.590109,0.176651,-0.472608,-4.582932,-83.262278,5.339726
01420,178678,8.444565,0.823920,1.218556,-0.221411,-0.049131,0.116148,-0.591620,0.177624,-0.471558,-5.283384,-83.285257,5.917209
01421,178778,8.621990,0.677245,1.267412,-0.209386,-0.051737,0.113291,-0.591644,0.180043,-0.469932,-5.968314,-83.309036,6.485973
01422,178878,8.854160,0.512480,1.318224,-0.185268,-0.032577,0.114072,-0.595582,0.180724,-0.472406,-6.636550,-83.321040,7.051818
01423,178978,9.082627,0.296918,1.457169,-0.152716,-0.004216,0.118233,-0.594592,0.182179,-0.471830,-7.290777,-83.315829,7.622331
01424,179078,9.171816,0.015997,1.589527,-0.118726,0.012513,0.125021,-0.595585,0.184188,-0.471729,-7.946064,-83.299800,8.213528
01425,179178,9.279712,-0.105453,1.775062,-0.081204,0.008460,0.130410,-0.596598,0.185152,-0.470679,-8.605698,-83.284781,8.830764
01426,179278,9.371026,-0.165534,2.025780,-0.045528,0.009103,0.142936,-0.596092,0.184172,-0.471229,-9.301504,-83.267363,9.505022
01427,179378,9.388400,-0.219719,2.165950,-0.020758,0.026391,0.149706,-0.592635,0.188504,-0.469000,-9.997259,-83.238497,10.193546
01428,179478,9.412723,-0.196381,2.208856,-0.002031,0.047730,0.153816,-0.594138,0.188504,-0.468501,-10.676712,-83.196138,10.876507
01429,179578,9.392250,-0.024052,2.202242,0.002657,0.078793,0.159038,-0.595675,0.190898,-0.465875,-11.340135,-83.134724,11.546097
01430,179678,9.320588,0.206999,2.066715,-0.019673,0.121334,0.157851,-0.594200,0.190328,-0.464901,-11.957146,-83.048630,12.156151
01431,179778,9.179867,0.401057,1.861861,-0.065820,0.157111,0.149487,-0.590175,0.191855,-0.466822,-12.511257,-82.942729,12.676318
01432,179878,9.164704,0.512745,1.732583,-0.117145,0.176287,0.137212,-0.589639,0.192442,-0.468796,-13.004166,-82.827057,13.105297
01433,179978,9.308756,0.647149,1.775322,-0.148957,0.171347,0.123352,-0.589660,0.196356,-0.467093,-13.444867,-82.715496,13.463385
01434,180078,9.568368,0.698006,2.022672,-0.137724,0.159441,0.111237,-0.588681,0.197288,-0.466043,-13.827306,-82.611839,13.769306
01435,180178,9.857943,0.624733,2.416979,-0.083643,0.172623,0.092010,-0.588681,0.197288,-0.466043,-14.073824,-82.503236,13.969476
01436,180278,10.169205,0.591750,2.882661,0.000451,0.238332,0.068559,-0.585722,0.195674,-0.464619,-14.099392,-82.361245,13.995419
01437,180378,10.468299,0.382992,3.197217,0.094859,0.349318,0.051119,-0.586683,0.200246,-0.465890,-13.887154,-82.159880,13.835969
01438,180478,11.064711,-0.084106,3.253178,0.192556,0.471476,0.053019,-0.583151,0.199315,-0.468438,-13.519973,-81.890059,13.576499
01439,180578,12.036823,-0.621807,2.820184,0.296619,0.561659,0.079486,-0.581131,0.198857,-0.469963,-13.134390,-81.566170,13.358492
01440,180678,13.071142,-1.028480,2.206342,0.389712,0.591408,0.100078,-0.581129,0.200352,-0.469886,-12.769022,-81.222808,13.214691
01441,180778,14.115645,-0.930320,1.479664,0.421684,0.577050,0.104456,-0.581027,0.200617,-0.475384,-12.431472,-80.886838,13.117465
01442,180878,15.302058,-0.587789,0.649052,0.376977,0.512446,0.108848,-0.582989,0.196261,-0.477612,-12.196895,-80.586521,13.098538
01443,180978,16.235005,0.057096,-0.675365,0.252613,0.377927,0.082273,-0.579489,0.193762,-0.478738,-12.047941,-80.364933,13.094175
01444,181078,16.134368,0.474279,-2.360500,0.014277,0.193266,0.018384,-0.581467,0.191351,-0.479865,-11.957586,-80.254722,13.010737
01445,181178,15.271880,0.249481,-2.603331,-0.213238,0.006294,-0.051139,-0.581382,0.192066,-0.484338,-11.901035,-80.257810,12.829329
01446,181278,14.026105,-0.110032,-1.955463,-0.303313,-0.138126,-0.118453,-0.580968,0.191841,-0.479840,-11.773816,-80.349961,12.523904
01447,181378,12.454765,-0.462888,-1.289614,-0.310580,-0.242331,-0.126728,-0.581933,0.193922,-0.481238,-11.690596,-80.501591,12.258990
01448,181478,10.883703,-0.824123,-1.184920,-0.248280,-0.376523,-0.093664,-0.583990,0.193785,-0.477740,-11.773540,-80.724773,12.198818
01449,181578,9.573508,-1.188910,-1.120986,-0.175579,-0.555851,-0.069305,-0.586021,0.193223,-0.475767,-12.034954,-81.045743,12.361626
01450,181678,8.542087,-1.717861,-0.614676,-0.030012,-0.706509,-0.066262,-0.583604,0.193488,-0.471742,-12.360656,-81.450637,12.673694
01451,181778,7.953453,-2.297929,0.065682,0.241538,-0.779662,-0.065704,-0.586169,0.193335,-0.467745,-12.625995,-81.896138,13.081642
01452,181878,7.815439,-2.489511,0.897315,0.550970,-0.704115,-0.066417,-0.585767,0.191592,-0.462822,-12.674582,-82.299285,13.449310
01453,181978,7.979193,-2.008234,1.443119,0.737654,-0.481661,-0.068217,-0.584324,0.188458,-0.460476,-12.411795,-82.578265,13.610471
01454,182078,8.211991,-1.333507,1.615911,0.745681,-0.208220,-0.077291,-0.581393,0.187270,-0.457527,-11.839396,-82.705244,13.464005
01455,182178,8.323870,-0.685766,1.419823,0.639394,-0.019598,-0.079981,-0.580364,0.184859,-0.459652,-11.135380,-82.726357,13.123480
01456,182278,8.512201,-0.102960,1.079649,0.469886,0.053188,-0.094288,-0.581353,0.183903,-0.460203,-10.402413,-82.707466,12.655860
01457,182378,8.916073,0.248942,0.641701,0.335981,0.059712,-0.107640,-0.581913,0.185237,-0.456629,-9.685409,-82.685487,12.126964
01458,182478,9.337489,0.588031,0.279627,0.252707,0.055350,-0.106760,-0.577927,0.186170,-0.456577,-9.026545,-82.665116,11.608560
01459,182578,9.665654,0.719642,-0.023145,0.195151,0.049120,-0.097178,-0.582934,0.187173,-0.455028,-8.449813,-82.646775,11.139700
01460,182678,9.726397,0.454563,-0.335983,0.151389,0.021545,-0.093353,-0.584945,0.187157,-0.454029,-7.934338,-82.643252,10.707317
01461,182778,9.568554,0.065523,-0.343003,0.095843,-0.019721,-0.101846,-0.588889,0.189309,-0.455928,-7.437599,-82.663377,10.261747
01462,182878,9.331282,-0.282158,-0.157149,0.027272,-0.084935,-0.110038,-0.590404,0.193246,-0.454226,-6.976875,-82.720727,9.812918
01463,182978,9.196323,-0.579737,0.076859,-0.016135,-0.160528,-0.099997,-0.593403,0.192771,-0.453752,-6.618617,-82.820019,9.442388
01464,183078,9.046969,-0.818585,0.369318,-0.024342,-0.203581,-0.081941,-0.596373,0.193365,-0.454727,-6.359957,-82.942407,9.167580
01465,183178,8.881683,-0.842423,0.648864,0.000110,-0.200903,-0.061865,-0.595423,0.193229,-0.452228,-6.170749,-83.061873,8.976930
01466,183278,8.757895,-0.715434,0.815492,0.031937,-0.156454,-0.050373,-0.599438,0.191725,-0.450806,-5.989280,-83.155224,8.812486
01467,183378,8.724053,-0.581491,0.879183,0.051994,-0.099060,-0.044903,-0.601914,0.189820,-0.451908,-5.789932,-83.215457,8.641635
01468,183478,8.755325,-0.540432,0.845005,0.068482,-0.063556,-0.034300,-0.599879,0.192874,-0.453754,-5.612336,-83.254761,8.502217
01469,183578,8.827951,-0.562451,0.862301,0.070258,-0.057529,-0.014098,-0.603873,0.192913,-0.453256,-5.527213,-83.289447,8.456948
01470,183678,8.803683,-0.525423,0.905483,0.067760,-0.071915,0.004189,-0.603902,0.192343,-0.451782,-5.538949,-83.331303,8.507763
01471,183778,8.848515,-0.440336,0.991614,0.048742,-0.101562,0.019781,-0.604931,0.194754,-0.449656,-5.653114,-83.389162,8.650722
01472,183878,9.007314,-0.309677,1.114457,0.014932,-0.126532,0.023978,-0.606430,0.197244,-0.449029,-5.822548,-83.460944,8.829794
01473,183978,9.092150,-0.230943,1.193651,-0.016947,-0.143346,0.022524,-0.605418,0.195782,-0.450105,-6.015829,-83.542297,9.014455
01474,184078,9.063881,-0.178627,1.216121,-0.033861,-0.155813,0.017629,-0.607430,0.200225,-0.448377,-6.205630,-83.630946,9.185829
01475,184178,8.951525,-0.130461,1.112463,-0.040878,-0.169967,0.015760,-0.612406,0.203792,-0.448201,-6.403084,-83.727679,9.360824
01476,184278,8.855643,-0.189139,1.038861,-0.037300,-0.190253,0.014480,-0.611947,0.202193,-0.446278,-6.609916,-83.835947,9.547280
01477,184378,8.802512,-0.290767,1.063806,-0.030130,-0.201219,0.012667,-0.613453,0.206155,-0.445076,-6.816975,-83.950473,9.738054
01478,184478,8.763465,-0.400728,1.144023,-0.030085,-0.201173,0.002027,-0.616460,0.206652,-0.444051,-6.973536,-84.065606,9.878037
01479,184578,8.744030,-0.529144,1.167993,-0.029241,-0.190780,-0.008877,-0.620471,0.207639,-0.442502,-7.067614,-84.175522,9.955661
01480,184678,8.749063,-0.599895,1.213847,-0.014498,-0.195944,-0.017468,-0.621986,0.211577,-0.440800,-7.111499,-84.288933,9.991311
01481,184778,8.807548,-0.599356,1.303849,-0.001734,-0.206782,-0.019995,-0.623052,0.208933,-0.437429,-7.143002,-84.408640,10.021857
01482,184878,8.942264,-0.570273,1.412943,0.004120,-0.208857,-0.023491,-0.625032,0.210483,-0.437853,-7.153429,-84.529727,10.034591
01483,184978,9.049770,-0.552639,1.518746,0.015032,-0.197184,-0.028502,-0.626617,0.211761,-0.432779,-7.118922,-84.644482,10.008465
01484,185078,9.187495,-0.527296,1.598969,0.027719,-0.170624,-0.029997,-0.627572,0.214364,-0.434652,-7.046228,-84.744184,9.951290
01485,185178,9.336371,-0.500656,1.597205,0.038465,-0.129566,-0.038336,-0.631097,0.213825,-0.432679,-6.881085,-84.821050,9.807470
01486,185278,9.382701,-0.444865,1.508172,0.034831,-0.086243,-0.050165,-0.631575,0.219836,-0.432874,-6.606064,-84.873962,9.551250
01487,185378,9.386898,-0.502168,1.370553,0.030393,-0.056415,-0.062133,-0.634076,0.218855,-0.432426,-6.230506,-84.910486,9.191554
01488,185478,9.375497,-0.582913,1.206457,0.047392,-0.022673,-0.074320,-0.636087,0.218838,-0.431427,-5.739599,-84.928233,8.725848
01489,185578,9.455514,-0.670026,1.109298,0.086388,0.023385,-0.084721,-0.638593,0.220823,-0.430327,-5.129339,-84.919849,8.162753
01490,185678,9.681911,-0.760312,1.104691,0.131062,0.071096,-0.093535,-0.638021,0.221007,-0.434325,-4.415451,-84.884042,7.521296
01491,185778,9.921789,-0.808096,1.191198,0.157572,0.120691,-0.104311,-0.638071,0.218894,-0.431927,-3.607862,-84.819539,6.800957
01492,185878,10.070894,-0.860578,1.229516,0.152596,0.149003,-0.118049,-0.641523,0.217551,-0.434004,-2.728189,-84.738300,6.005288
01493,185978,10.116538,-0.873818,1.164553,0.145996,0.153407,-0.126870,-0.641493,0.218620,-0.435453,-1.823365,-84.653601,5.180455
01494,186078,10.143280,-0.909987,1.068594,0.167800,0.154947,-0.138193,-0.642972,0.217197,-0.436529,-0.865294,-84.566926,4.314569
01495,186178,10.261178,-0.862329,1.022604,0.222748,0.180553,-0.154896,-0.642462,0.213251,-0.437732,0.193487,-84.464205,3.379003
01496,186278,10.377772,-0.767341,1.236171,0.293336,0.254018,-0.182476,-0.642943,0.212809,-0.438757,1.405558,-84.317401,2.329849
01497,186378,10.523931,-0.440181,1.826003,0.338508,0.373360,-0.217819,-0.642403,0.209932,-0.441408,2.752714,-84.099226,1.170595
01498,186478,10.808937,0.126454,2.697978,0.316298,0.524067,-0.266619,-0.641836,0.207128,-0.445559,4.199900,-83.790291,-0.102603
01499,186578,11.255007,0.640344,3.566290,0.235868,0.684222,-0.319543,-0.641207,0.202498,-0.453310,5.658604,-83.383899,-1.434637
01500,186678,11.717872,1.023188,3.841560,0.116215,0.816418,-0.356014,-0.641687,0.197098,-0.455089,6.982950,-82.896308,-2.701610
01501,186778,12.124721,1.183590,3.535428,-0.017100,0.880351,-0.373127,-0.643543,0.195498,-0.462688,8.100968,-82.367908,-3.838967
01502,186878,12.678109,1.012717,2.774973,-0.122142,0.882275,-0.375669,-0.642946,0.193762,-0.468287,9.023623,-81.835642,-4.841269
01503,186978,13.667070,0.494636,1.862889,-0.174260,0.866181,-0.346454,-0.644304,0.192154,-0.475886,9.701881,-81.313336,-5.628022
01504,187078,14.772427,-0.095453,0.783705,-0.167546,0.833994,-0.299666,-0.642697,0.187959,-0.482612,10.158126,-80.812779,-6.187215
01505,187178,14.873460,-0.695133,-0.710094,-0.169483,0.775107,-0.202941,-0.644628,0.186167,-0.486213,10.276613,-80.354977,-6.405914
01506,187278,13.511206,-1.293859,-2.381658,-0.177961,0.618537,-0.155964,-0.647510,0.183514,-0.492364,10.316882,-79.990414,-6.550418
01507,187378,11.539495,-1.287262,-3.426096,-0.175667,0.288864,-0.149410,-0.646492,0.185041,-0.493287,10.521133,-79.812496,-6.860255
01508,187478,9.819190,-0.193100,-3.136158,-0.148422,-0.111692,-0.150922,-0.647477,0.181119,-0.494490,10.976920,-79.859786,-7.409826
01509,187578,8.472442,1.090865,-1.827665,-0.046106,-0.431136,-0.166332,-0.650538,0.177012,-0.491195,11.754994,-80.083854,-8.226900
01510,187678,7.271217,2.090421,-0.188658,0.105044,-0.620691,-0.181227,-0.648579,0.173919,-0.489848,12.847710,-80.409899,-9.274656
01511,187778,6.463905,2.706770,1.135319,0.186079,-0.736576,-0.210941,-0.652682,0.170205,-0.484030,14.264083,-80.792503,-10.602304
01512,187878,6.718931,2.924421,2.374620,0.095817,-0.721461,-0.229929,-0.654696,0.168694,-0.483107,15.798218,-81.158114,-12.100145
01513,187978,7.624100,2.784299,3.044252,-0.122716,-0.483739,-0.204971,-0.658719,0.168163,-0.481134,16.975397,-81.391284,-13.362313
01514,188078,8.186066,2.363893,2.591192,-0.322116,-0.134902,-0.160179,-0.658278,0.171972,-0.477432,17.527608,-81.438160,-14.107509
01515,188178,8.708650,1.949758,1.243193,-0.425537,0.138916,-0.133364,-0.660739,0.178537,-0.478102,17.611003,-81.339455,-14.438522
01516,188278,9.435995,1.341339,0.009150,-0.448315,0.252245,-0.096152,-0.658721,0.182539,-0.478898,17.418078,-81.185326,-14.503278
01517,188378,9.960318,0.497689,-0.640660,-0.411781,0.230763,-0.049694,-0.659235,0.189450,-0.477043,17.110228,-81.050973,-14.430545
01518,188478,10.494161,-0.335331,-0.786887,-0.352643,0.149587,-0.006318,-0.659216,0.194457,-0.477289,16.777256,-80.968392,-14.298042
01519,188578,10.833192,-0.888913,-0.724546,-0.310373,0.047830,0.036397,-0.664633,0.198674,-0.480086,16.429445,-80.948659,-14.125965
01520,188678,10.801970,-0.967188,-0.583049,-0.265696,-0.071198,0.056317,-0.667171,0.203053,-0.476860,16.158878,-80.997540,-14.006185
01521,188778,10.423346,-0.562483,-0.134273,-0.185281,-0.188602,0.045713,-0.669612,0.204707,-0.479283,16.087961,-81.109370,-14.041896
01522,188878,10.056204,-0.113709,0.268120,-0.102202,-0.283708,0.020680,-0.669107,0.208685,-0.479080,16.252505,-81.269581,-14.267695
01523,188978,9.562713,0.230042,0.661278,-0.037751,-0.334139,0.003259,-0.670649,0.208091,-0.476606,16.579802,-81.454557,-14.620658
01524,189078,9.051049,0.614578,0.943822,0.010848,-0.357813,0.006931,-0.672693,0.210469,-0.473481,16.963567,-81.652791,-15.002380
01525,189178,8.792399,1.068949,1.130842,0.019155,-0.360707,0.024868,-0.674273,0.209279,-0.469034,17.305851,-81.855258,-15.337181
01526,189278,8.638501,1.532457,1.325313,-0.031448,-0.339102,0.042949,-0.676751,0.211336,-0.469433,17.538782,-82.048736,-15.590660
01527,189378,8.472975,1.826216,1.534235,-0.107127,-0.289954,0.052385,-0.674847,0.213554,-0.464308,17.639784,-82.216848,-15.754620
01528,189478,8.462209,1.845490,1.695127,-0.193846,-0.225647,0.052379,-0.675806,0.213666,-0.466307,17.613187,-82.349769,-15.839898
01529,189578,8.668294,1.505578,1.670996,-0.259126,-0.156422,0.053513,-0.674821,0.217588,-0.465104,17.454988,-82.445030,-15.830122
01530,189678,8.799141,1.079276,1.431681,-0.288899,-0.102844,0.061942,-0.673809,0.221582,-0.465400,17.172910,-82.512379,-15.712603
01531,189778,8.878010,0.755780,1.149313,-0.305284,-0.083077,0.070149,-0.672349,0.228414,-0.462545,16.818062,-82.570163,-15.531180
01532,189878,8.782941,0.567159,0.981754,-0.312111,-0.094909,0.068123,-0.672361,0.231853,-0.461368,16.478689,-82.633953,-15.369335
01533,189978,8.662763,0.601071,0.954642,-0.311511,-0.132182,0.059695,-0.673398,0.235236,-0.458691,16.218323,-82.716754,-15.286826
01534,190078,8.735206,0.748447,1.015455,-0.306729,-0.169246,0.047097,-0.672377,0.238756,-0.459513,16.058512,-82.817891,-15.302939
01535,190178,8.790990,0.956278,1.091785,-0.297058,-0.183854,0.041508,-0.676348,0.241334,-0.459887,15.945800,-82.926170,-15.360929
01536,190278,8.849960,1.111335,1.135333,-0.269610,-0.175474,0.040852,-0.674932,0.244083,-0.455236,15.840507,-83.029714,-15.410539
01537,190378,8.895733,1.130625,1.149733,-0.218509,-0.157536,0.039834,-0.674406,0.249106,-0.455981,15.745523,-83.123192,-15.441031
01538,190478,8.973658,1.052904,1.167645,-0.148970,-0.137695,0.032365,-0.676900,0.252609,-0.455304,15.698667,-83.204543,-15.479864
01539,190578,9.067469,0.864034,1.311530,-0.075193,-0.130876,0.031046,-0.679916,0.253082,-0.453780,15.691539,-83.281899,-15.516133
01540,190678,9.238486,0.639948,1.431247,-0.014224,-0.110368,0.033347,-0.678913,0.257052,-0.453577,15.681695,-83.348267,-15.514495
01541,190778,9.445290,0.470268,1.461393,0.039375,-0.077679,0.043740,-0.677912,0.259528,-0.453449,15.609231,-83.398175,-15.418902
01542,190878,9.570409,0.432040,1.528256,0.078612,-0.041670,0.056884,-0.678890,0.259592,-0.454449,15.446983,-83.430165,-15.210310
01543,190978,9.557349,0.436504,1.536927,0.111160,-0.011915,0.064622,-0.679372,0.263111,-0.454771,15.225212,-83.446775,-14.923044
01544,191078,9.546183,0.460777,1.441415,0.119590,0.014817,0.073938,-0.677397,0.264028,-0.453721,14.927548,-83.449808,-14.554535
01545,191178,9.473870,0.482283,1.242913,0.091837,0.052026,0.085806,-0.678354,0.265136,-0.455669,14.509834,-83.433667,-14.081189
01546,191278,9.223537,0.578203,1.149155,0.044401,0.110359,0.097997,-0.678835,0.269154,-0.455966,13.938771,-83.386360,-13.480804
01547,191378,8.992120,0.721702,1.149642,0.007554,0.176643,0.109987,-0.677293,0.270247,-0.458414,13.223508,-83.302960,-12.756417
01548,191478,8.969358,0.850907,1.164396,-0.005028,0.235850,0.129132,-0.674733,0.272868,-0.461784,12.367810,-83.187744,-11.897727
01549,191578,9.067330,1.020764,1.207100,-0.001248,0.266438,0.152895,-0.674742,0.272844,-0.461285,11.404770,-83.056570,-10.928516
01550,191678,9.107309,1.239755,1.304397,-0.002535,0.265296,0.168962,-0.670683,0.277931,-0.464528,10.405309,-82.925785,-9.923083
01551,191778,9.152725,1.389656,1.506966,-0.009912,0.248026,0.172957,-0.672151,0.282487,-0.465299,9.433564,-82.803017,-8.949567
01552,191878,9.214758,1.588745,1.823912,-0.038925,0.249621,0.166157,-0.672590,0.284633,-0.468197,8.507490,-82.676707,-8.038581
01553,191978,9.269116,1.830017,2.199795,-0.110392,0.295163,0.142773,-0.670067,0.287157,-0.469568,7.647477,-82.520837,-7.235215
01554,192078,9.286193,2.044211,2.474275,-0.200061,0.377908,0.107586,-0.668962,0.290395,-0.474913,6.877802,-82.313861,-6.574481
01555,192178,9.312534,2.134655,2.681577,-0.272468,0.469604,0.077317,-0.668933,0.296422,-0.475608,6.188253,-82.051542,-6.036133
01556,192278,9.499404,1.974707,2.866709,-0.278678,0.553668,0.061404,-0.668330,0.298173,-0.481030,5.564927,-81.739473,-5.567888
01557,192378,10.105114,1.585882,3.119079,-0.203126,0.638005,0.069745,-0.670723,0.300945,-0.485901,4.964441,-81.378954,-5.078572
01558,192478,11.091131,1.053444,3.242749,-0.073322,0.749703,0.102327,-0.667685,0.303011,-0.488298,4.332138,-80.955331,-4.481280
01559,192578,12.070503,0.331414,2.883138,0.079681,0.850536,0.134951,-0.666559,0.307792,-0.494566,3.706319,-80.474362,-3.800976
01560,192678,13.101568,-0.369488,2.427420,0.245999,0.899029,0.159554,-0.665465,0.305550,-0.500191,3.147772,-79.965385,-3.091244
01561,192778,14.282268,-0.784801,1.746917,0.373066,0.916563,0.187183,-0.663371,0.305285,-0.505714,2.633790,-79.446108,-2.351677
01562,192878,14.975381,-1.101518,0.425025,0.376861,0.815084,0.226378,-0.663690,0.306747,-0.515159,2.075743,-78.984744,-1.563851
01563,192978,15.115313,-1.152555,-1.311025,0.247699,0.544372,0.234279,-0.660084,0.306009,-0.521707,1.495468,-78.677306,-0.827762
01564,193078,14.879110,-1.144771,-2.272721,0.086159,0.242593,0.218379,-0.662529,0.305670,-0.524232,0.915505,-78.541348,-0.185828
01565,193178,13.967901,-0.892622,-2.115960,0.013154,-0.041135,0.190458,-0.661059,0.307567,-0.522630,0.391247,-78.566757,0.356725
01566,193278,12.831209,-0.742579,-1.204794,0.029292,-0.269951,0.178521,-0.663019,0.305204,-0.524757,-0.093679,-78.722457,0.868420
01567,193378,11.768668,-0.779738,-0.589358,0.058377,-0.440242,0.197320,-0.663569,0.307060,-0.521657,-0.636454,-78.974861,1.455695
01568,193478,10.538438,-0.967288,-0.185891,0.106463,-0.595849,0.214708,-0.665156,0.302383,-0.517388,-1.240797,-79.315180,2.133116
01569,193578,9.230699,-0.951896,0.297202,0.194955,-0.734247,0.209595,-0.665726,0.303195,-0.513338,-1.834261,-79.733542,2.850181
01570,193678,8.192953,-0.797040,1.009117,0.323444,-0.786119,0.188846,-0.668714,0.303741,-0.513314,-2.347232,-80.180762,3.559275
01571,193778,7.418698,-0.684320,1.551586,0.495129,-0.697001,0.166851,-0.666323,0.299973,-0.508493,-2.726186,-80.576521,4.231301
01572,193878,6.887019,-0.309703,1.670506,0.643906,-0.494881,0.153351,-0.664324,0.297972,-0.509094,-2.975357,-80.856339,4.857531
01573,193978,6.692733,0.115801,1.569785,0.667351,-0.230022,0.136916,-0.663851,0.294927,-0.508247,-3.121946,-80.984730,5.393117
01574,194078,6.764422,0.264348,1.408574,0.592693,0.031507,0.116672,-0.659915,0.293248,-0.505822,-3.191158,-80.963955,5.806960
01575,194178,7.118219,0.392024,1.206021,0.490326,0.202804,0.089348,-0.655368,0.292349,-0.509371,-3.183982,-80.846005,6.084123
01576,194278,7.873397,0.326836,1.077191,0.389289,0.289537,0.067896,-0.654818,0.295451,-0.511717,-3.138375,-80.679133,6.263812
01577,194378,8.788856,0.142945,1.072009,0.307442,0.322403,0.055860,-0.651756,0.295098,-0.515740,-3.089409,-80.493860,6.392653
01578,194478,9.649092,-0.053899,1.060577,0.232100,0.301923,0.062787,-0.649759,0.297558,-0.515612,-3.108716,-80.320108,6.547023
01579,194578,10.430291,-0.238059,0.835858,0.170988,0.252438,0.093521,-0.646676,0.298249,-0.520584,-3.270448,-80.173674,6.810453
01580,194678,10.907033,-0.392438,0.414594,0.110453,0.188574,0.126340,-0.648713,0.299157,-0.518035,-3.580379,-80.062511,7.189211
01581,194778,10.696250,-0.514986,0.119622,0.043026,0.108423,0.134352,-0.651151,0.302805,-0.520357,-3.965125,-79.996542,7.604806
01582,194878,10.022626,-0.603808,0.176529,-0.017823,-0.008015,0.128525,-0.650144,0.303809,-0.520805,-4.389558,-79.996902,8.025342
01583,194978,9.641144,-0.608903,0.653332,-0.056608,-0.125421,0.133383,-0.651671,0.306228,-0.518680,-4.884514,-80.063530,8.494872
01584,195078,9.338597,-0.528259,1.106256,-0.070193,-0.172496,0.130307,-0.652169,0.306236,-0.518680,-5.398323,-80.156467,8.975520
01585,195178,9.091933,-0.493562,1.328647,-0.065530,-0.172830,0.114942,-0.652169,0.306236,-0.518680,-5.868125,-80.249741,9.414082
01586,195278,8.926065,-0.488082,1.508244,-0.044499,-0.153678,0.100458,-0.652152,0.305786,-0.519705,-6.279121,-80.332389,9.805090
01587,195378,8.823100,-0.492896,1.708778,-0.028158,-0.136884,0.088068,-0.652149,0.307280,-0.519629,-6.639344,-80.405802,10.154000
01588,195478,8.724595,-0.457925,1.836456,-0.019187,-0.114024,0.080554,-0.652729,0.308068,-0.515080,-6.964973,-80.466335,10.472970
01589,195578,8.641331,-0.388971,1.957056,-0.025647,-0.083498,0.075508,-0.652231,0.308060,-0.515080,-7.268020,-80.509540,10.765238
01590,195678,8.472129,-0.308799,1.973567,-0.034387,-0.054397,0.073164,-0.650197,0.310616,-0.516951,-7.557640,-80.536091,11.038783
01591,195778,8.211044,-0.198997,1.927479,-0.046062,-0.033691,0.072399,-0.650746,0.312971,-0.513825,-7.843175,-80.550676,11.301387
01592,195878,8.073413,-0.091890,1.760563,-0.058083,-0.040780,0.069818,-0.649690,0.315591,-0.516697,-8.131035,-80.569239,11.559352
01593,195978,8.026841,-0.087262,1.634864,-0.061315,-0.072032,0.061625,-0.648261,0.315398,-0.513198,-8.409527,-80.605959,11.805922
01594,196078,8.063139,-0.156906,1.538312,-0.069412,-0.115636,0.056575,-0.650737,0.318451,-0.513546,-8.700226,-80.667590,12.060124
01595,196178,8.163454,-0.306076,1.490986,-0.085551,-0.151632,0.050486,-0.650753,0.319399,-0.512496,-9.002442,-80.749897,12.316573
01596,196278,8.339556,-0.482132,1.507572,-0.097503,-0.167131,0.041552,-0.654761,0.322380,-0.510845,-9.294156,-80.841546,12.555380
01597,196378,8.489183,-0.627345,1.686597,-0.093557,-0.174980,0.033882,-0.653235,0.324421,-0.512242,-9.566554,-80.938129,12.776848
01598,196478,8.659250,-0.783620,1.915371,-0.087872,-0.165961,0.030979,-0.652283,0.325780,-0.509667,-9.825141,-81.029691,12.987569
01599,196578,8.924687,-0.906356,2.046148,-0.075306,-0.142565,0.020130,-0.655792,0.328752,-0.508016,-10.027381,-81.108937,13.148486
01600,196678,9.071632,-0.934748,2.071415,-0.064107,-0.129326,0.012626,-0.654314,0.330175,-0.506940,-10.190651,-81.181340,13.276420
01601,196778,9.000916,-0.908161,2.040305,-0.065041,-0.147711,0.006972,-0.655326,0.331637,-0.505864,-10.348576,-81.264582,13.398376
01602,196878,8.904179,-0.869133,2.054223,-0.071227,-0.192900,0.002844,-0.656321,0.332649,-0.505814,-10.528634,-81.373611,13.539102
01603,196978,8.789754,-0.714349,2.099933,-0.087270,-0.258741,-0.004117,-0.656339,0.332601,-0.504814,-10.742800,-81.520326,13.704974
01604,197078,8.735285,-0.629925,2.184263,-0.112055,-0.315361,-0.013976,-0.655407,0.332915,-0.501290,-10.982224,-81.699811,13.881950
01605,197178,8.680057,-0.604322,2.193187,-0.115695,-0.334186,-0.033995,-0.657437,0.332850,-0.499291,-11.168711,-81.891930,14.003250
01606,197278,8.591261,-0.608853,2.116931,-0.088261,-0.316132,-0.053827,-0.659442,0.336321,-0.498114,-11.252161,-82.076017,14.036312
01607,197378,8.500482,-0.689746,1.905035,-0.027671,-0.293043,-0.063433,-0.658986,0.338684,-0.495488,-11.244657,-82.248152,14.012589
01608,197478,8.567923,-0.725785,1.711510,0.053418,-0.280815,-0.071880,-0.657937,0.336820,-0.498588,-11.143710,-82.414312,13.941468
01609,197578,8.785729,-0.730096,1.674511,0.115863,-0.290956,-0.084631,-0.658010,0.337624,-0.494539,-10.956303,-82.587515,13.819256
01610,197678,9.263850,-0.765957,1.851515,0.156364,-0.327618,-0.080012,-0.660091,0.334948,-0.490168,-10.789686,-82.780755,13.741450
01611,197778,9.855695,-0.708935,2.212773,0.176948,-0.367798,-0.055200,-0.659602,0.334915,-0.489669,-10.752783,-82.993880,13.806284
01612,197878,10.278577,-0.579601,2.463544,0.181375,-0.343335,-0.039500,-0.661595,0.334947,-0.489669,-10.766286,-83.191493,13.924416
01613,197978,10.158400,-0.463311,2.581056,0.175059,-0.277042,-0.058325,-0.662647,0.334320,-0.486696,-10.635176,-83.353730,13.893244
01614,198078,9.869008,-0.377703,2.618601,0.157642,-0.229345,-0.101331,-0.659658,0.329314,-0.487449,-10.253800,-83.493467,13.600111
01615,198178,9.696574,-0.353267,2.495458,0.140335,-0.230677,-0.136011,-0.663715,0.330680,-0.483375,-9.693289,-83.637050,13.116810
01616,198278,9.625740,-0.462191,2.132181,0.148791,-0.249466,-0.161414,-0.664219,0.327200,-0.483553,-8.987502,-83.792957,12.492367
01617,198378,9.710947,-0.666911,1.724452,0.193680,-0.244636,-0.170105,-0.661232,0.326655,-0.483578,-8.171468,-83.945914,11.783095
01618,198478,10.094214,-0.761241,1.525143,0.246431,-0.167391,-0.160229,-0.664269,0.325087,-0.481156,-7.285207,-84.053086,11.033769
01619,198578,10.740857,-0.663507,1.726429,0.280522,-0.036402,-0.145913,-0.659752,0.323617,-0.483230,-6.347208,-84.083470,10.252157
01620,198678,11.336821,-0.326688,2.286299,0.252530,0.065041,-0.137341,-0.660237,0.320684,-0.484382,-5.410218,-84.054155,9.455434
01621,198778,12.041212,0.128896,3.147026,0.142756,0.102054,-0.144712,-0.656772,0.318588,-0.483483,-4.488236,-84.002658,8.610499
01622,198878,12.808928,0.761909,4.123639,-0.020281,0.122926,-0.157550,-0.657235,0.317696,-0.485533,-3.597663,-83.938244,7.703120
01623,198978,13.436573,1.458712,4.750616,-0.194042,0.185780,-0.195482,-0.656768,0.315623,-0.484135,-2.607292,-83.837344,6.595099
01624,199078,13.742795,1.844130,4.718993,-0.350464,0.300464,-0.259622,-0.658732,0.315726,-0.485635,-1.390989,-83.669657,5.169352
01625,199178,13.721395,1.743097,4.019226,-0.421227,0.430827,-0.333824,-0.657707,0.311323,-0.487863,0.087898,-83.424047,3.437968
01626,199278,13.732859,1.085577,2.832023,-0.395885,0.536722,-0.394208,-0.657702,0.308856,-0.488490,1.737309,-83.111940,1.548522
01627,199378,13.924521,-0.006941,1.363440,-0.291035,0.572116,-0.383973,-0.659648,0.309008,-0.490990,3.235136,-82.773898,-0.128947
01628,199478,14.221367,-1.285169,-0.105740,-0.150103,0.533714,-0.299197,-0.661097,0.303197,-0.494294,4.316682,-82.456582,-1.306449
01629,199578,13.940949,-2.530757,-1.640249,-0.003532,0.389388,-0.193086,-0.659095,0.303190,-0.494793,5.001870,-82.224523,-2.000032
01630,199678,13.173804,-3.133505,-2.696556,0.056238,0.157571,-0.096183,-0.659108,0.296214,-0.495148,5.375131,-82.129149,-2.344454
01631,199778,12.198888,-3.005941,-2.665463,0.065283,-0.051220,-0.012768,-0.659625,0.295676,-0.494174,5.485535,-82.157408,-2.418318
01632,199878,11.004616,-1.819719,-1.874777,0.083225,-0.182648,0.026510,-0.660663,0.293104,-0.492302,5.495485,-82.262931,-2.380397
01633,199978,9.791706,-0.408503,-0.639893,0.121397,-0.251363,0.008892,-0.656209,0.287504,-0.491581,5.630634,-82.406754,-2.446740
01634,200078,8.685363,0.956832,0.573122,0.138370,-0.297745,-0.042722,-0.653280,0.284822,-0.488708,6.025969,-82.573987,-2.765683
01635,200178,7.817296,1.978589,1.641060,0.057606,-0.312551,-0.112780,-0.651883,0.282066,-0.483837,6.712318,-82.744755,-3.424577
01636,200278,7.428573,2.560601,2.102577,-0.137315,-0.233292,-0.155068,-0.649960,0.279872,-0.480439,7.464318,-82.866327,-4.261996
01637,200378,7.270856,2.931589,1.657183,-0.361910,-0.035963,-0.139398,-0.648532,0.278684,-0.476991,7.914447,-82.875891,-4.924756
01638,200478,7.319256,3.076518,0.296719,-0.539565,0.136562,-0.102969,-0.647480,0.283771,-0.479236,7.987598,-82.790074,-5.310210
01639,200578,7.907227,2.398016,-1.124899,-0.618221,0.191442,-0.070077,-0.645622,0.286865,-0.471560,7.831470,-82.675821,-5.510037
