PacketCounter,SampleTimeFine,Acc_X,Acc_Y,Acc_Z,Gyr_X,Gyr_Y,Gyr_Z,Mag_X,Mag_Y,Mag_Z,Roll,Pitch,Yaw
01271,433218,9.599066,-0.154892,2.036142,-0.003384,-0.015981,0.010273,-0.313926,0.079888,-0.390552,-5.221274,-77.796273,5.103915
01272,433318,9.605110,-0.172492,2.018128,-0.002110,-0.010792,0.009034,-0.312961,0.078305,-0.389129,-5.245788,-77.803194,5.127895
01273,433418,9.602439,-0.200054,2.021038,-0.001933,-0.007917,0.009218,-0.313482,0.080732,-0.387502,-5.270067,-77.808466,5.151695
01274,433518,9.595930,-0.171676,2.020144,-0.002763,-0.010144,0.008797,-0.312448,0.081311,-0.389476,-5.294256,-77.815017,5.174942
01275,433618,9.585348,-0.165101,2.030086,-0.007187,-0.013435,0.010202,-0.311965,0.078290,-0.389128,-5.325486,-77.823375,5.202836
01276,433718,9.585125,-0.160845,2.051501,-0.011026,-0.019375,0.009487,-0.313406,0.081922,-0.391450,-5.358606,-77.835151,5.230342
01277,433818,9.596713,-0.188707,2.054712,-0.013810,-0.019180,0.010933,-0.315899,0.080466,-0.391527,-5.397108,-77.846742,5.261772
01278,433918,9.592549,-0.213151,2.049214,-0.013255,-0.019832,0.008338,-0.312936,0.081841,-0.389951,-5.428702,-77.858824,5.286422
01279,434018,9.603569,-0.203139,2.034202,-0.012241,-0.018562,0.006719,-0.314469,0.080772,-0.388002,-5.455124,-77.870281,5.306402
01280,434118,9.594324,-0.205725,2.013371,-0.010497,-0.011003,0.006111,-0.314456,0.082789,-0.388401,-5.477106,-77.877446,5.322826
01281,434218,9.598979,-0.210129,2.016874,-0.008566,-0.007718,0.003269,-0.312934,0.082838,-0.389900,-5.489602,-77.882881,5.330709
01282,434318,9.593029,-0.219202,2.009625,-0.006842,-0.003548,0.004168,-0.315921,0.083882,-0.389850,-5.502466,-77.885911,5.339955
01283,434418,9.573125,-0.212282,2.000964,-0.007684,-0.006413,0.004742,-0.314441,0.086301,-0.388723,-5.518142,-77.890529,5.351542
01284,434518,9.595620,-0.174512,2.050454,-0.010693,-0.008997,0.003579,-0.317917,0.081920,-0.389952,-5.532955,-77.896697,5.360638
01285,434618,9.600075,-0.178840,2.038202,-0.013305,-0.011108,0.005044,-0.317957,0.080329,-0.388029,-5.553775,-77.903981,5.374295
01286,434718,9.609386,-0.172121,2.034803,-0.012371,-0.012403,0.004722,-0.312925,0.082862,-0.390399,-5.573659,-77.911970,5.387467
01287,434818,9.617903,-0.169693,2.032137,-0.009758,-0.013576,0.005964,-0.313442,0.082822,-0.389400,-5.595634,-77.920593,5.404330
01288,434918,9.633333,-0.190493,2.014594,-0.007971,-0.014095,0.004192,-0.314396,0.085425,-0.391273,-5.612083,-77.929604,5.416535
01289,435018,9.642339,-0.195349,2.002757,-0.008372,-0.011593,0.002981,-0.314473,0.083737,-0.387350,-5.624811,-77.937283,5.424773
01290,435118,9.635274,-0.226368,2.021719,-0.009179,-0.009919,0.000451,-0.312883,0.085449,-0.392272,-5.630896,-77.944086,5.425721
01291,435218,9.618625,-0.240279,2.046397,-0.012409,-0.003847,0.000230,-0.315863,0.085023,-0.392798,-5.636605,-77.947487,5.424422
01292,435318,9.618633,-0.260202,2.069403,-0.016440,-0.004494,-0.000117,-0.315465,0.086245,-0.387223,-5.643996,-77.951301,5.422361
01293,435418,9.651853,-0.180327,2.048557,-0.007682,0.012972,0.002927,-0.311960,0.086237,-0.388222,-5.649847,-77.944906,5.423939
01294,435518,9.612722,-0.146659,2.053014,-0.001339,0.021053,0.004843,-0.313403,0.083416,-0.391374,-5.654817,-77.933807,5.428535
01295,435618,9.572290,-0.148869,1.972694,-0.006174,0.022892,0.002596,-0.315910,0.084902,-0.390299,-5.656242,-77.921842,5.426458
01296,435718,9.521787,-0.199605,1.977641,-0.018264,0.015286,-0.000525,-0.314428,0.088318,-0.389121,-5.658518,-77.914359,5.417960
01297,435818,9.485393,-0.230816,2.094621,-0.019941,-0.007921,-0.000077,-0.318896,0.086444,-0.390224,-5.668780,-77.920128,5.416926
01298,435918,9.596502,-0.232461,2.116989,-0.013908,-0.016963,0.001211,-0.316388,0.085955,-0.391248,-5.681447,-77.930882,5.421922
01299,436018,9.651516,-0.236170,2.056982,-0.011359,0.002796,0.002494,-0.316913,0.086389,-0.389723,-5.690930,-77.930339,5.425056
01300,436118,9.671501,-0.252333,1.980549,-0.006389,0.028397,0.005776,-0.317862,0.087023,-0.392197,-5.699537,-77.914993,5.430216
01301,436218,9.616870,-0.234731,1.958598,-0.005572,0.043289,0.009568,-0.313880,0.084967,-0.392297,-5.713658,-77.890881,5.441677
01302,436318,9.598688,-0.214248,1.980692,-0.009775,0.040198,0.008645,-0.315403,0.084420,-0.390824,-5.728534,-77.868680,5.451373
01303,436418,9.533736,-0.140815,1.945807,-0.012174,0.017334,0.010755,-0.314922,0.085361,-0.389773,-5.756557,-77.859391,5.472963
01304,436518,9.539058,-0.112608,1.943453,-0.011571,-0.015581,0.011566,-0.315942,0.087795,-0.388147,-5.795366,-77.868852,5.505706
01305,436618,9.558743,-0.154942,2.006434,-0.006251,-0.041710,0.009656,-0.317376,0.084998,-0.391798,-5.832729,-77.893258,5.540587
01306,436718,9.634994,-0.137208,2.074027,-0.000415,-0.049607,0.005816,-0.315915,0.087369,-0.389672,-5.859181,-77.922375,5.567341
01307,436818,9.664036,-0.127872,2.130911,0.001801,-0.041284,0.005631,-0.314898,0.082942,-0.391400,-5.881129,-77.946702,5.591375
01308,436918,9.635416,-0.137628,2.085367,0.005220,-0.023272,0.001892,-0.315893,0.083954,-0.391349,-5.886496,-77.961022,5.600146
01309,437018,9.642137,-0.155847,2.020101,0.009686,-0.011943,0.000526,-0.319361,0.089016,-0.391596,-5.883074,-77.969036,5.601944
01310,437118,9.637205,-0.209609,1.990954,0.009073,-0.009401,0.000201,-0.315908,0.085899,-0.390248,-5.877957,-77.975538,5.602193
01311,437218,9.626517,-0.230382,1.996052,0.012578,-0.005753,0.000220,-0.317909,0.086404,-0.389723,-5.869954,-77.980031,5.601436
01312,437318,9.616373,-0.271692,1.983609,0.012319,-0.003269,-0.001259,-0.316894,0.086437,-0.390723,-5.857480,-77.983124,5.596002
01313,437418,9.579571,-0.258769,1.995160,0.013840,-0.002207,0.001662,-0.316882,0.087955,-0.391146,-5.851873,-77.985434,5.598293
01314,437518,9.595898,-0.251680,2.008430,0.006629,0.002257,0.002863,-0.315891,0.084950,-0.391298,-5.851942,-77.985115,5.602655
01315,437618,9.580830,-0.224495,2.030731,0.003064,0.004432,0.004501,-0.316347,0.088044,-0.393145,-5.858352,-77.983432,5.610919
01316,437718,9.593803,-0.175983,2.039036,-0.001506,0.002701,0.009258,-0.316403,0.087899,-0.390146,-5.880533,-77.982559,5.632610
01317,437818,9.628573,-0.139257,2.049809,-0.006660,0.008876,0.010775,-0.317400,0.087417,-0.390172,-5.907824,-77.978098,5.656666
01318,437918,9.660312,-0.137058,2.034973,-0.012641,0.014222,0.012079,-0.315352,0.087032,-0.393196,-5.940389,-77.970324,5.682847
01319,438018,9.638048,-0.155148,1.995684,-0.011914,0.013201,0.013419,-0.316326,0.089089,-0.394094,-5.976694,-77.963093,5.712897
01320,438118,9.624562,-0.162953,1.991273,-0.004944,0.009527,0.011846,-0.315349,0.089025,-0.393094,-6.005742,-77.958063,5.739645
01321,438218,9.616136,-0.178538,1.984906,-0.000781,0.006952,0.010212,-0.316375,0.087474,-0.391671,-6.028374,-77.954721,5.762573
01322,438318,9.622558,-0.197059,1.980916,0.007439,0.005740,0.006366,-0.314449,0.086775,-0.388197,-6.036406,-77.952328,5.775321
01323,438418,9.605505,-0.191012,1.973132,0.009364,0.002493,0.003598,-0.314364,0.087988,-0.392645,-6.037040,-77.951743,5.781588
01324,438518,9.586041,-0.203159,1.981606,0.008311,-0.003612,0.001530,-0.314873,0.086976,-0.392196,-6.034229,-77.954841,5.783929
01325,438618,9.580315,-0.185730,1.996308,0.005282,-0.006078,0.000277,-0.315377,0.088454,-0.391620,-6.030935,-77.959473,5.783507
01326,438718,9.560666,-0.193025,2.019501,0.003930,-0.006679,-0.001645,-0.314887,0.083962,-0.391849,-6.022190,-77.964540,5.778063
01327,438818,9.575922,-0.179885,1.993690,0.006828,-0.006641,0.000255,-0.317393,0.085946,-0.390748,-6.017581,-77.969673,5.777624
01328,438918,9.593130,-0.182613,1.992880,0.012879,-0.009599,-0.000135,-0.315398,0.087410,-0.390671,-6.009865,-77.976333,5.777067
01329,439018,9.615122,-0.198934,1.961290,0.011878,-0.011430,0.000146,-0.316863,0.088502,-0.392120,-6.004166,-77.984032,5.777800
01330,439118,9.619126,-0.206945,1.968252,0.008263,-0.014936,0.000409,-0.316396,0.086429,-0.390722,-6.001575,-77.993761,5.780258
01331,439218,9.625021,-0.183414,1.957200,0.007029,-0.018632,0.000045,-0.316400,0.089394,-0.390070,-6.000799,-78.005616,5.782739
01332,439318,9.623423,-0.171323,1.972901,0.004947,-0.019190,0.002397,-0.315389,0.086936,-0.391196,-6.006688,-78.017503,5.791967
01333,439418,9.614833,-0.162763,1.996597,-0.002928,-0.017260,0.004497,-0.316860,0.084540,-0.392823,-6.021225,-78.028204,5.806431
01334,439518,9.590546,-0.183811,1.964053,-0.005617,-0.016120,0.005990,-0.317358,0.085046,-0.392798,-6.041358,-78.038204,5.824661
01335,439618,9.589031,-0.172237,1.970315,-0.007901,-0.017136,0.006282,-0.314415,0.084878,-0.390298,-6.064209,-78.048674,5.844041
01336,439718,9.591429,-0.168984,1.964639,-0.006171,-0.017941,0.005912,-0.315423,0.088832,-0.389096,-6.086918,-78.059765,5.862502
01337,439818,9.616604,-0.208443,1.956620,-0.000452,-0.017804,0.004739,-0.314404,0.085899,-0.390747,-6.101801,-78.070656,5.877931
01338,439918,9.651648,-0.245781,1.979009,0.002808,-0.019502,0.002450,-0.314892,0.086429,-0.391222,-6.109385,-78.082671,5.887578
01339,440018,9.658839,-0.246452,1.972680,0.005421,-0.019302,0.003559,-0.315894,0.088414,-0.390621,-6.119278,-78.094633,5.900144
01340,440118,9.656045,-0.236307,2.015415,0.007924,-0.016049,0.003354,-0.316880,0.088952,-0.391095,-6.126336,-78.104798,5.911177
01341,440218,9.636507,-0.204398,2.022619,0.005720,-0.015559,0.004321,-0.317918,0.086879,-0.389198,-6.136173,-78.114878,5.924641
01342,440318,9.627619,-0.151542,1.993026,0.000721,-0.013226,0.005413,-0.317852,0.087047,-0.392697,-6.151024,-78.123224,5.940648
01343,440418,9.589445,-0.121605,1.977528,-0.002965,-0.014620,0.002994,-0.317390,0.087441,-0.390672,-6.162202,-78.132620,5.950279
01344,440518,9.551143,-0.141883,1.948341,-0.011741,-0.015638,0.005091,-0.318886,0.086967,-0.390698,-6.184028,-78.142616,5.965953
01345,440618,9.538508,-0.145904,1.939605,-0.020341,-0.021105,0.002570,-0.320386,0.088959,-0.390097,-6.206530,-78.156043,5.976138
01346,440718,9.581014,-0.191878,1.928609,-0.027397,-0.026334,0.001426,-0.318331,0.087601,-0.393671,-6.230555,-78.171905,5.985205
01347,440818,9.646426,-0.174533,1.914730,-0.010705,-0.002475,0.001916,-0.314870,0.088470,-0.392120,-6.240080,-78.173895,5.988541
01348,440918,9.627809,-0.193636,1.917545,0.008938,0.021313,0.002499,-0.317380,0.087963,-0.391146,-6.232464,-78.162783,5.985990
01349,441018,9.631089,-0.265445,1.861434,0.013259,0.032288,0.000237,-0.317860,0.088019,-0.392146,-6.212967,-78.145556,5.973899
01350,441118,9.597026,-0.311079,1.864515,0.006671,0.023107,-0.003255,-0.316356,0.088020,-0.392645,-6.190649,-78.133556,5.955128
01351,441218,9.576250,-0.331717,2.046492,0.004439,0.005125,0.000177,-0.316839,0.091041,-0.392993,-6.186026,-78.131597,5.951218
01352,441318,9.638128,-0.268720,2.120715,0.001870,-0.006621,0.005580,-0.316852,0.089024,-0.392595,-6.199603,-78.136068,5.965838
01353,441418,9.669124,-0.224548,2.057487,-0.005412,-0.002826,0.010546,-0.315872,0.090455,-0.391519,-6.230718,-78.138034,5.993047
01354,441518,9.632673,-0.195534,2.005293,-0.008416,0.017162,0.011137,-0.312373,0.091918,-0.391941,-6.260246,-78.128021,6.016084
01355,441618,9.566429,-0.180758,1.957594,-0.019846,0.036991,0.012665,-0.317350,0.089032,-0.392595,-6.291826,-78.107425,6.036928
01356,441718,9.532631,-0.171033,1.874505,-0.020187,0.042732,0.012618,-0.316355,0.088518,-0.392620,-6.321291,-78.083452,6.055894
01357,441818,9.498454,-0.125038,1.787233,-0.016490,0.021161,0.011571,-0.312879,0.087940,-0.392144,-6.352019,-78.071366,6.078787
01358,441918,9.537008,-0.151697,1.768248,-0.005826,-0.012811,0.005106,-0.314866,0.090961,-0.391993,-6.371537,-78.079368,6.093893
01359,442018,9.582619,-0.164278,1.862495,0.007597,-0.042088,0.001397,-0.317370,0.088486,-0.391621,-6.380019,-78.104779,6.107675
01360,442118,9.656891,-0.177980,1.984561,0.013083,-0.054047,-0.003231,-0.314928,0.092288,-0.388418,-6.380270,-78.137156,6.112184
01361,442218,9.693661,-0.176940,2.054957,0.012502,-0.045297,-0.008217,-0.316330,0.092054,-0.393442,-6.363679,-78.164334,6.100448
01362,442318,9.658433,-0.185783,2.070557,0.006978,-0.031503,-0.008960,-0.317376,0.090455,-0.391019,-6.342723,-78.184269,6.082119
01363,442418,9.638837,-0.183720,2.037552,0.000497,-0.021097,-0.008788,-0.316867,0.090969,-0.391494,-6.323200,-78.198036,6.061058
01364,442518,9.617343,-0.183541,2.024561,-0.006257,-0.016125,-0.006879,-0.319850,0.089546,-0.392070,-6.309421,-78.209377,6.043534
01365,442618,9.580204,-0.186332,1.969055,-0.011177,-0.014148,-0.007118,-0.317387,0.089434,-0.390570,-6.297521,-78.219286,6.024924
01366,442718,9.575246,-0.217285,1.930880,-0.012935,-0.012044,-0.006173,-0.316391,0.088920,-0.390595,-6.288119,-78.227695,6.008479
01367,442818,9.557262,-0.210411,1.904103,-0.012343,-0.008519,-0.005063,-0.317381,0.087465,-0.391172,-6.278600,-78.234169,5.994091
01368,442918,9.575683,-0.263012,1.862756,-0.014141,-0.007121,-0.004227,-0.319336,0.087593,-0.393172,-6.271618,-78.239877,5.981578
01369,443018,9.592695,-0.276275,1.880015,-0.010549,-0.008126,-0.001157,-0.314888,0.088920,-0.391095,-6.273697,-78.245226,5.978298
01370,443118,9.628893,-0.269245,1.948551,-0.009135,-0.011179,0.000362,-0.315905,0.087892,-0.390146,-6.278875,-78.252677,5.980014
01371,443218,9.699728,-0.275547,2.012621,-0.009629,-0.005770,0.001582,-0.317878,0.087971,-0.391146,-6.285728,-78.257266,5.983339
01372,443318,9.714926,-0.229906,2.045465,-0.012612,0.000806,0.002600,-0.316354,0.089016,-0.392595,-6.296319,-78.257309,5.987956
01373,443418,9.681447,-0.209731,2.056105,-0.021998,0.002846,0.005057,-0.316912,0.086887,-0.389698,-6.316072,-78.256859,5.998336
01374,443518,9.664731,-0.151451,2.043760,-0.025715,0.002748,0.004093,-0.317896,0.088421,-0.390121,-6.336977,-78.256654,6.005783
01375,443618,9.616682,-0.125446,1.972863,-0.026626,0.003265,0.000894,-0.315902,0.089386,-0.390070,-6.350917,-78.255765,6.004392
01376,443718,9.577458,-0.140931,1.912356,-0.024087,0.000732,-0.000052,-0.315406,0.087884,-0.390146,-6.359497,-78.256265,6.001411
01377,443818,9.536197,-0.145927,1.822941,-0.021739,-0.003949,-0.003085,-0.315903,0.088888,-0.390095,-6.361077,-78.259755,5.991175
01378,443918,9.529104,-0.185290,1.807561,-0.018050,-0.013600,-0.004733,-0.317377,0.089956,-0.391045,-6.359957,-78.269018,5.979179
01379,444018,9.558637,-0.214715,1.866124,-0.018789,-0.021190,-0.005886,-0.318422,0.088357,-0.388622,-6.356366,-78.283587,5.965688
01380,444118,9.588037,-0.241274,1.915928,-0.016444,-0.028379,-0.005510,-0.319875,0.086010,-0.391249,-6.350409,-78.302032,5.956225
01381,444218,9.627844,-0.245879,1.970165,-0.017019,-0.032273,-0.004157,-0.318903,0.087417,-0.389673,-6.352352,-78.322553,5.951427
01382,444318,9.661376,-0.243017,2.027102,-0.017418,-0.027535,-0.005693,-0.320439,0.090309,-0.387022,-6.353527,-78.341467,5.939292
01383,444418,9.663077,-0.216327,2.042552,-0.017032,-0.020679,-0.004381,-0.316395,0.086927,-0.390697,-6.350587,-78.354107,5.931462
01384,444518,9.662756,-0.193677,2.040902,-0.014735,-0.011596,-0.003534,-0.318874,0.088485,-0.391122,-6.347754,-78.362176,5.922487
01385,444618,9.657224,-0.204431,2.020382,-0.014941,-0.001679,-0.003271,-0.318416,0.086886,-0.389198,-6.340676,-78.364977,5.910787
01386,444718,9.654453,-0.202617,1.952835,-0.014056,0.003430,-0.006115,-0.318361,0.086533,-0.392222,-6.322423,-78.364209,5.890676
01387,444818,9.645064,-0.239372,1.936262,-0.012372,0.007462,-0.006312,-0.316394,0.087425,-0.390671,-6.303817,-78.360874,5.868578
01388,444918,9.652214,-0.215343,1.891609,-0.013809,0.006899,-0.004498,-0.319896,0.089924,-0.389546,-6.294946,-78.359255,5.849942
01389,445018,9.642118,-0.257825,1.910965,-0.013328,-0.002278,-0.001430,-0.316872,0.088478,-0.391621,-6.294701,-78.361005,5.844881
01390,445118,9.633336,-0.241966,1.904531,-0.013161,-0.010161,-0.001833,-0.319914,0.089875,-0.388546,-6.298145,-78.369213,5.838704
01391,445218,9.641751,-0.230071,1.930551,-0.009919,-0.017856,-0.002041,-0.316907,0.089876,-0.389545,-6.301856,-78.380327,5.835800
01392,445318,9.627750,-0.226994,1.931680,-0.006024,-0.020530,-0.001051,-0.316927,0.088832,-0.388596,-6.305253,-78.393184,5.836347
01393,445418,9.613695,-0.207361,1.917919,-0.006910,-0.022979,-0.002206,-0.320349,0.089056,-0.392096,-6.305392,-78.407711,5.834896
01394,445518,9.614723,-0.194089,1.920148,-0.007959,-0.022242,-0.005841,-0.316928,0.088333,-0.388622,-6.296242,-78.421733,5.822603
01395,445618,9.613576,-0.196998,1.889109,-0.007359,-0.022921,-0.006301,-0.316867,0.091467,-0.391468,-6.290660,-78.435100,5.810063
01396,445718,9.612732,-0.206382,1.893066,-0.006160,-0.024945,-0.006412,-0.316397,0.090889,-0.389994,-6.284034,-78.449884,5.797412
01397,445818,9.631511,-0.194184,1.917025,-0.007348,-0.028142,-0.006822,-0.316388,0.090913,-0.390494,-6.277733,-78.466301,5.784811
01398,445918,9.657663,-0.179594,1.931810,-0.008598,-0.034174,-0.004331,-0.317866,0.089988,-0.391545,-6.278427,-78.486232,5.781327
01399,446018,9.652622,-0.180330,1.981642,-0.018526,-0.044813,-0.005005,-0.315412,0.089853,-0.389545,-6.286970,-78.511801,5.779356
01400,446118,9.694896,-0.221663,2.008467,-0.025975,-0.050337,-0.004421,-0.317834,0.092053,-0.392942,-6.305758,-78.540167,5.781213
01401,446218,9.750713,-0.167589,2.067616,-0.009312,-0.029738,-0.003720,-0.318377,0.092937,-0.390393,-6.312842,-78.557733,5.777251
01402,446318,9.727581,-0.133009,2.050123,0.011282,-0.001679,-0.003594,-0.316890,0.093886,-0.389842,-6.302190,-78.558825,5.764729
01403,446418,9.710538,-0.186151,1.934727,0.019673,0.021139,-0.007387,-0.317421,0.091331,-0.388469,-6.264032,-78.548041,5.733794
01404,446518,9.636235,-0.231752,1.851060,0.016964,0.028094,-0.013006,-0.318913,0.092351,-0.388419,-6.211536,-78.534353,5.683901
01405,446618,9.548122,-0.280600,1.915003,0.018025,0.007728,-0.010766,-0.317894,0.089916,-0.390045,-6.165833,-78.531204,5.648085
01406,446718,9.564863,-0.262403,1.950003,0.010238,-0.015453,-0.006272,-0.319387,0.090438,-0.390020,-6.145149,-78.541595,5.631773
01407,446818,9.599768,-0.250071,1.926165,-0.001798,-0.023077,-0.002357,-0.317384,0.090929,-0.390494,-6.146125,-78.554908,5.629734
01408,446918,9.597892,-0.229761,1.835017,-0.004840,-0.013576,0.004108,-0.320890,0.090936,-0.389496,-6.163470,-78.564376,5.641989
01409,447018,9.597681,-0.194606,1.796469,-0.013701,0.000590,0.008919,-0.315901,0.089885,-0.390045,-6.193734,-78.562975,5.665681
01410,447118,9.585342,-0.153876,1.818223,-0.013750,0.005848,0.012198,-0.317894,0.089916,-0.390045,-6.230950,-78.559368,5.696485
01411,447218,9.570763,-0.136326,1.797662,-0.006465,-0.011157,0.010949,-0.318897,0.091403,-0.389470,-6.268901,-78.566140,5.728216
01412,447318,9.582888,-0.144451,1.819867,0.002841,-0.046184,0.006493,-0.316903,0.091869,-0.389444,-6.301486,-78.592014,5.758888
01413,447418,9.676031,-0.183136,1.895538,0.015911,-0.068007,0.003759,-0.318878,0.090953,-0.390495,-6.322860,-78.630892,5.788715
01414,447518,9.741679,-0.176583,1.971968,0.025300,-0.068348,-0.001873,-0.316426,0.090318,-0.388520,-6.323132,-78.669689,5.803091
01415,447618,9.780662,-0.177377,1.997884,0.029189,-0.048269,-0.005246,-0.316947,0.087787,-0.387647,-6.299450,-78.697852,5.801540
01416,447718,9.705423,-0.153716,1.972648,0.027266,-0.027033,-0.007694,-0.318918,0.089860,-0.388546,-6.267861,-78.714532,5.785015
01417,447818,9.657506,-0.168293,1.929884,0.025835,-0.017007,-0.007812,-0.318459,0.088759,-0.386598,-6.231848,-78.726070,5.764752
01418,447918,9.630990,-0.166435,1.879256,0.019574,-0.018422,-0.006178,-0.318380,0.091443,-0.390469,-6.210413,-78.736439,5.750164
01419,448018,9.606543,-0.141674,1.878575,0.013156,-0.020343,-0.003769,-0.320911,0.089393,-0.388572,-6.194735,-78.749959,5.742192
01420,448118,9.601066,-0.164151,1.894125,0.008008,-0.017829,-0.001766,-0.317911,0.090366,-0.389020,-6.190410,-78.759982,5.740266
01421,448218,9.587663,-0.153491,1.881120,0.005331,-0.017801,0.000869,-0.318930,0.088341,-0.388123,-6.189713,-78.770827,5.745943
01422,448318,9.608181,-0.217387,1.871670,-0.000507,-0.011149,0.001205,-0.319932,0.090326,-0.387521,-6.196608,-78.778545,5.749423
01423,448418,9.596640,-0.208770,1.847460,0.004219,-0.010109,0.003523,-0.321428,0.089353,-0.387573,-6.203950,-78.786357,5.759118
01424,448518,9.627961,-0.198976,1.842193,0.009282,-0.009023,0.007047,-0.318936,0.089812,-0.387547,-6.220356,-78.791861,5.779654
01425,448618,9.664887,-0.204173,1.814460,0.013469,-0.003374,0.006411,-0.319462,0.089747,-0.386047,-6.231067,-78.795181,5.795883
01426,448718,9.714153,-0.206512,1.852808,0.012102,0.002514,0.004274,-0.320900,0.090414,-0.389021,-6.235008,-78.794705,5.804080
01427,448818,9.709738,-0.183621,1.897404,0.007471,0.000174,0.006927,-0.320405,0.088911,-0.389097,-6.245737,-78.795149,5.821508
01428,448918,9.662837,-0.142972,1.919468,0.005174,-0.003121,0.008888,-0.319879,0.088477,-0.390622,-6.262754,-78.796317,5.846590
01429,449018,9.646732,-0.120229,1.927328,0.005129,-0.004757,0.005860,-0.316493,0.089153,-0.385072,-6.276953,-78.799185,5.862616
01430,449118,9.606290,-0.101149,1.929108,0.009885,-0.005854,0.005205,-0.320429,0.090832,-0.387496,-6.289664,-78.803829,5.875659
01431,449218,9.589150,-0.108604,1.934140,0.016479,-0.004063,0.002536,-0.317444,0.088791,-0.387597,-6.285241,-78.805812,5.882292
01432,449318,9.600034,-0.126457,1.899598,0.019727,-0.002917,0.001547,-0.317899,0.091885,-0.389444,-6.284616,-78.806384,5.884853
01433,449418,9.609157,-0.165000,1.849204,0.018785,-0.003799,-0.000795,-0.318463,0.091724,-0.385945,-6.278955,-78.809744,5.879472
01434,449518,9.627696,-0.173983,1.816722,0.013273,-0.007613,0.001814,-0.318472,0.086244,-0.386225,-6.267791,-78.815265,5.885382
01435,449618,9.654589,-0.207201,1.812337,0.007787,-0.010321,0.002390,-0.317443,0.089289,-0.387571,-6.272018,-78.820710,5.893342
01436,449718,9.650776,-0.181518,1.839917,0.009110,-0.008703,0.006021,-0.316935,0.089804,-0.388046,-6.287150,-78.824370,5.911605
01437,449818,9.636141,-0.181393,1.865276,0.009554,-0.009662,0.006025,-0.318421,0.089353,-0.388571,-6.300162,-78.829283,5.929904
01438,449918,9.644094,-0.170238,1.884618,0.009352,-0.010493,0.007541,-0.317913,0.089370,-0.389071,-6.318004,-78.833930,5.953315
01439,450018,9.614907,-0.163604,1.888146,0.010667,-0.007942,0.006334,-0.317946,0.091764,-0.386945,-6.339786,-78.838202,5.970653
01440,450118,9.609448,-0.162346,1.858178,0.013181,-0.009222,0.004064,-0.317449,0.090760,-0.386996,-6.350818,-78.843011,5.982385
01441,450218,9.620836,-0.178342,1.850821,0.012337,-0.007011,0.003212,-0.312963,0.092682,-0.386893,-6.367511,-78.843438,5.991827
01442,450318,9.609367,-0.165939,1.831009,0.009701,-0.003101,0.003453,-0.316517,0.091572,-0.383446,-6.381445,-78.846119,5.999235
01443,450418,9.626726,-0.199226,1.851795,0.008176,-0.003937,0.002890,-0.315947,0.090262,-0.387520,-6.388775,-78.846670,6.006551
01444,450518,9.631241,-0.181291,1.852086,0.007780,-0.003067,0.004655,-0.318411,0.089377,-0.389071,-6.396499,-78.847535,6.018299
01445,450618,9.647252,-0.192360,1.867505,0.008423,-0.000497,0.002945,-0.318924,0.091330,-0.387970,-6.405420,-78.847932,6.022881
01446,450718,9.652209,-0.206781,1.897523,0.010674,0.005885,0.003848,-0.315928,0.090311,-0.388520,-6.410831,-78.842247,6.029637
01447,450818,9.676246,-0.195611,1.860766,0.010054,0.009257,0.005013,-0.314424,0.090809,-0.388994,-6.421063,-78.833224,6.038914
01448,450918,9.682967,-0.178204,1.864411,0.010367,0.011160,0.008352,-0.315907,0.091853,-0.389443,-6.443189,-78.823747,6.056057
01449,451018,9.667004,-0.166359,1.864668,0.005544,0.013881,0.008145,-0.315900,0.090383,-0.390019,-6.460784,-78.812570,6.072230
01450,451118,9.631621,-0.175875,1.857046,0.000115,0.010833,0.008550,-0.318955,0.089763,-0.386547,-6.481595,-78.807616,6.090241
01451,451218,9.628313,-0.137448,1.854932,-0.002207,0.006701,0.005882,-0.316959,0.091725,-0.386445,-6.505394,-78.803638,6.101313
01452,451318,9.597622,-0.143119,1.818542,-0.006346,0.000313,0.006043,-0.319407,0.089393,-0.389071,-6.522977,-78.803693,6.115066
01453,451418,9.590798,-0.155046,1.818956,-0.013798,-0.006210,0.004014,-0.315456,0.091227,-0.386969,-6.550255,-78.805707,6.125737
01454,451518,9.622418,-0.197370,1.839521,-0.016662,-0.008534,0.001551,-0.316953,0.089756,-0.387046,-6.566283,-78.810381,6.130427
01455,451618,9.697082,-0.172361,1.795075,-0.002744,0.015497,0.001509,-0.317406,0.088888,-0.389596,-6.561498,-78.800261,6.126718
01456,451718,9.651982,-0.137209,1.853187,0.007166,0.029568,0.001119,-0.317887,0.093404,-0.389867,-6.562759,-78.782216,6.113878
01457,451818,9.647669,-0.183616,1.770914,0.004947,0.036116,0.000984,-0.317453,0.088767,-0.387097,-6.545871,-78.762417,6.102355
01458,451918,9.620642,-0.222473,1.795646,-0.003034,0.036050,-0.000708,-0.320918,0.090864,-0.387996,-6.535407,-78.745006,6.082939
01459,452018,9.553088,-0.252843,1.917436,-0.009302,0.017771,0.001004,-0.317942,0.088799,-0.387597,-6.532326,-78.735951,6.077411
01460,452118,9.574908,-0.222971,1.932875,-0.019777,0.001281,0.004896,-0.317392,0.091901,-0.389944,-6.563009,-78.733806,6.086006
01461,452218,9.595962,-0.237219,1.916578,-0.019322,0.001525,0.011148,-0.318934,0.091306,-0.387470,-6.608881,-78.734083,6.113328
01462,452318,9.601411,-0.214475,1.814977,-0.013771,0.016649,0.012158,-0.315423,0.089330,-0.389070,-6.641517,-78.721925,6.140862
01463,452418,9.640363,-0.233857,1.830478,-0.007547,0.030023,0.012014,-0.315410,0.090849,-0.389494,-6.671449,-78.701942,6.162073
01464,452518,9.662869,-0.249955,1.892645,0.006575,0.035126,0.013808,-0.318941,0.092279,-0.386920,-6.702319,-78.683773,6.184981
01465,452618,9.631469,-0.222792,1.824859,0.009493,0.025720,0.012477,-0.318416,0.091845,-0.388444,-6.728383,-78.669731,6.207157
01466,452718,9.621812,-0.215262,1.772375,0.007844,0.004050,0.009857,-0.314416,0.089837,-0.389544,-6.747709,-78.664191,6.231820
01467,452818,9.637641,-0.215228,1.813155,0.009787,-0.020519,0.008062,-0.317931,0.089820,-0.388046,-6.768501,-78.676742,6.259172
01468,452918,9.695663,-0.172329,1.921213,0.011841,-0.023190,0.007134,-0.318427,0.090824,-0.387995,-6.790630,-78.691135,6.283666
01469,453018,9.706119,-0.142625,1.966369,0.008170,-0.006763,0.004417,-0.318879,0.090454,-0.390520,-6.798626,-78.694967,6.293793
01470,453118,9.659815,-0.143320,1.940574,0.005067,0.009584,0.002520,-0.319426,0.089345,-0.388072,-6.793744,-78.691984,6.294588
01471,453218,9.586946,-0.159088,1.896460,-0.000516,0.019187,-0.001410,-0.319355,0.093001,-0.391393,-6.791773,-78.681179,6.275830
01472,453318,9.550909,-0.166329,1.875146,0.000072,0.022746,-0.002427,-0.318457,0.089755,-0.386547,-6.774066,-78.671477,6.258377
01473,453418,9.511010,-0.196089,1.819003,0.002175,0.020278,-0.003561,-0.318894,0.092897,-0.389394,-6.764983,-78.661446,6.233759
01474,453518,9.530029,-0.251903,1.816241,0.006980,0.011043,-0.002129,-0.318436,0.090800,-0.387496,-6.752370,-78.657763,6.219725
01475,453618,9.563499,-0.256432,1.823551,0.009171,0.005367,-0.000724,-0.318917,0.090358,-0.388521,-6.741916,-78.656962,6.211501
01476,453718,9.622281,-0.285244,1.814786,0.003103,0.000597,0.000588,-0.318445,0.091274,-0.386970,-6.745366,-78.659418,6.208573
01477,453818,9.643583,-0.275195,1.893134,0.005492,-0.004080,0.007752,-0.321409,0.089899,-0.388547,-6.761216,-78.665709,6.227838
01478,453918,9.692888,-0.238936,1.889863,0.000150,-0.006603,0.013421,-0.318420,0.089852,-0.388546,-6.797897,-78.670217,6.265531
01479,454018,9.704125,-0.195523,1.929056,-0.000846,-0.004664,0.015352,-0.318985,0.088695,-0.385098,-6.836120,-78.676664,6.311178
01480,454118,9.688144,-0.173969,1.929425,-0.006507,-0.001387,0.016441,-0.320437,0.091306,-0.386971,-6.889539,-78.680893,6.354015
01481,454218,9.651158,-0.153900,1.946997,-0.007155,-0.001632,0.015498,-0.317947,0.085810,-0.387749,-6.915879,-78.682794,6.402154
01482,454318,9.601202,-0.129968,1.947513,-0.007884,-0.004179,0.012436,-0.317454,0.088269,-0.387123,-6.946456,-78.686122,6.439264
01483,454418,9.555544,-0.141532,1.902795,-0.010519,-0.008439,0.010388,-0.319435,0.089321,-0.387572,-6.977666,-78.693431,6.469606
01484,454518,9.534504,-0.118610,1.836389,-0.010758,-0.017119,0.009741,-0.318941,0.087321,-0.387674,-7.000787,-78.705226,6.504079
01485,454618,9.540810,-0.123364,1.828890,-0.010153,-0.024124,0.007814,-0.320961,0.087280,-0.386175,-7.020154,-78.724114,6.534577
01486,454718,9.559706,-0.165481,1.839079,-0.010166,-0.029850,0.011017,-0.321476,0.088236,-0.385125,-7.055384,-78.747054,6.574708
01487,454818,9.591173,-0.221451,1.865170,-0.007569,-0.031446,0.013115,-0.320018,0.088614,-0.383099,-7.099295,-78.770623,6.621453
01488,454918,9.613922,-0.226237,1.837937,-0.009289,-0.028341,0.011524,-0.321952,0.090285,-0.386023,-7.143553,-78.791797,6.659899
01489,455018,9.625911,-0.233767,1.824105,-0.007634,-0.027304,0.014597,-0.321967,0.087272,-0.385675,-7.180962,-78.812553,6.711455
01490,455118,9.621461,-0.223772,1.832425,-0.011857,-0.033198,0.014545,-0.319464,0.088751,-0.386098,-7.230605,-78.833427,6.764580
01491,455218,9.620895,-0.226097,1.841480,-0.010475,-0.042374,0.011842,-0.319962,0.089257,-0.386073,-7.277106,-78.859896,6.812512
01492,455318,9.661865,-0.209115,1.891901,-0.006147,-0.044620,0.010608,-0.321496,0.087191,-0.384176,-7.308873,-78.890714,6.859106
01493,455418,9.663475,-0.226519,1.915161,-0.001723,-0.038496,0.009222,-0.319494,0.087682,-0.384649,-7.334992,-78.915394,6.900095
01494,455518,9.649793,-0.230867,1.897743,0.002903,-0.031261,0.006380,-0.321501,0.089658,-0.383549,-7.357151,-78.938674,6.924951
01495,455618,9.630903,-0.240356,1.863876,0.005352,-0.018398,0.006982,-0.320519,0.087127,-0.383176,-7.363213,-78.954019,6.950914
01496,455718,9.609159,-0.263285,1.821117,0.006532,-0.017822,0.008801,-0.320506,0.089144,-0.383574,-7.383585,-78.968200,6.979151
01497,455818,9.604393,-0.269391,1.834493,0.007853,-0.023582,0.011090,-0.321503,0.088662,-0.383600,-7.409211,-78.986386,7.016618
01498,455918,9.599977,-0.242221,1.832856,0.006443,-0.028326,0.013390,-0.320077,0.086975,-0.380177,-7.439157,-79.008382,7.063236
01499,456018,9.602921,-0.217430,1.801462,0.001647,-0.031304,0.014303,-0.318533,0.088566,-0.382599,-7.482748,-79.027964,7.114868
01500,456118,9.607040,-0.186530,1.822116,-0.000559,-0.028741,0.013238,-0.320554,0.088027,-0.381126,-7.520781,-79.049385,7.160301
01501,456218,9.604236,-0.151630,1.826617,-0.003675,-0.028068,0.013106,-0.323025,0.088614,-0.382101,-7.560730,-79.071965,7.203623
01502,456318,9.608425,-0.126914,1.810286,-0.004113,-0.025929,0.011095,-0.320050,0.086549,-0.381701,-7.585500,-79.090671,7.245503
01503,456418,9.626814,-0.156297,1.776954,-0.002560,-0.027144,0.008725,-0.321550,0.088541,-0.381101,-7.612796,-79.111902,7.275313
01504,456518,9.641402,-0.197516,1.762106,-0.000923,-0.027132,0.007825,-0.322558,0.087039,-0.380677,-7.628513,-79.134608,7.303840
01505,456618,9.674174,-0.226693,1.755447,0.001639,-0.026640,0.006071,-0.322586,0.086966,-0.379178,-7.638377,-79.158235,7.324724
01506,456718,9.629122,-0.237535,1.778424,-0.000661,-0.027713,0.003815,-0.322537,0.088083,-0.381626,-7.647210,-79.180141,7.341074
01507,456818,9.590187,-0.242120,1.792377,-0.005961,-0.038647,0.003728,-0.323047,0.086572,-0.381203,-7.655306,-79.209065,7.363474
01508,456918,9.660841,-0.229251,1.772320,-0.004854,-0.034573,0.006623,-0.323590,0.087954,-0.378628,-7.678939,-79.237758,7.385692
01509,457018,9.615299,-0.125352,1.829433,0.001002,-0.022335,0.007582,-0.321554,0.086050,-0.381228,-7.686134,-79.255017,7.415945
01510,457118,9.567013,-0.148518,1.754380,-0.006199,-0.023315,0.007243,-0.323584,0.085985,-0.379229,-7.696975,-79.276623,7.439876
01511,457218,9.604220,-0.161260,1.781389,-0.013930,-0.018940,0.004861,-0.323032,0.090084,-0.381525,-7.723280,-79.292601,7.452102
01512,457318,9.554266,-0.223472,1.841924,-0.016942,-0.024481,0.005761,-0.324538,0.089087,-0.381076,-7.750009,-79.313634,7.469721
01513,457418,9.556938,-0.256980,1.792398,-0.022319,-0.030893,0.006560,-0.324559,0.087544,-0.380153,-7.776988,-79.338996,7.494383
01514,457518,9.625381,-0.264194,1.695102,-0.019314,-0.031068,0.010155,-0.324574,0.089489,-0.379052,-7.824290,-79.364589,7.524617
01515,457618,9.632558,-0.253013,1.667308,-0.014016,-0.019329,0.013732,-0.322031,0.087601,-0.382151,-7.862803,-79.377787,7.574204
01516,457718,9.648845,-0.282024,1.653993,-0.008849,-0.017536,0.011913,-0.324586,0.087970,-0.378628,-7.895563,-79.395851,7.607019
01517,457818,9.686960,-0.266429,1.769821,-0.000431,-0.021684,0.013626,-0.320056,0.088019,-0.381126,-7.931335,-79.408618,7.656917
01518,457918,9.681472,-0.247700,1.844439,0.002724,-0.026607,0.013352,-0.324104,0.089409,-0.377552,-7.974876,-79.431506,7.693589
01519,458018,9.644243,-0.237412,1.788468,0.004400,-0.036681,0.013434,-0.323546,0.086580,-0.381203,-8.003571,-79.456389,7.750547
01520,458118,9.663693,-0.202520,1.799293,0.004093,-0.046193,0.012394,-0.322569,0.091474,-0.379449,-8.062747,-79.486071,7.795289
01521,458218,9.674374,-0.191590,1.828435,0.003357,-0.045108,0.010559,-0.325065,0.088026,-0.379628,-8.095547,-79.518153,7.840616
01522,458318,9.650570,-0.153939,1.821024,0.002814,-0.028938,0.009140,-0.324595,0.087946,-0.378128,-8.118724,-79.541696,7.871901
01523,458418,9.616588,-0.168854,1.742463,-0.003653,-0.013467,0.007017,-0.325562,0.089031,-0.379577,-8.136257,-79.556162,7.889928
01524,458518,9.585635,-0.240914,1.665239,-0.006611,-0.009558,0.008009,-0.326557,0.089545,-0.379552,-8.158887,-79.569307,7.907492
01525,458618,9.593138,-0.282080,1.589119,-0.005372,-0.012651,0.010185,-0.324080,0.087488,-0.379153,-8.179329,-79.581674,7.940032
01526,458718,9.600417,-0.312494,1.580583,-0.000149,-0.028200,0.010628,-0.328543,0.088105,-0.380129,-8.204655,-79.606836,7.977716
01527,458818,9.609667,-0.307312,1.638161,0.004263,-0.042339,0.010203,-0.324028,0.090100,-0.381525,-8.245506,-79.632860,8.024419
01528,458918,9.657099,-0.271353,1.713353,0.010461,-0.049936,0.010795,-0.327572,0.089512,-0.378553,-8.285629,-79.669636,8.067653
01529,459018,9.683870,-0.229019,1.777930,0.006992,-0.047178,0.008927,-0.326590,0.086483,-0.378205,-8.304949,-79.704217,8.112204
01530,459118,9.685044,-0.232015,1.844639,-0.001965,-0.037728,0.008455,-0.325558,0.091023,-0.379475,-8.348853,-79.730066,8.144510
01531,459218,9.716823,-0.222941,1.842042,-0.004906,-0.027692,0.012850,-0.326063,0.087544,-0.379653,-8.383181,-79.750611,8.195568
01532,459318,9.750536,-0.242805,1.760126,-0.006573,-0.013151,0.019089,-0.325121,0.087882,-0.376629,-8.436753,-79.763799,8.251937
01533,459418,9.786564,-0.273781,1.687519,-0.007917,0.002996,0.020536,-0.325611,0.087415,-0.377154,-8.484299,-79.767886,8.307670
01534,459518,9.741961,-0.348280,1.625717,-0.005820,0.007796,0.018806,-0.326605,0.088926,-0.377078,-8.530732,-79.770420,8.350484
01535,459618,9.711916,-0.352539,1.620516,0.000689,0.004084,0.018184,-0.324624,0.087375,-0.376654,-8.566062,-79.773370,8.398376
01536,459718,9.666379,-0.348641,1.638527,0.003632,-0.000727,0.012726,-0.327123,0.087889,-0.376130,-8.586704,-79.782844,8.425630
01537,459818,9.644488,-0.318800,1.662442,0.005561,-0.007547,0.010826,-0.326091,0.086973,-0.378180,-8.597038,-79.793295,8.459851
01538,459918,9.617533,-0.292132,1.683432,0.005423,-0.013680,0.008454,-0.329596,0.087479,-0.377155,-8.604665,-79.812329,8.481072
01539,460018,9.653843,-0.253341,1.697491,0.005337,-0.020801,0.007179,-0.324608,0.085929,-0.377730,-8.606027,-79.828995,8.513307
01540,460118,9.646504,-0.267490,1.704990,0.003405,-0.015925,0.009059,-0.326108,0.087922,-0.377129,-8.623321,-79.844602,8.539707
01541,460218,9.644600,-0.285315,1.704365,-0.000405,-0.013584,0.008694,-0.328572,0.087535,-0.378654,-8.634958,-79.860435,8.567505
01542,460318,9.653408,-0.286355,1.660354,-0.005072,-0.008843,0.009181,-0.325577,0.086017,-0.379230,-8.641396,-79.869527,8.604282
01543,460418,9.674692,-0.298742,1.625622,-0.007962,-0.004184,0.006620,-0.330579,0.089511,-0.377554,-8.657300,-79.883125,8.608510
01544,460518,9.651690,-0.307533,1.602438,-0.006734,-0.000583,0.007210,-0.327070,0.086539,-0.379205,-8.656294,-79.889301,8.632116
01545,460618,9.655873,-0.297500,1.612547,-0.003314,-0.004535,0.006136,-0.326590,0.086483,-0.378205,-8.653083,-79.898071,8.650908
01546,460718,9.669760,-0.308913,1.624733,-0.001520,-0.012292,0.004542,-0.327608,0.084956,-0.377282,-8.639160,-79.913601,8.667721
01547,460818,9.666705,-0.322466,1.658814,0.000765,-0.019284,0.003060,-0.328562,0.087559,-0.379154,-8.635106,-79.931999,8.681722
01548,460918,9.670499,-0.290605,1.682739,0.001798,-0.026334,0.003087,-0.326627,0.086885,-0.376180,-8.635111,-79.954582,8.691570
01549,461018,9.663034,-0.284771,1.733062,0.003576,-0.029039,0.000854,-0.328583,0.086514,-0.378206,-8.622607,-79.979229,8.703162
01550,461118,9.655209,-0.307796,1.736086,0.005504,-0.031050,0.000199,-0.327621,0.087897,-0.376130,-8.619332,-80.005212,8.701931
01551,461218,9.653673,-0.337708,1.708063,0.007170,-0.025632,0.000778,-0.328065,0.087053,-0.379180,-8.606023,-80.025721,8.715985
01552,461318,9.631407,-0.329509,1.646600,0.010217,-0.020198,-0.000419,-0.326587,0.088476,-0.378103,-8.595629,-80.041934,8.716350
01553,461418,9.613908,-0.327007,1.618108,0.011772,-0.013857,-0.000919,-0.327097,0.086965,-0.377680,-8.571326,-80.055759,8.713995
01554,461518,9.625073,-0.299083,1.616233,0.009652,-0.013680,-0.002609,-0.330111,0.088435,-0.376105,-8.550885,-80.074381,8.690079
01555,461618,9.659743,-0.268196,1.593096,0.007281,-0.017578,-0.002035,-0.327640,0.087849,-0.375130,-8.535590,-80.092867,8.671583
01556,461718,9.662902,-0.252077,1.634606,0.002715,-0.023580,-0.003051,-0.326639,0.085366,-0.375757,-8.508385,-80.113227,8.665653
01557,461818,9.665296,-0.251429,1.674862,-0.001619,-0.033487,-0.002766,-0.326577,0.088998,-0.378577,-8.507883,-80.135473,8.667529
01558,461918,9.703488,-0.235037,1.704238,-0.005808,-0.040682,-0.004625,-0.329059,0.088564,-0.379104,-8.501996,-80.164298,8.668128
01559,462018,9.695753,-0.254474,1.743158,-0.006773,-0.037026,-0.006051,-0.328097,0.084988,-0.377782,-8.471515,-80.191534,8.669258
01560,462118,9.667583,-0.287295,1.752959,-0.010018,-0.033396,-0.009075,-0.328586,0.089978,-0.377528,-8.460588,-80.216509,8.641116
01561,462218,9.749827,-0.295232,1.675145,0.001366,-0.016455,-0.009826,-0.327583,0.088492,-0.378104,-8.424091,-80.230245,8.611469
01562,462318,9.723603,-0.237675,1.663566,0.017868,0.007669,-0.007821,-0.329087,0.087993,-0.377630,-8.369845,-80.232578,8.573162
01563,462418,9.645313,-0.261687,1.568009,0.017303,0.012044,-0.008215,-0.330058,0.087085,-0.379180,-8.305369,-80.232441,8.539907
01564,462518,9.626488,-0.273548,1.554568,0.006663,0.005164,-0.006273,-0.327595,0.086973,-0.377680,-8.260415,-80.234339,8.512543
01565,462618,9.588729,-0.315953,1.654075,-0.002895,-0.016851,-0.005455,-0.330068,0.086562,-0.378706,-8.228598,-80.250710,8.501689
01566,462718,9.631768,-0.320979,1.710475,-0.010365,-0.035664,-0.001313,-0.330537,0.087141,-0.380180,-8.225139,-80.276162,8.519705
01567,462818,9.629618,-0.264944,1.674147,-0.017036,-0.037874,0.001768,-0.329052,0.087093,-0.379680,-8.238251,-80.300872,8.550014
01568,462918,9.617080,-0.232469,1.608043,-0.018746,-0.024598,0.004650,-0.329590,0.085510,-0.377757,-8.247430,-80.320417,8.577877
01569,463018,9.582503,-0.244158,1.572638,-0.019133,-0.015835,0.003194,-0.330088,0.085518,-0.377757,-8.247155,-80.335578,8.596106
01570,463118,9.574321,-0.247039,1.610754,-0.009656,-0.022580,0.000028,-0.334074,0.085083,-0.377784,-8.227648,-80.359718,8.602220
01571,463218,9.607051,-0.253345,1.669382,-0.000920,-0.035124,-0.002610,-0.332087,0.087518,-0.377156,-8.217815,-80.388364,8.598068
01572,463318,9.610652,-0.267165,1.638041,0.005070,-0.051537,-0.003998,-0.331571,0.087060,-0.378181,-8.204956,-80.424414,8.607170
01573,463418,9.668222,-0.284012,1.646122,0.009655,-0.067919,-0.006832,-0.331088,0.088997,-0.377079,-8.201661,-80.469387,8.604168
01574,463518,9.708286,-0.293034,1.713962,0.012867,-0.074056,-0.006196,-0.331033,0.088643,-0.380104,-8.197035,-80.514273,8.628088
01575,463618,9.754138,-0.244407,1.726735,0.008764,-0.062301,-0.007048,-0.332040,0.087639,-0.379655,-8.180019,-80.553945,8.643269
01576,463718,9.714769,-0.175708,1.695339,0.001719,-0.047684,-0.005611,-0.334091,0.086031,-0.376733,-8.156235,-80.590517,8.639944
01577,463818,9.640487,-0.132177,1.649604,-0.010387,-0.044664,-0.004916,-0.337531,0.086207,-0.379234,-8.135018,-80.626850,8.648222
01578,463918,9.582081,-0.104078,1.630665,-0.027119,-0.050934,-0.007804,-0.332597,0.086007,-0.376733,-8.123002,-80.662585,8.644033
01579,464018,9.578224,-0.065236,1.680297,-0.038285,-0.060837,-0.008739,-0.335145,0.084906,-0.373785,-8.111953,-80.709757,8.622014
01580,464118,9.558948,-0.070533,1.681048,-0.047850,-0.072473,-0.016590,-0.335083,0.083081,-0.377386,-8.069432,-80.760351,8.611156
01581,464218,9.533979,-0.069847,1.643600,-0.047603,-0.075264,-0.021792,-0.340046,0.083209,-0.378387,-8.002988,-80.817606,8.582140
01582,464318,9.535897,-0.071581,1.631655,-0.044268,-0.074025,-0.026305,-0.339536,0.084720,-0.378810,-7.926524,-80.872371,8.537995
01583,464418,9.560456,-0.162156,1.587498,-0.039217,-0.072526,-0.027055,-0.341089,0.082606,-0.375914,-7.830747,-80.930854,8.471551
01584,464518,9.574818,-0.175553,1.588570,-0.024828,-0.079012,-0.022821,-0.341122,0.080042,-0.374541,-7.729729,-80.993831,8.420227
01585,464618,9.570709,-0.204218,1.583261,-0.017260,-0.089184,-0.016931,-0.342145,0.080484,-0.373017,-7.652655,-81.063912,8.379437
01586,464718,9.584386,-0.209057,1.570393,-0.016824,-0.092652,-0.010853,-0.342573,0.078194,-0.377142,-7.579831,-81.131770,8.407165
01587,464818,9.585434,-0.195900,1.621997,-0.017047,-0.102886,-0.004197,-0.344655,0.075019,-0.372797,-7.517215,-81.211621,8.427236
01588,464918,9.617364,-0.138932,1.704268,-0.017480,-0.112716,0.004192,-0.346124,0.073621,-0.374373,-7.477790,-81.296145,8.501152
01589,465018,9.641917,-0.032617,1.758721,-0.019002,-0.111916,0.009899,-0.348608,0.072190,-0.374950,-7.446512,-81.381816,8.601056
01590,465118,9.650619,0.080423,1.852728,-0.014548,-0.106830,0.011449,-0.351610,0.069721,-0.374578,-7.396070,-81.468339,8.698268
01591,465218,9.630117,0.137599,1.835432,-0.003023,-0.097295,0.012875,-0.351630,0.068677,-0.373629,-7.335389,-81.549475,8.786752
01592,465318,9.619690,0.225141,1.849764,0.009751,-0.096951,0.012734,-0.351659,0.068605,-0.372130,-7.270769,-81.630559,8.855040
01593,465418,9.635637,0.247495,1.865566,0.026410,-0.103486,0.011467,-0.353145,0.067656,-0.372681,-7.191706,-81.715270,8.928861
01594,465518,9.678143,0.183748,1.886721,0.036796,-0.108650,0.011029,-0.357159,0.067149,-0.371208,-7.107364,-81.806770,8.972826
01595,465618,9.692607,0.146773,1.855177,0.047434,-0.110590,0.009662,-0.361224,0.064030,-0.367363,-7.006800,-81.903926,8.958032
