PacketCounter,SampleTimeFine,Acc_X,Acc_Y,Acc_Z,Gyr_X,Gyr_Y,Gyr_Z,Mag_X,Mag_Y,Mag_Z,Roll,Pitch,Yaw
03899,524388,9.656492,0.060152,1.709147,0.035440,-0.004441,0.022716,-0.246369,0.226729,-0.412551,-0.659318,-79.945343,0.649192
03900,524488,9.744941,0.193373,1.712120,0.036820,0.002453,0.026453,-0.243439,0.225043,-0.409628,-0.719934,-79.944401,0.732361
03901,524588,9.785966,0.224200,1.677933,0.036509,0.005153,0.025682,-0.239875,0.226675,-0.413549,-0.778075,-79.941904,0.812839
03902,524688,9.816387,0.196867,1.675527,0.034827,0.001529,0.021885,-0.240872,0.231150,-0.412821,-0.825028,-79.941502,0.880972
03903,524788,9.806361,0.115518,1.716541,0.040347,0.002028,0.012933,-0.242844,0.232227,-0.413770,-0.839862,-79.940882,0.919703
03904,524888,9.809722,-0.030760,1.780219,0.049340,0.003148,0.002237,-0.240865,0.230178,-0.413371,-0.814949,-79.939709,0.923305
03905,524988,9.788128,-0.125497,1.809740,0.053496,0.012715,-0.005721,-0.240856,0.229704,-0.413896,-0.761558,-79.933116,0.900398
03906,525088,9.718306,-0.222310,1.804289,0.057122,0.031004,-0.011436,-0.240865,0.230178,-0.413371,-0.687011,-79.916081,0.858108
03907,525188,9.645331,-0.244026,1.759396,0.056233,0.049573,-0.015117,-0.237804,0.234285,-0.416666,-0.600718,-79.888419,0.803358
03908,525288,9.605162,-0.202463,1.715490,0.051131,0.067100,-0.013264,-0.238852,0.236648,-0.413540,-0.523159,-79.850692,0.754486
03909,525388,9.593375,-0.096068,1.660829,0.047516,0.074313,-0.006874,-0.239330,0.237700,-0.414489,-0.468328,-79.808791,0.726608
03910,525488,9.635162,0.041229,1.628898,0.045109,0.071796,-0.000310,-0.235295,0.239750,-0.416885,-0.436101,-79.768301,0.720299
03911,525588,9.678787,0.132594,1.602757,0.035937,0.066251,0.008205,-0.234324,0.241157,-0.415309,-0.436309,-79.730954,0.741578
03912,525688,9.694252,0.176251,1.618615,0.027653,0.058846,0.009162,-0.234795,0.245697,-0.416080,-0.444355,-79.697847,0.765958
03913,525788,9.729584,0.158882,1.652886,0.021367,0.048779,0.006205,-0.233315,0.247618,-0.414979,-0.446833,-79.670524,0.781027
03914,525888,9.762485,0.106033,1.694553,0.017063,0.042894,0.001197,-0.233775,0.248719,-0.416927,-0.436153,-79.646596,0.780277
03915,525988,9.727803,0.055501,1.725884,0.008876,0.045791,-0.004363,-0.233248,0.249281,-0.418401,-0.412717,-79.621033,0.761818
03916,526088,9.689958,-0.015254,1.726091,0.006588,0.049695,-0.011106,-0.236186,0.251442,-0.420799,-0.369572,-79.593259,0.721897
03917,526188,9.650291,-0.049850,1.744863,0.007383,0.056336,-0.014295,-0.234289,0.250173,-0.415852,-0.316162,-79.561686,0.671883
03918,526288,9.633683,-0.008836,1.702567,0.003515,0.060549,-0.015531,-0.236212,0.252865,-0.419224,-0.261384,-79.527695,0.618253
03919,526388,9.614807,0.076931,1.679952,-0.000857,0.061267,-0.013904,-0.235738,0.254777,-0.417623,-0.214471,-79.493284,0.569776
03920,526488,9.619210,0.122701,1.702016,-0.008477,0.060222,-0.014982,-0.235215,0.252849,-0.419224,-0.168892,-79.459463,0.518942
03921,526588,9.633329,0.121003,1.725947,-0.014798,0.058816,-0.015500,-0.237690,0.256898,-0.419521,-0.125650,-79.426450,0.465872
03922,526688,9.630800,0.082698,1.770285,-0.024308,0.053820,-0.013919,-0.234253,0.254729,-0.417122,-0.092999,-79.396285,0.418613
03923,526788,9.629443,-0.016384,1.804974,-0.032631,0.046161,-0.015430,-0.237718,0.256826,-0.418021,-0.060739,-79.370511,0.366445
03924,526888,9.681723,-0.062731,1.853160,-0.036692,0.051041,-0.017656,-0.237226,0.258288,-0.417445,-0.024241,-79.341935,0.307416
03925,526988,9.735755,-0.035638,1.851018,-0.028813,0.066378,-0.018079,-0.237675,0.254953,-0.420622,0.017793,-79.304553,0.249124
03926,527088,9.732902,0.016589,1.751245,-0.017260,0.091855,-0.019048,-0.238701,0.258859,-0.418420,0.068889,-79.252580,0.186180
03927,527188,9.649720,0.024339,1.682639,-0.010958,0.102990,-0.024202,-0.240173,0.260924,-0.419318,0.138445,-79.194213,0.108084
03928,527288,9.572373,-0.019523,1.730805,-0.013768,0.099895,-0.028089,-0.240677,0.257444,-0.419496,0.217270,-79.137588,0.020377
03929,527388,9.523039,-0.075049,1.892775,-0.019814,0.074389,-0.028322,-0.238159,0.257477,-0.420995,0.292837,-79.095546,-0.067407
03930,527488,9.582206,-0.090141,1.992901,-0.029129,0.054794,-0.024813,-0.239683,0.256432,-0.419547,0.352419,-79.064727,-0.144744
03931,527588,9.691564,-0.060783,1.946100,-0.030442,0.068995,-0.020404,-0.238140,0.257525,-0.421995,0.397503,-79.025767,-0.207900
03932,527688,9.697295,0.009551,1.836224,-0.027442,0.100681,-0.012861,-0.238677,0.256440,-0.420046,0.421024,-78.968682,-0.247703
03933,527788,9.649399,0.067956,1.756265,-0.027046,0.118324,-0.008129,-0.237128,0.256062,-0.423070,0.430216,-78.901502,-0.271889
03934,527888,9.592412,0.087908,1.787661,-0.023551,0.113452,-0.007924,-0.237104,0.259100,-0.423918,0.440708,-78.837121,-0.296475
03935,527988,9.542070,0.058034,1.788304,-0.016287,0.082059,-0.009222,-0.235131,0.259020,-0.422917,0.459638,-78.790720,-0.325399
03936,528088,9.559859,0.006784,1.807992,-0.000507,0.037381,-0.015711,-0.238641,0.256038,-0.422071,0.507251,-78.769889,-0.373749
03937,528188,9.624206,-0.019769,1.887687,0.013875,0.006071,-0.020853,-0.237140,0.260000,-0.421868,0.578595,-78.766960,-0.439208
03938,528288,9.675421,-0.065778,1.930879,0.021785,0.002026,-0.027099,-0.237632,0.258039,-0.422469,0.672589,-78.766286,-0.522029
03939,528388,9.667356,-0.059349,1.968439,0.030153,0.015875,-0.028380,-0.237150,0.259478,-0.421393,0.774506,-78.757643,-0.608792
03940,528488,9.661193,-0.024488,1.935866,0.033599,0.037221,-0.026541,-0.236633,0.259518,-0.422392,0.872023,-78.736753,-0.688628
03941,528588,9.660520,0.027480,1.901333,0.031169,0.054105,-0.021808,-0.238655,0.258481,-0.420944,0.953447,-78.706215,-0.753580
03942,528688,9.654636,0.045444,1.832242,0.028108,0.058807,-0.017182,-0.236654,0.257975,-0.421469,1.019246,-78.673007,-0.803985
03943,528788,9.630512,0.107072,1.829835,0.018028,0.056072,-0.012881,-0.236124,0.260531,-0.422841,1.066816,-78.641405,-0.842253
03944,528888,9.581968,0.068847,1.832460,0.006715,0.044194,-0.010364,-0.237110,0.261069,-0.423316,1.101181,-78.616633,-0.873595
03945,528988,9.575942,0.039039,1.824599,-0.003088,0.032851,-0.009258,-0.236637,0.262483,-0.421740,1.127281,-78.598372,-0.902676
03946,529088,9.574298,0.011831,1.858345,-0.008225,0.026454,-0.007193,-0.236594,0.260611,-0.424341,1.144870,-78.583791,-0.924740
03947,529188,9.590402,-0.012112,1.890337,-0.013324,0.023746,-0.006727,-0.237139,0.260498,-0.421842,1.158318,-78.570771,-0.946283
03948,529288,9.607809,-0.020781,1.944194,-0.005354,0.032726,-0.010090,-0.235625,0.261021,-0.422816,1.185265,-78.552563,-0.976743
03949,529388,9.625717,0.045913,2.003271,0.004912,0.037675,-0.008137,-0.236614,0.265023,-0.422613,1.212184,-78.531545,-1.002109
03950,529488,9.643847,0.057185,2.014256,0.015356,0.049306,-0.013745,-0.235632,0.262492,-0.422240,1.260085,-78.503786,-1.041765
03951,529588,9.682307,0.058189,1.973549,0.027104,0.063396,-0.013879,-0.236063,0.263664,-0.425688,1.313969,-78.467944,-1.080580
03952,529688,9.674451,0.035585,1.965260,0.034175,0.071079,-0.012306,-0.233585,0.267064,-0.424510,1.366689,-78.427719,-1.114833
03953,529788,9.642213,0.021202,1.951108,0.039379,0.067165,-0.012077,-0.232089,0.268037,-0.424458,1.421719,-78.389732,-1.148140
03954,529888,9.633616,0.022683,1.892008,0.045989,0.058174,-0.013813,-0.233598,0.264549,-0.424137,1.485721,-78.356864,-1.186215
03955,529988,9.625213,0.015134,1.912109,0.040171,0.052406,-0.013833,-0.233133,0.266936,-0.422010,1.546580,-78.327296,-1.225108
03956,530088,9.598373,0.034034,1.906526,0.031855,0.044951,-0.012671,-0.233084,0.263095,-0.425212,1.599793,-78.302003,-1.260161
03957,530188,9.532224,0.016255,1.908286,0.020762,0.031958,-0.009871,-0.231108,0.264510,-0.424136,1.639749,-78.284196,-1.288758
03958,530288,9.530467,0.072464,1.939116,0.010273,0.021918,-0.005222,-0.232087,0.263577,-0.425187,1.661586,-78.272212,-1.304787
03959,530388,9.539119,0.119840,1.970631,0.006500,0.017195,-0.000129,-0.230640,0.268391,-0.421933,1.667562,-78.263020,-1.307586
03960,530488,9.559303,0.142803,1.973238,0.007895,0.016997,0.000711,-0.232083,0.266068,-0.425060,1.672051,-78.253952,-1.307178
03961,530588,9.620665,0.178299,1.981407,0.015714,0.017887,0.003163,-0.230089,0.267033,-0.425008,1.674203,-78.244415,-1.300048
03962,530688,9.637246,0.150008,1.978412,0.021770,0.021554,0.003213,-0.231072,0.269066,-0.425407,1.679405,-78.232781,-1.292639
03963,530788,9.684779,0.096337,1.992386,0.027051,0.026844,0.002160,-0.229608,0.272932,-0.423204,1.690099,-78.218101,-1.287937
03964,530888,9.668313,0.021036,2.009094,0.029951,0.029783,-0.000590,-0.229609,0.271935,-0.423254,1.709747,-78.201689,-1.290343
03965,530988,9.666311,-0.027904,2.025306,0.027206,0.031863,-0.002247,-0.229107,0.274419,-0.423127,1.732147,-78.184058,-1.297266
03966,531088,9.628577,-0.032793,2.051758,0.025610,0.034813,-0.000526,-0.230554,0.275061,-0.425601,1.748632,-78.164765,-1.298968
03967,531188,9.589538,-0.020059,2.064769,0.023566,0.034356,0.002015,-0.231060,0.276041,-0.425051,1.757013,-78.145778,-1.293633
03968,531288,9.571090,0.041827,2.061872,0.020684,0.038053,0.007521,-0.226606,0.274901,-0.423601,1.748429,-78.124768,-1.272601
03969,531388,9.568947,0.133402,2.079468,0.018831,0.042607,0.010545,-0.229054,0.278027,-0.425449,1.730252,-78.101200,-1.242893
03970,531488,9.580818,0.162561,2.082254,0.015461,0.040722,0.012293,-0.228578,0.281434,-0.423771,1.705660,-78.078737,-1.208611
03971,531588,9.602921,0.203215,2.050715,0.016449,0.036962,0.014206,-0.226547,0.282495,-0.425719,1.676875,-78.058456,-1.169408
03972,531688,9.643177,0.188361,2.045418,0.024940,0.033513,0.013608,-0.228019,0.284062,-0.426643,1.654964,-78.040137,-1.132265
03973,531788,9.687682,0.135739,2.055081,0.029994,0.036515,0.011496,-0.226578,0.285388,-0.423568,1.641511,-78.020060,-1.100811
03974,531888,9.679836,0.078333,2.061382,0.030708,0.041329,0.006653,-0.222085,0.285840,-0.424040,1.641225,-77.997146,-1.082381
03975,531988,9.669558,-0.014172,2.068531,0.031341,0.048013,0.004939,-0.225061,0.287904,-0.424439,1.645424,-77.970375,-1.068173
03976,532088,9.625830,-0.043451,2.040922,0.027928,0.050629,0.004776,-0.225032,0.283018,-0.426693,1.647917,-77.942104,-1.054204
03977,532188,9.575171,-0.018206,2.073699,0.023416,0.053975,0.005130,-0.222602,0.285799,-0.423041,1.646643,-77.911921,-1.039044
03978,532288,9.555469,0.034625,2.048826,0.022499,0.056835,0.008184,-0.220603,0.284297,-0.423616,1.636520,-77.880150,-1.015360
03979,532388,9.537003,0.098934,2.057336,0.018605,0.054038,0.008717,-0.223124,0.282769,-0.422194,1.623053,-77.849989,-0.990537
03980,532488,9.539961,0.127718,2.046043,0.018612,0.047360,0.010177,-0.223114,0.283292,-0.422668,1.606311,-77.823674,-0.962356
03981,532588,9.513870,0.163533,2.057013,0.017971,0.039960,0.010105,-0.221576,0.281396,-0.425269,1.590040,-77.801593,-0.935024
03982,532688,9.550473,0.133481,2.101135,0.010574,0.028724,0.010148,-0.220139,0.280729,-0.422295,1.570321,-77.785947,-0.908504
03983,532788,9.615060,0.130936,2.092817,0.007177,0.031030,0.008070,-0.221674,0.278664,-0.420398,1.554047,-77.768944,-0.887495
03984,532888,9.642604,0.142004,2.129895,0.016461,0.043759,0.005938,-0.217676,0.280617,-0.420794,1.547868,-77.744616,-0.871373
03985,532988,9.628108,0.071228,2.059666,0.013375,0.051433,0.003706,-0.216160,0.282635,-0.421692,1.545299,-77.715858,-0.860751
03986,533088,9.607771,0.013896,1.970409,0.013131,0.060295,0.000790,-0.217197,0.280063,-0.419820,1.549642,-77.681982,-0.857347
03987,533188,9.494958,-0.016992,2.044346,0.006616,0.049249,0.001261,-0.218198,0.277588,-0.419947,1.549795,-77.654440,-0.853475
03988,533288,9.461209,-0.033208,2.116684,-0.001929,0.020002,0.002139,-0.219183,0.273666,-0.421150,1.544822,-77.643662,-0.849362
03989,533388,9.487276,0.002788,2.146398,-0.013034,0.001227,0.004239,-0.220192,0.276623,-0.419999,1.529319,-77.643668,-0.840999
03990,533488,9.572957,0.099430,2.129943,-0.008015,0.010143,0.009733,-0.218656,0.274229,-0.422625,1.501717,-77.638648,-0.817286
03991,533588,9.584715,0.164071,2.060742,-0.013808,0.032107,0.012882,-0.217182,0.273160,-0.421675,1.461136,-77.621093,-0.783690
03992,533688,9.563446,0.178764,2.047857,-0.013687,0.042539,0.013692,-0.216702,0.273104,-0.420675,1.417955,-77.597570,-0.747363
03993,533788,9.538499,0.174749,2.125575,-0.010036,0.038852,0.012760,-0.217207,0.274583,-0.420099,1.379677,-77.576138,-0.713915
03994,533888,9.543160,0.149146,2.194706,-0.004717,0.024974,0.012097,-0.217677,0.269705,-0.422353,1.347145,-77.562641,-0.683184
03995,533988,9.524395,0.104233,2.160508,-0.002504,0.001866,0.008138,-0.216759,0.267005,-0.418481,1.327614,-77.562322,-0.664498
03996,534088,9.539228,0.047604,2.157307,0.004879,-0.020836,0.004027,-0.217714,0.269608,-0.420354,1.324350,-77.574950,-0.658150
03997,534188,9.588747,0.054225,2.189234,0.010969,-0.027598,0.001576,-0.217733,0.269062,-0.419379,1.331354,-77.591417,-0.658733
03998,534288,9.615770,0.069330,2.134782,0.011589,-0.016534,-0.000608,-0.217267,0.266989,-0.417981,1.343741,-77.601517,-0.664447
03999,534388,9.595734,0.093532,2.050342,0.009350,0.005716,-0.001615,-0.218294,0.265437,-0.416559,1.356119,-77.598860,-0.671476
04000,534488,9.511734,0.113673,1.932105,0.003545,0.012752,-0.001803,-0.218260,0.263541,-0.418659,1.365226,-77.592172,-0.678495
04001,534588,9.496880,0.109842,1.876557,-0.000172,0.001765,-0.001224,-0.217729,0.266097,-0.420032,1.371378,-77.591789,-0.684778
04002,534688,9.503301,0.072513,1.944282,0.000924,-0.020511,-0.002769,-0.218280,0.262496,-0.417711,1.383585,-77.604147,-0.696525
04003,534788,9.529038,0.031520,2.004607,0.000312,-0.039997,0.000048,-0.217309,0.264401,-0.416109,1.389343,-77.627707,-0.702205
04004,534888,9.553939,-0.018212,2.093724,0.001536,-0.051221,-0.000968,-0.218782,0.265968,-0.417033,1.399194,-77.657681,-0.711318
04005,534988,9.555476,-0.049815,2.138422,0.003942,-0.045596,-0.000424,-0.217762,0.263533,-0.418659,1.408670,-77.684438,-0.718326
04006,535088,9.599320,-0.063998,2.126704,-0.000957,-0.036670,-0.003688,-0.218754,0.266040,-0.418533,1.423356,-77.706037,-0.733929
04007,535188,9.602344,-0.029852,2.107536,-0.004439,-0.024838,-0.005274,-0.219257,0.268017,-0.417931,1.439483,-77.720835,-0.753141
04008,535288,9.577478,0.064844,2.104569,-0.007478,-0.022322,-0.004762,-0.216280,0.266949,-0.417481,1.452389,-77.734195,-0.770518
04009,535388,9.591331,0.094734,2.038700,-0.008365,-0.019081,-0.003853,-0.216263,0.266001,-0.418532,1.462211,-77.745712,-0.785121
04010,535488,9.575379,0.121481,2.003349,-0.010153,-0.015663,-0.003137,-0.217757,0.266522,-0.418507,1.468918,-77.755284,-0.797820
04011,535588,9.566444,0.133245,1.980640,-0.010914,-0.026412,0.000883,-0.216771,0.265486,-0.418057,1.465318,-77.771072,-0.800265
04012,535688,9.564412,0.123588,2.056032,-0.007959,-0.038013,0.003949,-0.218288,0.268925,-0.416381,1.456085,-77.793555,-0.795988
04013,535788,9.625263,0.115001,2.090654,-0.003257,-0.040228,0.006233,-0.216779,0.266458,-0.417507,1.443617,-77.817332,-0.784656
04014,535888,9.637330,0.064130,2.113206,-0.000539,-0.035746,0.005536,-0.217741,0.265076,-0.419583,1.434222,-77.838529,-0.774597
04015,535988,9.598925,0.041569,2.108691,0.005261,-0.030073,0.004376,-0.216744,0.265060,-0.419582,1.430824,-77.856460,-0.767576
04016,536088,9.593101,-0.011802,2.108948,0.005651,-0.022769,0.001244,-0.217276,0.266964,-0.417482,1.435488,-77.870168,-0.769500
04017,536188,9.549893,-0.028465,2.097333,0.007064,-0.019364,-0.002871,-0.216272,0.265977,-0.418032,1.451710,-77.881860,-0.781728
04018,536288,9.541037,0.017458,2.076711,0.006752,-0.015698,-0.002890,-0.217250,0.266041,-0.419032,1.467580,-77.891451,-0.793709
04019,536388,9.565756,0.076582,2.052612,0.000334,-0.013189,-0.001599,-0.218784,0.269929,-0.416330,1.476169,-77.899634,-0.803635
04020,536488,9.551367,0.119477,2.018340,-0.006464,-0.011291,0.003383,-0.220809,0.267398,-0.414958,1.467443,-77.906799,-0.798695
04021,536588,9.555676,0.158557,2.056306,-0.009615,-0.010778,0.006611,-0.217843,0.264811,-0.414085,1.448231,-77.913707,-0.783977
04022,536688,9.559021,0.143803,2.009663,-0.010312,-0.014556,0.008425,-0.218784,0.264971,-0.417084,1.424009,-77.922803,-0.764266
04023,536788,9.576972,0.110953,2.039774,-0.010791,-0.020638,0.010926,-0.218825,0.267840,-0.414433,1.393175,-77.935427,-0.739888
04024,536888,9.619810,0.062668,2.042857,-0.010670,-0.029004,0.012247,-0.217817,0.263887,-0.415635,1.359349,-77.952844,-0.710261
04025,536988,9.621754,-0.018175,2.069713,-0.007722,-0.033782,0.010137,-0.222847,0.262351,-0.413214,1.333114,-77.972981,-0.687619
04026,537088,9.619928,-0.049042,2.111416,-0.006355,-0.040894,0.007893,-0.218840,0.264328,-0.414111,1.314014,-77.997149,-0.671638
04027,537188,9.637079,-0.027293,2.108550,-0.009480,-0.035352,0.003486,-0.219776,0.266980,-0.416983,1.304596,-78.018083,-0.667595
04028,537288,9.606624,0.032561,2.078858,-0.012797,-0.031012,-0.000520,-0.222826,0.263894,-0.414137,1.303849,-78.036485,-0.674099
04029,537388,9.584295,0.047725,2.062068,-0.015673,-0.030096,-0.003993,-0.222276,0.262037,-0.417238,1.310799,-78.054300,-0.688074
04030,537488,9.575595,0.105845,2.042016,-0.020110,-0.028310,-0.003643,-0.222820,0.261925,-0.414739,1.314187,-78.071107,-0.702581
04031,537588,9.584879,0.145486,2.044733,-0.023063,-0.029163,-0.001387,-0.223844,0.262367,-0.413214,1.309845,-78.088440,-0.712010
04032,537688,9.623411,0.148048,2.017017,-0.025407,-0.028972,0.003305,-0.224828,0.258445,-0.414418,1.291426,-78.105709,-0.705210
04033,537788,9.627271,0.094697,1.987764,-0.022139,-0.026531,0.008977,-0.225792,0.261024,-0.415790,1.259241,-78.121658,-0.683962
04034,537888,9.601115,0.029004,1.981175,-0.013670,-0.022008,0.005481,-0.225803,0.260003,-0.415341,1.241109,-78.134969,-0.671756
04035,537988,9.590393,-0.028826,1.943631,-0.009189,-0.027552,0.002387,-0.225811,0.255519,-0.415570,1.234303,-78.151400,-0.664931
04036,538088,9.570912,-0.091727,1.978048,-0.003846,-0.033411,-0.001024,-0.225847,0.256419,-0.413520,1.240200,-78.171163,-0.671227
04037,538188,9.587033,-0.039138,2.028088,-0.004345,-0.038809,-0.003492,-0.225326,0.258453,-0.414418,1.252875,-78.193985,-0.685582
04038,538288,9.597693,0.028676,2.040954,-0.010838,-0.040739,-0.003681,-0.227816,0.258990,-0.414393,1.262543,-78.217925,-0.701736
04039,538388,9.598534,0.097740,2.090341,-0.023054,-0.044316,-0.000435,-0.226810,0.259497,-0.414867,1.256515,-78.243941,-0.708434
04040,538488,9.662728,0.108730,2.054456,-0.024536,-0.033394,0.002316,-0.225279,0.259071,-0.416891,1.241366,-78.263702,-0.703201
04041,538588,9.667992,0.175817,2.024632,-0.019605,-0.016270,0.008949,-0.227800,0.257544,-0.415468,1.209783,-78.273757,-0.678838
04042,538688,9.658324,0.172601,1.933686,-0.018315,-0.001845,0.012680,-0.228783,0.260075,-0.415842,1.167771,-78.275611,-0.646246
04043,538788,9.627231,0.100964,1.838682,-0.013995,0.004383,0.013177,-0.227821,0.256001,-0.414545,1.126558,-78.273877,-0.607479
04044,538888,9.538291,0.026683,1.890665,-0.010571,-0.012919,0.009068,-0.228856,0.255422,-0.412572,1.099615,-78.282034,-0.584205
04045,538988,9.503510,-0.015051,1.983657,-0.011233,-0.035177,0.008577,-0.229322,0.257495,-0.413970,1.074731,-78.302933,-0.564220
04046,539088,9.569535,0.013604,2.050671,-0.014660,-0.054274,0.011267,-0.229789,0.259568,-0.415368,1.041268,-78.334797,-0.538215
04047,539188,9.662014,0.040496,2.055380,-0.014333,-0.044910,0.014572,-0.227791,0.257568,-0.415968,0.998148,-78.361273,-0.495932
04048,539288,9.660006,0.067158,1.986232,-0.016342,-0.015727,0.015730,-0.229777,0.261087,-0.415791,0.949111,-78.371092,-0.456511
04049,539388,9.635822,0.031099,1.906729,-0.016645,-0.005115,0.017428,-0.228809,0.260999,-0.414292,0.894613,-78.374849,-0.414009
04050,539488,9.596341,0.022373,1.944655,-0.015121,-0.002778,0.016620,-0.230810,0.261006,-0.413792,0.843186,-78.377283,-0.375670
04051,539588,9.581489,0.056222,1.929641,-0.008327,-0.014983,0.016562,-0.228810,0.260501,-0.414317,0.796204,-78.386659,-0.334141
04052,539688,9.573465,0.052021,1.910120,-0.000517,-0.030775,0.011015,-0.229788,0.260067,-0.415342,0.769730,-78.405024,-0.306007
04053,539788,9.556841,0.021826,1.913673,0.007218,-0.048387,0.007844,-0.231768,0.262115,-0.415741,0.757140,-78.433497,-0.293137
04054,539888,9.594465,0.009203,1.954771,0.013888,-0.059733,0.006938,-0.230281,0.263064,-0.415190,0.751170,-78.468458,-0.286257
04055,539988,9.632695,0.064973,1.995012,0.011158,-0.058910,0.008049,-0.227298,0.264985,-0.414588,0.740246,-78.502942,-0.281795
04056,540088,9.649370,0.113809,2.003695,0.005121,-0.049204,0.009227,-0.229241,0.261175,-0.417790,0.722260,-78.531788,-0.256229
04057,540188,9.618527,0.119329,1.979512,-0.001809,-0.033616,0.011399,-0.229746,0.263152,-0.417189,0.693493,-78.551762,-0.231379
04058,540288,9.599197,0.134093,1.946658,-0.003158,-0.027354,0.011530,-0.231281,0.261086,-0.415292,0.663420,-78.568172,-0.202969
04059,540388,9.595959,0.120790,1.934729,-0.004866,-0.027929,0.013770,-0.229247,0.263643,-0.417163,0.625776,-78.584888,-0.171963
04060,540488,9.620647,0.099989,1.966579,-0.003241,-0.033720,0.012059,-0.230255,0.262140,-0.416740,0.594086,-78.604904,-0.141481
04061,540588,9.648760,0.028553,1.940685,-0.000665,-0.035589,0.011802,-0.229280,0.260581,-0.415816,0.564540,-78.625951,-0.106141
04062,540688,9.660608,0.008662,1.913251,0.002727,-0.033653,0.011503,-0.229808,0.259520,-0.414368,0.537694,-78.645903,-0.070622
04063,540788,9.618999,0.011500,1.914498,-0.000952,-0.031800,0.009314,-0.231320,0.259495,-0.413369,0.514934,-78.664829,-0.045025
04064,540888,9.589841,0.020181,1.868421,-0.005896,-0.020528,0.011191,-0.231799,0.260050,-0.414343,0.483611,-78.677300,-0.013179
04065,540988,9.539906,0.086254,1.886597,-0.002208,-0.025577,0.015054,-0.228349,0.260396,-0.412317,0.443192,-78.692654,0.025542
04066,541088,9.561745,0.137114,1.886916,-0.010272,-0.025706,0.016928,-0.232271,0.259134,-0.415894,0.392913,-78.708051,0.084058
04067,541188,9.576355,0.148690,1.869215,-0.014316,-0.022860,0.023083,-0.234314,0.257052,-0.413497,0.322708,-78.721897,0.159927
04068,541288,9.605496,0.140264,1.858765,-0.021134,-0.027243,0.028384,-0.232824,0.259495,-0.412870,0.233071,-78.738279,0.240210
04069,541388,9.614252,0.113744,1.872147,-0.027739,-0.038745,0.031279,-0.232307,0.259536,-0.413869,0.131092,-78.761177,0.335286
04070,541488,9.631149,0.109220,1.868201,-0.028042,-0.043751,0.032799,-0.230795,0.259062,-0.414893,0.024069,-78.786821,0.445130
04071,541588,9.652705,0.072665,1.879779,-0.025392,-0.044468,0.031215,-0.233316,0.257534,-0.413471,-0.077013,-78.812916,0.548600
04072,541688,9.639796,0.085173,1.869468,-0.019868,-0.041645,0.028099,-0.231832,0.257487,-0.412971,-0.166392,-78.837336,0.643422
04073,541788,9.594404,0.093067,1.856859,-0.014874,-0.041612,0.026311,-0.233337,0.256490,-0.412522,-0.247880,-78.861751,0.732925
04074,541888,9.554777,0.101338,1.901975,-0.014451,-0.048511,0.024735,-0.232299,0.259061,-0.414394,-0.325252,-78.890041,0.821846
04075,541988,9.537695,0.103578,1.872111,-0.014456,-0.055649,0.025961,-0.234829,0.258008,-0.412446,-0.406398,-78.922519,0.903312
04076,542088,9.554109,0.097756,1.888374,-0.017871,-0.059376,0.029181,-0.234770,0.259647,-0.415369,-0.499698,-78.956988,1.010981
04077,542188,9.597899,0.058575,1.898002,-0.024049,-0.063139,0.033345,-0.233846,0.260933,-0.411294,-0.609525,-78.993715,1.101399
04078,542288,9.623244,0.045134,1.884465,-0.028544,-0.064958,0.041213,-0.234304,0.262532,-0.413217,-0.746074,-79.031330,1.226768
04079,542388,9.650234,0.032078,1.858803,-0.030060,-0.066885,0.044143,-0.236308,0.261544,-0.412769,-0.892891,-79.070013,1.361738
04080,542488,9.638206,0.042380,1.851139,-0.030087,-0.069450,0.044777,-0.234308,0.260540,-0.413319,-1.042892,-79.109957,1.514781
04081,542588,9.609907,0.074059,1.841745,-0.026525,-0.076927,0.044159,-0.235336,0.263448,-0.411168,-1.190543,-79.154300,1.640017
04082,542688,9.597336,0.099588,1.861463,-0.025029,-0.080789,0.041580,-0.235342,0.265417,-0.410566,-1.331140,-79.200871,1.748901
04083,542788,9.561482,0.112225,1.878220,-0.020358,-0.082911,0.039112,-0.240322,0.265995,-0.410542,-1.462455,-79.248805,1.842007
04084,542888,9.584634,0.086232,1.893021,-0.018884,-0.085606,0.036529,-0.238285,0.265087,-0.413092,-1.586688,-79.298034,1.956385
04085,542988,9.621875,0.076628,1.875301,-0.022135,-0.081301,0.041651,-0.238339,0.265440,-0.410067,-1.729034,-79.344787,2.067980
04086,543088,9.667783,0.044111,1.815360,-0.022763,-0.078063,0.046447,-0.239319,0.269964,-0.410339,-1.887484,-79.389669,2.170531
04087,543188,9.677326,0.052011,1.764337,-0.018065,-0.075299,0.050418,-0.237846,0.267900,-0.409440,-2.056400,-79.432719,2.297196
04088,543288,9.688612,0.062649,1.721603,-0.008607,-0.079780,0.054974,-0.239821,0.267481,-0.410466,-2.235597,-79.478153,2.446411
04089,543388,9.693828,0.057890,1.753232,0.000485,-0.083305,0.056366,-0.239309,0.269989,-0.410839,-2.416063,-79.525515,2.583794
04090,543488,9.681081,0.075846,1.783861,0.007357,-0.089563,0.056907,-0.237338,0.268414,-0.409915,-2.596877,-79.576226,2.736715
04091,543588,9.655126,0.060416,1.831020,0.009807,-0.097097,0.056921,-0.237819,0.272930,-0.410186,-2.779395,-79.631330,2.847873
04092,543688,9.630683,0.097725,1.856768,0.014057,-0.101240,0.053535,-0.237298,0.275461,-0.411058,-2.951500,-79.688886,2.913784
04093,543788,9.633574,0.097446,1.832120,0.014209,-0.094683,0.056580,-0.237801,0.272480,-0.411211,-3.133689,-79.742403,3.008217
04094,543888,9.586111,0.116918,1.808062,0.007613,-0.089012,0.053478,-0.236801,0.274457,-0.411109,-3.310656,-79.792774,3.052640
04095,543988,9.555085,0.130787,1.786443,-0.002905,-0.087447,0.053429,-0.234843,0.275824,-0.409033,-3.494909,-79.842234,3.067665
04096,544088,9.612672,0.134869,1.768290,-0.010503,-0.087733,0.055572,-0.237823,0.275895,-0.409534,-3.691793,-79.891857,3.067529
04097,544188,9.691969,0.164645,1.751593,-0.005807,-0.071614,0.058623,-0.235868,0.275768,-0.407534,-3.894093,-79.931978,3.079354
04098,544288,9.708851,0.183770,1.756072,0.001281,-0.058917,0.064398,-0.238811,0.274939,-0.410085,-4.109158,-79.964621,3.078312
04099,544388,9.692586,0.213292,1.661687,0.002753,-0.047076,0.063517,-0.238829,0.275389,-0.409060,-4.318836,-79.990473,3.062545
04100,544488,9.653277,0.169988,1.610205,-0.002040,-0.054300,0.060506,-0.237876,0.277246,-0.406459,-4.524250,-80.020571,3.027025
04101,544588,9.604412,0.107575,1.678560,-0.005950,-0.073601,0.056283,-0.239342,0.277342,-0.407959,-4.724086,-80.061957,2.929094
04102,544688,9.601579,0.085756,1.812675,-0.001340,-0.102266,0.051828,-0.235851,0.279778,-0.407830,-4.915055,-80.120095,2.685808
04103,544788,9.668503,0.087918,1.899406,0.000464,-0.110782,0.050005,-0.237848,0.277318,-0.407958,-5.103981,-80.182885,2.509018
04104,544888,9.700377,0.067680,1.811331,0.008540,-0.088313,0.049680,-0.237850,0.281280,-0.407255,-5.280931,-80.233519,2.134042
04105,544988,9.724140,0.082025,1.686844,0.011490,-0.057459,0.051337,-0.239871,0.281239,-0.405756,-5.453984,-80.266398,1.815961
04106,545088,9.674976,0.092024,1.598732,0.004305,-0.041144,0.055915,-0.237872,0.279737,-0.406332,-5.641926,-80.289258,1.547864
04107,545188,9.617507,0.117881,1.589974,0.001079,-0.046673,0.056191,-0.239419,0.281609,-0.403232,-5.836223,-80.315068,1.406435
04108,545288,9.561699,0.175907,1.562627,-0.002545,-0.073195,0.058765,-0.238865,0.281247,-0.406256,-6.050799,-80.355738,1.188036
04109,545388,9.597768,0.161806,1.597832,0.000173,-0.105371,0.056718,-0.236870,0.282710,-0.406179,-6.270786,-80.414299,1.047177
04110,545488,9.636174,0.159923,1.681507,0.002779,-0.127622,0.054103,-0.240338,0.282814,-0.407180,-6.494339,-80.484876,1.121913
04111,545588,9.706032,0.171292,1.782116,0.007650,-0.132835,0.047961,-0.240379,0.286181,-0.404503,-6.700445,-80.558248,1.296240
04112,545688,9.698623,0.204359,1.794853,0.003240,-0.125506,0.043418,-0.243362,0.284260,-0.405105,-6.894050,-80.627465,1.493969
04113,545788,9.657672,0.229514,1.788685,-0.000293,-0.112531,0.037345,-0.242354,0.285264,-0.405554,-7.065831,-80.689615,1.666043
04114,545888,9.622343,0.237782,1.736534,0.001426,-0.099078,0.028351,-0.244827,0.284854,-0.406580,-7.201563,-80.744677,1.803421
04115,545988,9.594456,0.227022,1.712155,0.003332,-0.086415,0.022590,-0.244354,0.286767,-0.404978,-7.311867,-80.792909,1.916055
04116,546088,9.626206,0.165284,1.662720,0.007202,-0.078742,0.016727,-0.245884,0.287192,-0.402954,-7.396906,-80.837178,2.005350
04117,546188,9.679470,0.151060,1.615130,0.007404,-0.075643,0.015574,-0.248845,0.287312,-0.404455,-7.477111,-80.879752,2.089926
04118,546288,9.678044,0.139025,1.588313,-0.001149,-0.076921,0.014042,-0.247352,0.286790,-0.404480,-7.558120,-80.923146,2.170355
04119,546388,9.677744,0.096550,1.544970,-0.013879,-0.087104,0.012148,-0.252810,0.287921,-0.405430,-7.645295,-80.972450,2.249595
04120,546488,9.649829,0.073421,1.585918,-0.035462,-0.099740,0.010347,-0.252313,0.287416,-0.405455,-7.745448,-81.029045,2.329472
04121,546588,9.630861,0.055318,1.575491,-0.047331,-0.105672,0.009849,-0.254804,0.287455,-0.405456,-7.854687,-81.089022,2.411638
04122,546688,9.571318,0.056059,1.618861,-0.052406,-0.113433,0.007291,-0.255838,0.286876,-0.403482,-7.962735,-81.153579,2.489635
04123,546788,9.525626,-0.010891,1.609824,-0.054165,-0.113000,0.002110,-0.258343,0.289359,-0.402357,-8.053888,-81.218280,2.549480
04124,546888,9.471058,-0.074911,1.533537,-0.048513,-0.111414,-0.003096,-0.262807,0.289478,-0.403358,-8.122798,-81.282487,2.590118
04125,546988,9.402779,-0.107384,1.496154,-0.038925,-0.110377,-0.006834,-0.261313,0.289454,-0.403357,-8.172515,-81.346402,2.616893
04126,547088,9.433443,-0.149442,1.448249,-0.038438,-0.113010,-0.011586,-0.265327,0.288947,-0.401884,-8.206102,-81.412194,2.627620
04127,547188,9.463407,-0.159669,1.463212,-0.035884,-0.113365,-0.012614,-0.267319,0.288979,-0.401885,-8.234863,-81.478270,2.634949
04128,547288,9.505145,-0.190273,1.479892,-0.038491,-0.117552,-0.015227,-0.266820,0.289469,-0.401860,-8.257755,-81.546932,2.634835
04129,547388,9.539955,-0.249352,1.513050,-0.044598,-0.123592,-0.017297,-0.273809,0.291524,-0.400760,-8.279768,-81.619187,2.630279
04130,547488,9.537285,-0.325460,1.547494,-0.049084,-0.126143,-0.017476,-0.273753,0.291669,-0.403759,-8.305277,-81.692900,2.626685
04131,547588,9.523199,-0.387573,1.601670,-0.058195,-0.125114,-0.018717,-0.276261,0.292657,-0.402709,-8.330802,-81.766127,2.617822
04132,547688,9.464506,-0.443694,1.579233,-0.066917,-0.116482,-0.018565,-0.279210,0.293797,-0.404659,-8.357128,-81.834444,2.604727
04133,547788,9.436093,-0.510543,1.551888,-0.066469,-0.111558,-0.018924,-0.283725,0.291803,-0.403262,-8.379034,-81.899994,2.587432
04134,547888,9.412354,-0.623957,1.546317,-0.053918,-0.109148,-0.015379,-0.283751,0.292727,-0.401712,-8.406622,-81.963877,2.583140
04135,547988,9.382746,-0.764901,1.491595,-0.029972,-0.114064,-0.011753,-0.284230,0.293281,-0.402687,-8.438324,-82.030237,2.596864
04136,548088,9.431358,-0.916556,1.454639,-0.001108,-0.134408,-0.003760,-0.285743,0.292759,-0.401713,-8.498933,-82.107444,2.656470
04137,548188,9.531704,-1.029497,1.485797,0.026366,-0.150149,0.007124,-0.288702,0.294373,-0.403137,-8.599779,-82.192626,2.772574
04138,548288,9.751735,-1.043254,1.573883,0.041081,-0.148798,0.017519,-0.289714,0.295835,-0.402062,-8.737191,-82.276104,2.934070
04139,548388,9.994646,-0.976794,1.710368,0.044324,-0.119417,0.026076,-0.290664,0.295473,-0.404586,-8.892777,-82.342129,3.115761
04140,548488,10.201039,-0.891223,1.882639,0.039134,-0.083886,0.032647,-0.290662,0.291512,-0.405289,-9.058181,-82.387378,3.304340
04141,548588,10.298467,-0.774479,1.945549,0.041986,-0.064969,0.038733,-0.292673,0.291495,-0.404290,-9.236915,-82.421284,3.508007
04142,548688,10.378473,-0.627858,2.043146,0.050729,-0.063361,0.039638,-0.288120,0.294084,-0.407660,-9.415112,-82.454098,3.716180
04143,548788,10.375105,-0.460674,2.063193,0.057773,-0.061118,0.036358,-0.287174,0.292453,-0.405238,-9.575290,-82.485860,3.910245
04144,548888,10.351248,-0.296431,2.026369,0.055657,-0.057075,0.027822,-0.288640,0.292549,-0.406737,-9.698499,-82.516080,4.065795
04145,548988,10.241076,-0.132431,2.006949,0.047109,-0.051682,0.014393,-0.286688,0.290428,-0.404839,-9.765747,-82.544511,4.159966
04146,549088,10.058335,0.032043,2.035871,0.041722,-0.049481,0.002655,-0.288691,0.289937,-0.404365,-9.784166,-82.572818,4.201784
04147,549188,9.909419,0.108095,2.082502,0.043521,-0.053674,-0.014345,-0.287164,0.287519,-0.406491,-9.730924,-82.605131,4.172388
04148,549288,9.770777,0.085179,2.131792,0.056137,-0.057679,-0.026508,-0.290196,0.283982,-0.404670,-9.619813,-82.640858,4.091943
04149,549388,9.606579,-0.007196,2.090799,0.073503,-0.074166,-0.033831,-0.289234,0.285365,-0.402595,-9.477671,-82.686557,3.990263
04150,549488,9.453824,-0.197417,2.023589,0.099337,-0.102479,-0.037081,-0.291754,0.284336,-0.401147,-9.325398,-82.748516,3.893316
04151,549588,9.351033,-0.345682,1.957383,0.131621,-0.138330,-0.035531,-0.294238,0.283402,-0.401699,-9.185452,-82.830560,3.827468
04152,549688,9.233862,-0.467001,1.916088,0.156715,-0.178758,-0.030162,-0.299289,0.280324,-0.398354,-9.082669,-82.934953,3.813586
04153,549788,9.218930,-0.559178,1.883889,0.169649,-0.206623,-0.025801,-0.297308,0.279271,-0.397904,-9.011511,-83.054703,3.839049
04154,549888,9.286530,-0.644690,1.884834,0.180764,-0.213411,-0.014149,-0.298828,0.280220,-0.396354,-8.993368,-83.177235,3.924333
04155,549988,9.317694,-0.627481,1.830210,0.187329,-0.208495,0.000823,-0.301821,0.278274,-0.396457,-9.041016,-83.295625,4.079647
04156,550088,9.276026,-0.591362,1.732630,0.185648,-0.201411,0.019643,-0.299344,0.280678,-0.395329,-9.179866,-83.408256,4.325784
04157,550188,9.231675,-0.556937,1.770427,0.174091,-0.204431,0.035374,-0.303872,0.281625,-0.392781,-9.412903,-83.521033,4.660015
04158,550288,9.221805,-0.561793,1.868487,0.158206,-0.207697,0.041234,-0.304382,0.280114,-0.392358,-9.697684,-83.634909,5.037098
04159,550388,9.254167,-0.585433,2.079527,0.144743,-0.226276,0.043631,-0.308397,0.279108,-0.390910,-10.031658,-83.758787,5.455842
04160,550488,9.412298,-0.628677,2.134984,0.127010,-0.243845,0.046705,-0.308394,0.280603,-0.390834,-10.424354,-83.891943,5.923349
04161,550588,9.541492,-0.599369,2.132641,0.106598,-0.226274,0.048452,-0.305924,0.279519,-0.389884,-10.839280,-84.014641,6.401357
04162,550688,9.573007,-0.538433,1.988267,0.091501,-0.183996,0.054811,-0.309465,0.280426,-0.386836,-11.270186,-84.112471,6.886654
04163,550788,9.551391,-0.463194,1.833700,0.084024,-0.147251,0.052876,-0.309985,0.278393,-0.385938,-11.668075,-84.189508,7.334395
04164,550888,9.502773,-0.403980,1.777598,0.084515,-0.127468,0.049300,-0.309494,0.279357,-0.385387,-12.033473,-84.255551,7.749719
04165,550988,9.426574,-0.378728,1.746345,0.091591,-0.135457,0.038773,-0.310991,0.278385,-0.385439,-12.354469,-84.327075,8.124458
04166,551088,9.363749,-0.386162,1.777823,0.104071,-0.169156,0.026336,-0.310484,0.277903,-0.385964,-12.649459,-84.418776,8.480212
04167,551188,9.353416,-0.435314,1.862067,0.119250,-0.199686,0.014070,-0.311501,0.276874,-0.385015,-12.916056,-84.528901,8.816134
04168,551288,9.435293,-0.431276,1.926826,0.131548,-0.216959,0.003855,-0.313027,0.274832,-0.383618,-13.151223,-84.649826,9.127516
04169,551388,9.475533,-0.368761,1.999877,0.132988,-0.210577,-0.007206,-0.315076,0.274221,-0.380645,-13.321550,-84.768517,9.374566
04170,551488,9.515506,-0.300350,2.006383,0.128034,-0.194992,-0.018859,-0.314558,0.274760,-0.381619,-13.408605,-84.879991,9.535130
04171,551588,9.475705,-0.231574,1.981840,0.123806,-0.177738,-0.031326,-0.315090,0.271208,-0.380298,-13.398081,-84.983476,9.595291
04172,551688,9.496255,-0.226293,2.013551,0.116858,-0.160153,-0.047003,-0.315071,0.271754,-0.381272,-13.263918,-85.079213,9.527362
04173,551788,9.529537,-0.263783,2.056032,0.114956,-0.140460,-0.059402,-0.315129,0.270613,-0.378324,-13.014635,-85.165534,9.342831
04174,551888,9.528387,-0.339906,2.019908,0.115221,-0.120345,-0.069017,-0.317615,0.268186,-0.378952,-12.662098,-85.241738,9.054878
04175,551988,9.514543,-0.453790,2.026893,0.121159,-0.107913,-0.074605,-0.318131,0.268145,-0.377952,-12.239031,-85.311488,8.699622
04176,552088,9.487653,-0.527562,2.032655,0.130610,-0.104192,-0.074222,-0.321681,0.269029,-0.374404,-11.796034,-85.378860,8.329859
04177,552188,9.476513,-0.589077,2.028037,0.140009,-0.106986,-0.072060,-0.323632,0.266690,-0.377030,-11.354858,-85.447294,7.967385
04178,552288,9.501776,-0.600646,2.026722,0.157312,-0.106805,-0.066297,-0.321637,0.267654,-0.376979,-10.932566,-85.514744,7.633855
04179,552388,9.504580,-0.520096,2.028288,0.168354,-0.108833,-0.062533,-0.324224,0.265460,-0.372083,-10.522594,-85.582718,7.319082
04180,552488,9.559296,-0.448780,2.007040,0.169720,-0.094772,-0.065617,-0.322213,0.265975,-0.373057,-10.059070,-85.642868,6.951434
04181,552588,9.579391,-0.365693,2.027536,0.165813,-0.078426,-0.072988,-0.326201,0.264045,-0.373160,-9.510063,-85.694233,6.495863
04182,552688,9.601385,-0.278427,2.135006,0.156785,-0.059419,-0.082644,-0.327218,0.263016,-0.372211,-8.858028,-85.735342,5.931841
04183,552788,9.603918,-0.157491,2.282458,0.151627,-0.042790,-0.097064,-0.325200,0.261563,-0.373786,-8.068192,-85.767681,5.226728
04184,552888,9.632575,-0.014084,2.402575,0.147635,-0.021425,-0.111698,-0.323812,0.259281,-0.368389,-7.135108,-85.788176,4.375736
04185,552988,9.622099,0.090537,2.482343,0.143611,-0.005661,-0.131262,-0.326749,0.256981,-0.371516,-6.030629,-85.799835,3.350622
04186,553088,9.627810,0.056253,2.505418,0.141935,0.004500,-0.141706,-0.328283,0.255414,-0.369594,-4.833338,-85.804720,2.231522
04187,553188,9.642707,0.014806,2.584745,0.137860,0.001397,-0.151203,-0.327831,0.255784,-0.367069,-3.563521,-85.809977,1.037399
04188,553288,9.659332,-0.075607,2.634265,0.128090,-0.001903,-0.157369,-0.327333,0.255278,-0.367094,-2.249557,-85.815297,-0.206563
04189,553388,9.685612,-0.197836,2.580671,0.115681,0.001105,-0.160399,-0.328341,0.254273,-0.366646,-0.915976,-85.816808,-1.477285
04190,553488,9.730156,-0.355889,2.503627,0.107452,0.007018,-0.158187,-0.327321,0.251838,-0.368272,0.395459,-85.812752,-2.730500
04191,553588,9.764648,-0.303416,2.446589,0.101963,0.017100,-0.166162,-0.331394,0.249194,-0.363902,1.760458,-85.800667,-4.040560
04192,553688,9.799819,-0.430728,2.470602,0.095780,0.036635,-0.171085,-0.330881,0.247241,-0.365003,3.143366,-85.774954,-5.372132
04193,553788,9.868411,-0.532083,2.471572,0.097770,0.041640,-0.176811,-0.333416,0.248655,-0.362428,4.551021,-85.743753,-6.727393
04194,553888,10.036471,-0.501682,2.502681,0.096458,0.049653,-0.177371,-0.332407,0.244702,-0.363631,5.934825,-85.705488,-8.059519
04195,553988,10.205115,-0.430945,2.624526,0.063795,0.081172,-0.179085,-0.329963,0.245040,-0.361106,7.257932,-85.646802,-9.349597
04196,554088,10.314551,-0.067398,2.654105,0.018846,0.120618,-0.186249,-0.331979,0.242034,-0.360259,8.529143,-85.562943,-10.613546
04197,554188,10.353061,0.030841,2.416631,-0.028384,0.160929,-0.197982,-0.329013,0.239945,-0.359360,9.760064,-85.453089,-11.864366
04198,554288,10.337260,-0.082510,2.012686,-0.064498,0.180280,-0.198631,-0.330005,0.241954,-0.359259,10.890094,-85.330245,-13.034909
04199,554388,10.372904,-0.253679,1.605079,-0.066628,0.180199,-0.198005,-0.329004,0.239471,-0.359886,11.955336,-85.205729,-14.141861
04200,554488,10.551256,-0.397483,1.240793,-0.039309,0.166293,-0.192537,-0.326062,0.239304,-0.357386,12.965872,-85.088033,-15.178392
04201,554588,10.831600,-0.563760,0.956568,-0.000297,0.159099,-0.181364,-0.325559,0.236829,-0.358012,13.890781,-84.974375,-16.106714
04202,554688,11.110074,-0.696446,0.613689,0.047450,0.147848,-0.163798,-0.326032,0.235414,-0.359588,14.711339,-84.868251,-16.902970
04203,554788,11.455301,-0.803913,0.347685,0.102961,0.129980,-0.147063,-0.325047,0.234377,-0.359138,15.459207,-84.773572,-17.594436
04204,554888,11.663674,-0.840321,0.280383,0.169615,0.103658,-0.132089,-0.321067,0.231325,-0.359290,16.175551,-84.694973,-18.215998
04205,554988,11.574266,-0.704895,0.295240,0.234853,0.064083,-0.123053,-0.321071,0.223876,-0.360171,16.926483,-84.638880,-18.834834
04206,555088,11.307114,-0.390316,0.512508,0.278416,0.000330,-0.126849,-0.318611,0.222269,-0.358747,17.827171,-84.616188,-19.579064
04207,555188,10.993339,0.049357,0.964165,0.278361,-0.059726,-0.142604,-0.313128,0.213761,-0.360177,18.928466,-84.622094,-20.524830
04208,555288,10.754662,0.475352,1.466792,0.233262,-0.081962,-0.155872,-0.313118,0.208827,-0.361430,20.128251,-84.635674,-21.595453
04209,555388,10.607922,0.794605,1.848921,0.142631,-0.055981,-0.158682,-0.312642,0.207276,-0.360507,21.239981,-84.632714,-22.629769
04210,555488,10.487760,0.894464,1.915372,0.021344,0.001482,-0.149439,-0.312140,0.203804,-0.361184,22.096868,-84.599431,-23.477931
04211,555588,10.289846,0.917669,1.560550,-0.095772,0.084618,-0.127600,-0.311663,0.197295,-0.361014,22.562532,-84.525911,-24.000574
04212,555688,9.890475,0.899654,0.970338,-0.196884,0.151089,-0.116205,-0.308737,0.193117,-0.358218,22.743664,-84.419480,-24.295643
04213,555788,9.436876,0.758912,0.229680,-0.257355,0.176694,-0.103659,-0.310724,0.191180,-0.358820,22.757934,-84.302264,-24.457924
04214,555888,8.991558,0.660153,-0.394011,-0.277431,0.143584,-0.081592,-0.309270,0.189067,-0.356922,22.715063,-84.207458,-24.574393
04215,555988,8.788670,0.644176,-0.809152,-0.272762,0.063626,-0.059836,-0.309228,0.186697,-0.359548,22.734630,-84.159758,-24.750980
04216,556088,8.721312,0.746430,-0.915752,-0.258514,-0.010935,-0.051611,-0.310780,0.185579,-0.356600,22.880398,-84.153270,-25.046264
04217,556188,8.688051,0.989597,-0.813377,-0.222835,-0.067049,-0.052274,-0.313762,0.184156,-0.357177,23.173469,-84.176136,-25.469097
04218,556288,8.812957,1.271014,-0.672651,-0.172078,-0.092832,-0.057207,-0.313274,0.183626,-0.356703,23.582524,-84.211199,-25.979293
04219,556388,9.111227,1.422485,-0.406494,-0.123229,-0.100505,-0.055156,-0.315753,0.184686,-0.357152,24.032644,-84.250388,-26.502627
04220,556488,9.499042,1.400986,-0.113282,-0.072582,-0.096226,-0.052172,-0.318232,0.181286,-0.358330,24.493053,-84.287636,-27.007128
04221,556588,9.948666,1.218358,0.168057,-0.025615,-0.083616,-0.044841,-0.322724,0.181333,-0.357832,24.917994,-84.319695,-27.448929
04222,556688,10.335189,0.864451,0.326379,0.007170,-0.069834,-0.032042,-0.322670,0.180481,-0.360882,25.265671,-84.347425,-27.794202
04223,556788,10.539169,0.512962,0.394773,0.027207,-0.064510,-0.012407,-0.322697,0.180907,-0.359357,25.511905,-84.377056,-28.025995
04224,556888,10.613490,0.272971,0.533345,0.038672,-0.062872,0.008139,-0.323148,0.181534,-0.361831,25.654766,-84.410857,-28.147313
04225,556988,10.621813,0.175744,0.714074,0.033376,-0.047507,0.033572,-0.323619,0.181116,-0.363356,25.621962,-84.443022,-28.095175
04226,557088,10.449156,0.260629,0.791494,0.003171,-0.028815,0.056216,-0.327641,0.181082,-0.361358,25.402650,-84.471106,-27.873045
04227,557188,10.083055,0.535623,0.838437,-0.059018,-0.024504,0.070214,-0.324652,0.181035,-0.361357,25.059104,-84.500271,-27.561911
04228,557288,9.611924,0.863775,0.833594,-0.142729,-0.036943,0.081702,-0.320123,0.181084,-0.363855,24.632699,-84.538467,-27.215743
04229,557388,9.296353,1.176247,0.865761,-0.215357,-0.069817,0.083338,-0.319123,0.183062,-0.363753,24.231875,-84.593957,-26.937103
04230,557488,9.050425,1.386622,0.836776,-0.257671,-0.106531,0.080904,-0.319093,0.184130,-0.365201,23.904710,-84.667912,-26.756834
04231,557588,8.912175,1.435088,0.819484,-0.272519,-0.131648,0.076287,-0.318113,0.185561,-0.364125,23.651290,-84.753878,-26.659200
04232,557688,8.784082,1.364280,0.766870,-0.255101,-0.149977,0.073691,-0.316100,0.187072,-0.365048,23.463828,-84.848836,-26.617796
04233,557788,8.652107,1.195939,0.775717,-0.221144,-0.164752,0.067532,-0.315064,0.193107,-0.366242,23.366518,-84.950147,-26.647382
04234,557888,8.627068,0.872437,0.798740,-0.189091,-0.172381,0.062328,-0.310601,0.192490,-0.365267,23.338135,-85.054290,-26.727721
04235,557988,8.631734,0.560516,0.896693,-0.145717,-0.181856,0.059509,-0.310086,0.196990,-0.365537,23.379004,-85.162772,-26.852609
04236,558088,8.706190,0.338906,0.961088,-0.111745,-0.176113,0.061679,-0.308634,0.199337,-0.362911,23.413751,-85.268719,-26.951796
04237,558188,8.722835,0.272926,0.970382,-0.100219,-0.161836,0.066927,-0.306615,0.203838,-0.363681,23.383958,-85.368350,-26.979582
04238,558288,8.718065,0.354437,0.965360,-0.108644,-0.154386,0.070142,-0.306603,0.204858,-0.364130,23.306576,-85.464791,-26.964459
04239,558388,8.721367,0.523519,0.954486,-0.141840,-0.166551,0.078462,-0.307660,0.207196,-0.360505,23.186981,-85.569511,-26.926070
04240,558488,8.788639,0.765200,0.985191,-0.182841,-0.204045,0.085970,-0.304651,0.208194,-0.361453,23.099247,-85.695662,-26.943200
04241,558588,8.883301,1.019520,1.065344,-0.216128,-0.237469,0.088667,-0.305158,0.213634,-0.360174,23.073721,-85.840029,-27.041828
04242,558688,9.008063,1.157188,1.148910,-0.242584,-0.255460,0.088794,-0.306123,0.215715,-0.361572,23.092374,-85.993894,-27.199924
04243,558788,9.065186,1.196440,1.154076,-0.255103,-0.259478,0.084596,-0.305669,0.217082,-0.358997,23.157268,-86.148911,-27.411528
04244,558888,9.048665,1.165553,1.195608,-0.250710,-0.256283,0.077053,-0.305168,0.218568,-0.358921,23.286692,-86.300502,-27.685240
04245,558988,9.042648,1.091079,1.169599,-0.233748,-0.253998,0.069696,-0.307684,0.220030,-0.357346,23.497308,-86.449150,-28.030520
04246,559088,9.032672,0.996329,1.152072,-0.216013,-0.250189,0.062932,-0.307744,0.222851,-0.353694,23.787515,-86.594134,-28.445298
04247,559188,9.024020,0.901970,1.107459,-0.209014,-0.237382,0.058701,-0.310213,0.224433,-0.354619,24.099387,-86.731282,-28.877699
04248,559288,9.062919,0.777549,1.074748,-0.199985,-0.220102,0.061111,-0.310736,0.226362,-0.353018,24.351464,-86.859830,-29.244967
04249,559388,9.167111,0.747167,1.046230,-0.194721,-0.200432,0.063770,-0.312719,0.226418,-0.353518,24.517734,-86.978661,-29.523237
04250,559488,9.325594,0.698862,1.065112,-0.193653,-0.176524,0.070649,-0.316749,0.226859,-0.350995,24.519861,-87.086631,-29.636496
04251,559588,9.503866,0.677923,1.115991,-0.192504,-0.150240,0.076822,-0.311262,0.231256,-0.350765,24.334524,-87.182350,-29.561382
04252,559688,9.668662,0.727640,1.203726,-0.194884,-0.129816,0.081117,-0.314755,0.233280,-0.350164,23.991165,-87.268367,-29.329422
04253,559788,9.699406,0.781113,1.325176,-0.198186,-0.114156,0.083731,-0.315269,0.234734,-0.349089,23.519893,-87.346678,-28.971311
04254,559888,9.644772,0.788990,1.444488,-0.197818,-0.105649,0.088540,-0.314242,0.236285,-0.350512,22.924993,-87.421418,-28.489241
04255,559988,9.557502,0.707688,1.545397,-0.185227,-0.093792,0.093826,-0.319303,0.238141,-0.345913,22.182455,-87.490765,-27.852180
04256,560088,9.569688,0.572011,1.597645,-0.150063,-0.060944,0.104280,-0.319249,0.242745,-0.348184,21.130671,-87.544361,-26.885429
04257,560188,9.653162,0.448584,1.578297,-0.101835,-0.010794,0.117233,-0.318316,0.243557,-0.344634,19.664810,-87.572660,-25.476579
04258,560288,9.665346,0.255569,1.449467,-0.052903,0.054217,0.136956,-0.319780,0.245148,-0.346057,17.667415,-87.567443,-23.507650
04259,560388,9.686873,0.110923,1.348037,-0.015856,0.121038,0.155589,-0.320307,0.249544,-0.343830,15.224314,-87.525278,-21.071310
04260,560488,9.748375,0.053423,1.356939,0.001273,0.182508,0.177002,-0.317289,0.250565,-0.345278,12.432354,-87.447103,-18.275820
04261,560588,9.793098,0.172071,1.362110,-0.008096,0.223467,0.195118,-0.316803,0.254495,-0.344074,9.500427,-87.341817,-15.345379
04262,560688,9.772649,0.417924,1.414976,-0.045522,0.233382,0.210426,-0.311819,0.255910,-0.343997,6.583724,-87.225459,-12.451367
04263,560788,9.709809,0.677250,1.543195,-0.079082,0.211240,0.220907,-0.312309,0.260402,-0.343768,3.786639,-87.115578,-9.696083
04264,560888,9.789051,0.968791,1.849209,-0.096716,0.198803,0.228852,-0.308791,0.261914,-0.345191,1.104974,-87.006621,-7.066203
04265,560988,10.054203,1.184056,2.174678,-0.096815,0.226283,0.233604,-0.307814,0.266808,-0.343437,-1.428059,-86.875865,-4.584927
04266,561088,10.460989,1.221988,2.350823,-0.077258,0.322315,0.235603,-0.305270,0.270875,-0.345732,-3.702402,-86.684622,-2.351122
04267,561188,11.094755,1.009617,2.170650,-0.044486,0.435237,0.240633,-0.304330,0.275673,-0.341979,-5.652769,-86.424145,-0.422560
04268,561288,11.676468,0.705553,1.640522,-0.026942,0.504025,0.242661,-0.304260,0.278332,-0.345350,-7.271269,-86.120891,1.184130
04269,561388,12.094443,0.566992,1.331562,-0.023315,0.514604,0.235133,-0.301271,0.278783,-0.345324,-8.582349,-85.809665,2.485301
04270,561488,12.594747,0.419538,1.251368,-0.026992,0.506119,0.222615,-0.300276,0.277771,-0.345375,-9.634920,-85.502562,3.525624
04271,561588,13.358975,0.250151,1.041966,-0.038982,0.474179,0.216219,-0.302815,0.276694,-0.342927,-10.557170,-85.212817,4.428701
04272,561688,14.155907,0.230880,0.598902,-0.064254,0.410108,0.200709,-0.304301,0.271285,-0.344207,-11.372508,-84.959746,5.210344
04273,561788,14.251679,0.372016,-0.081694,-0.116101,0.342369,0.168851,-0.309260,0.267949,-0.345886,-12.034850,-84.747574,5.808781
04274,561888,13.503726,0.375293,-0.693989,-0.189420,0.249095,0.131227,-0.310247,0.262532,-0.347165,-12.590752,-84.591695,6.258264
04275,561988,12.345579,0.179772,-0.669036,-0.237992,0.143670,0.098308,-0.317745,0.258617,-0.346371,-13.097168,-84.498559,6.630102
04276,562088,11.357894,-0.055837,-0.295856,-0.250408,0.045103,0.086848,-0.321255,0.250676,-0.346278,-13.666478,-84.461583,7.057993
04277,562188,10.515009,-0.178167,-0.186369,-0.248177,-0.054637,0.079458,-0.323709,0.250812,-0.348279,-14.330144,-84.480664,7.581938
04278,562288,9.694493,-0.328240,-0.174215,-0.200607,-0.176260,0.062565,-0.327647,0.250996,-0.350779,-15.060941,-84.569012,8.200631
04279,562388,8.920947,-0.469185,-0.007780,-0.099989,-0.307736,0.030078,-0.329689,0.249412,-0.348356,-15.783108,-84.734189,8.868412
04280,562488,8.251354,-0.660337,0.313375,0.029028,-0.402447,-0.021515,-0.330742,0.253743,-0.344630,-16.328396,-84.959000,9.432600
04281,562588,7.836513,-0.905109,0.737973,0.186114,-0.405667,-0.077605,-0.331285,0.254627,-0.342080,-16.474060,-85.194341,9.685831
04282,562688,7.641294,-1.153237,0.984059,0.339704,-0.308352,-0.123678,-0.332246,0.253743,-0.344130,-16.039145,-85.383590,9.444751
04283,562788,7.492011,-1.323057,0.835088,0.459633,-0.143956,-0.148841,-0.336248,0.254256,-0.343106,-15.008026,-85.485669,8.674568
04284,562888,7.463288,-1.458055,0.452577,0.548050,0.026438,-0.147509,-0.333236,0.257246,-0.343953,-13.593550,-85.491622,7.570723
04285,562988,7.913492,-1.387383,0.163356,0.582184,0.167531,-0.136713,-0.333273,0.257150,-0.341954,-12.017296,-85.415108,6.324159
04286,563088,8.660361,-1.185481,0.070383,0.550261,0.277851,-0.119832,-0.331261,0.257665,-0.342927,-10.480038,-85.272064,5.098175
04287,563188,9.535719,-0.930381,0.101738,0.457405,0.343871,-0.095720,-0.328234,0.258212,-0.344900,-9.165416,-85.086971,4.041930
04288,563288,10.317709,-0.574990,0.233384,0.314764,0.375258,-0.063161,-0.329190,0.259819,-0.346823,-8.195418,-84.879569,3.249271
04289,563388,11.054331,-0.186662,0.313009,0.140535,0.382281,-0.024603,-0.330685,0.259843,-0.346824,-7.621104,-84.664244,2.753428
04290,563488,11.631686,0.206618,0.341709,0.009018,0.370554,0.011046,-0.330649,0.258943,-0.348874,-7.379518,-84.452617,2.515931
04291,563588,11.933443,0.548630,0.392774,-0.069284,0.345688,0.028986,-0.331122,0.257528,-0.350449,-7.318565,-84.253764,2.414754
04292,563688,11.722428,0.562815,0.347795,-0.111050,0.317059,0.011190,-0.329589,0.253639,-0.353151,-7.209027,-84.072477,2.240623
04293,563788,10.980946,0.473839,0.440168,-0.128627,0.256515,-0.026109,-0.330038,0.249805,-0.356354,-6.958580,-83.928211,1.914603
04294,563888,10.191646,0.239231,0.635574,-0.110050,0.161960,-0.070109,-0.334493,0.249949,-0.357854,-6.537316,-83.840520,1.427408
04295,563988,9.539895,-0.056979,0.867416,-0.059915,0.075006,-0.104834,-0.333976,0.245031,-0.359607,-5.966689,-83.804079,0.818806
04296,564088,8.869013,-0.236183,0.998775,0.007168,0.010113,-0.134017,-0.332945,0.243617,-0.361683,-5.243368,-83.805538,0.095254
04297,564188,8.355438,-0.329080,1.102587,0.065682,-0.037676,-0.160757,-0.331408,0.241222,-0.364308,-4.364848,-83.834472,-0.750658
04298,564288,8.045120,-0.395721,1.131772,0.099430,-0.070331,-0.176553,-0.331444,0.242122,-0.362258,-3.385416,-83.881200,-1.678549
04299,564388,7.840225,-0.480634,1.132688,0.102966,-0.094642,-0.177761,-0.332390,0.244251,-0.364656,-2.388640,-83.940152,-2.621747
04300,564488,7.636090,-0.525261,1.086059,0.093046,-0.113796,-0.160800,-0.325872,0.247235,-0.366501,-1.474012,-84.008063,-3.487934
04301,564588,7.556238,-0.532062,1.056552,0.074437,-0.151538,-0.141615,-0.324897,0.250634,-0.364823,-0.658363,-84.096006,-4.265194
04302,564688,7.732728,-0.499460,1.079031,0.061149,-0.183684,-0.119798,-0.320956,0.251945,-0.362247,0.050864,-84.201218,-4.942984
04303,564788,8.001180,-0.481351,1.036999,0.053705,-0.189575,-0.097260,-0.321371,0.257128,-0.365991,0.652101,-84.309083,-5.516389
04304,564888,8.276221,-0.447885,0.956879,0.047923,-0.171472,-0.069109,-0.321836,0.265156,-0.366585,1.105568,-84.406291,-5.944525
04305,564988,8.514803,-0.374140,0.855614,0.037924,-0.155105,-0.047799,-0.319884,0.268989,-0.363882,1.439480,-84.494104,-6.258228
04306,565088,8.691497,-0.371787,0.819701,0.015669,-0.157447,-0.039455,-0.320873,0.272991,-0.363679,1.720998,-84.583229,-6.532057
04307,565188,8.923755,-0.419322,0.882209,-0.005968,-0.166969,-0.037782,-0.321891,0.276422,-0.362002,1.990976,-84.677712,-6.806700
04308,565288,9.153377,-0.530151,0.984210,-0.009990,-0.169126,-0.027971,-0.323840,0.280038,-0.363824,2.207485,-84.773526,-7.029910
04309,565388,9.254357,-0.566770,1.036609,0.000337,-0.157175,-0.017072,-0.325341,0.281532,-0.363248,2.365426,-84.862678,-7.188326
04310,565488,9.253357,-0.605202,1.084794,0.016415,-0.146501,-0.011452,-0.325824,0.284554,-0.363596,2.498691,-84.945818,-7.312685
04311,565588,9.170275,-0.657209,1.174602,0.035185,-0.153402,-0.011152,-0.323305,0.285084,-0.365069,2.647089,-85.032885,-7.441404
04312,565688,9.094452,-0.645703,1.354289,0.042900,-0.172162,-0.014029,-0.326781,0.286160,-0.365519,2.830218,-85.130568,-7.600509
04313,565788,9.001084,-0.613783,1.560595,0.037497,-0.198014,-0.017616,-0.328273,0.287180,-0.365469,3.051088,-85.242878,-7.800546
04314,565888,8.958565,-0.534334,1.687132,0.026583,-0.213490,-0.016879,-0.328711,0.289824,-0.368341,3.276715,-85.363984,-8.011567
04315,565988,8.961180,-0.407336,1.810526,0.005137,-0.207414,-0.018688,-0.327186,0.291367,-0.369764,3.511898,-85.481467,-8.244438
04316,566088,9.030146,-0.290597,1.918174,-0.014720,-0.186596,-0.024649,-0.325204,0.290813,-0.369288,3.782001,-85.586726,-8.523684
04317,566188,9.150644,-0.220718,1.940313,-0.023083,-0.156892,-0.034168,-0.325174,0.297338,-0.369958,4.116556,-85.674494,-8.872311
04318,566288,9.348739,-0.240057,1.874882,-0.023108,-0.124380,-0.045092,-0.323202,0.296262,-0.369009,4.529452,-85.743022,-9.299449
04319,566388,9.502630,-0.357177,1.703169,-0.013000,-0.096941,-0.049706,-0.323673,0.300802,-0.369780,4.979100,-85.795406,-9.757575
04320,566488,9.563773,-0.489738,1.497354,0.006941,-0.078103,-0.052463,-0.322157,0.302322,-0.370703,5.459031,-85.836610,-10.234556
04321,566588,9.538645,-0.581933,1.361046,0.029068,-0.067442,-0.061189,-0.322641,0.305343,-0.371050,6.021165,-85.870909,-10.781199
04322,566688,9.488409,-0.561127,1.314236,0.053437,-0.065592,-0.064258,-0.321141,0.308309,-0.370897,6.629070,-85.903547,-11.359689
04323,566788,9.506901,-0.439855,1.281252,0.066018,-0.072621,-0.070289,-0.320120,0.306870,-0.372473,7.308974,-85.939287,-12.003088
04324,566888,9.505839,-0.297050,1.270340,0.073802,-0.084644,-0.078566,-0.322128,0.308349,-0.371397,8.085364,-85.980627,-12.738696
04325,566988,9.498993,-0.280271,1.272748,0.072620,-0.124078,-0.090941,-0.320594,0.309916,-0.373320,9.028094,-86.042464,-13.641663
04326,567088,9.513696,-0.395398,1.278102,0.086663,-0.153016,-0.103762,-0.322600,0.307432,-0.372948,10.156826,-86.118273,-14.722908
04327,567188,9.632886,-0.527002,1.342059,0.138631,-0.161842,-0.110405,-0.322088,0.310438,-0.373295,11.430081,-86.196762,-15.919036
04328,567288,9.997558,-0.607764,1.420611,0.215861,-0.096934,-0.109274,-0.322016,0.314094,-0.376616,12.664923,-86.237230,-17.032212
04329,567388,10.587020,-0.617257,1.450883,0.279359,0.024770,-0.106055,-0.320519,0.310108,-0.377318,13.681606,-86.208759,-17.890258
04330,567488,11.131675,-0.538171,1.749705,0.301449,0.146947,-0.109647,-0.316945,0.312263,-0.381714,14.465973,-86.110987,-18.502811
04331,567588,11.685153,-0.372927,2.532344,0.274593,0.246062,-0.113140,-0.315970,0.310704,-0.380790,15.018248,-85.957287,-18.898186
04332,567688,12.139862,-0.008309,3.497613,0.192861,0.315960,-0.116453,-0.315927,0.308832,-0.383391,15.370372,-85.764188,-19.139865
04333,567788,12.380821,0.467712,4.130617,0.081200,0.348500,-0.135765,-0.314408,0.307385,-0.384966,15.706316,-85.550006,-19.429481
04334,567888,12.329164,1.043463,4.189726,-0.021357,0.375241,-0.169781,-0.312440,0.303818,-0.384144,16.133320,-85.315544,-19.869434
04335,567988,12.216307,1.521177,3.957640,-0.104941,0.434340,-0.210659,-0.314411,0.300434,-0.385821,16.620239,-85.041664,-20.417698
04336,568088,12.117288,1.721269,3.602464,-0.161445,0.521200,-0.247754,-0.314440,0.294407,-0.385127,17.083170,-84.713572,-20.974609
04337,568188,11.999386,1.566884,3.144374,-0.196373,0.615717,-0.283377,-0.314934,0.291450,-0.385779,17.498826,-84.327296,-21.504442
04338,568288,11.989276,0.946027,2.468829,-0.188556,0.686178,-0.304985,-0.318941,0.284514,-0.385636,17.852466,-83.898444,-21.967793
04339,568388,12.311010,0.218339,1.514696,-0.147970,0.725629,-0.290059,-0.317408,0.280127,-0.388363,18.042422,-83.450506,-22.243440
04340,568488,12.600461,-0.663637,0.410967,-0.108734,0.704727,-0.240861,-0.321398,0.272242,-0.389271,18.035954,-83.022665,-22.298900
04341,568588,12.597965,-1.597900,-0.856102,-0.040966,0.594944,-0.166533,-0.323854,0.270385,-0.391372,17.901067,-82.667858,-22.185863
04342,568688,12.283209,-2.010537,-1.888647,0.027885,0.425728,-0.082168,-0.326311,0.263570,-0.394228,17.692833,-82.420174,-21.959022
04343,568788,11.758622,-1.529065,-2.137137,0.062501,0.233389,-0.017242,-0.328331,0.253115,-0.394262,17.500415,-82.288756,-21.728070
04344,568888,11.102668,-0.511448,-1.691558,0.062152,0.054437,0.013249,-0.328781,0.249281,-0.397464,17.416438,-82.260375,-21.606760
04345,568988,10.460018,0.647353,-0.828995,0.102576,-0.087701,-0.006251,-0.327299,0.242282,-0.397819,17.614927,-82.306350,-21.747177
04346,569088,9.859305,1.776359,0.101122,0.152030,-0.166522,-0.059231,-0.327292,0.235355,-0.399175,18.163580,-82.385869,-22.212347
04347,569188,9.017201,2.498248,1.073126,0.142770,-0.204846,-0.107740,-0.326269,0.234913,-0.400699,18.970440,-82.476605,-22.943298
04348,569288,8.243218,2.770792,1.696203,0.032608,-0.193437,-0.142027,-0.325809,0.234311,-0.398725,19.857300,-82.553188,-23.818490
04349,569388,7.957514,2.667713,1.749565,-0.143857,-0.093649,-0.157166,-0.323373,0.235123,-0.395675,20.568050,-82.571498,-24.617980
04350,569488,8.018304,2.253990,1.253975,-0.311095,0.077087,-0.142393,-0.323781,0.238836,-0.399995,20.857025,-82.500381,-25.088814
04351,569588,8.253071,1.686551,0.410488,-0.431591,0.234513,-0.111462,-0.321849,0.241127,-0.396369,20.704327,-82.351156,-25.183896
04352,569688,8.550041,1.115948,-0.439409,-0.493959,0.322087,-0.066138,-0.320833,0.247113,-0.396564,20.212148,-82.164095,-24.972524
04353,569788,8.844483,0.583400,-1.070506,-0.499391,0.317245,-0.013412,-0.322297,0.248206,-0.398013,19.538080,-81.989675,-24.580612
04354,569888,9.237008,0.049722,-1.308449,-0.453448,0.237637,0.034143,-0.322315,0.254112,-0.396209,18.836627,-81.866703,-24.134361
04355,569988,9.697204,-0.282289,-1.126748,-0.384448,0.132250,0.078551,-0.321342,0.256516,-0.394582,18.155356,-81.808370,-23.668494
04356,570088,10.074678,-0.411832,-0.719962,-0.306739,0.047393,0.114489,-0.322711,0.259344,-0.400953,17.492412,-81.801899,-23.176146
04357,570188,10.297751,-0.308979,-0.276006,-0.215833,-0.010525,0.127446,-0.322752,0.262213,-0.398301,16.900332,-81.828593,-22.702807
04358,570288,10.389473,-0.079323,0.070239,-0.109592,-0.048184,0.119964,-0.321692,0.261867,-0.401825,16.437215,-81.874135,-22.298311
04359,570388,10.286224,0.168796,0.250276,-0.019921,-0.056506,0.104603,-0.322149,0.263964,-0.403723,16.089647,-81.921407,-21.958700
04360,570488,9.942079,0.392566,0.514329,0.030729,-0.047334,0.089169,-0.321182,0.263378,-0.402249,15.817349,-81.960954,-21.665856
04361,570588,9.502856,0.630220,0.737014,0.032524,-0.041438,0.081131,-0.318220,0.263757,-0.400723,15.568487,-81.995826,-21.395686
04362,570688,9.064840,0.872980,0.930926,-0.003203,-0.051013,0.081495,-0.316199,0.263797,-0.402222,15.305839,-82.035880,-21.132308
04363,570788,8.664199,1.031176,1.082265,-0.065273,-0.075778,0.088060,-0.315175,0.263854,-0.403721,15.005308,-82.090433,-20.866635
04364,570888,8.411805,1.080777,1.242376,-0.133893,-0.100724,0.095222,-0.311697,0.264272,-0.403194,14.659018,-82.159643,-20.594514
04365,570988,8.322008,1.098845,1.379862,-0.195516,-0.100327,0.099395,-0.306698,0.263743,-0.404218,14.254487,-82.228979,-20.299302
04366,571088,8.372631,0.984154,1.359984,-0.244194,-0.066064,0.104869,-0.305707,0.266195,-0.403591,13.758551,-82.279705,-19.940045
04367,571188,8.541149,0.823032,1.299461,-0.286029,-0.008962,0.117026,-0.304659,0.268790,-0.405962,13.127160,-82.299750,-19.468325
04368,571288,8.695464,0.601466,1.166769,-0.314213,0.051066,0.125269,-0.302719,0.270607,-0.402861,12.387539,-82.286537,-18.903699
04369,571388,8.825536,0.483441,1.069976,-0.328012,0.091958,0.135422,-0.297778,0.268937,-0.400937,11.565476,-82.250586,-18.263823
04370,571488,9.023850,0.443427,1.010304,-0.324426,0.109739,0.141916,-0.295305,0.269348,-0.399911,10.711633,-82.204109,-17.589749
04371,571588,9.208471,0.567666,0.956635,-0.306326,0.103621,0.143392,-0.296765,0.272931,-0.401233,9.875681,-82.159901,-16.923208
04372,571688,9.325719,0.772344,0.808080,-0.270618,0.060837,0.127492,-0.297781,0.272400,-0.400259,9.162047,-82.137150,-16.359458
04373,571788,9.399371,0.933626,0.741793,-0.222330,-0.000833,0.107213,-0.293320,0.270288,-0.399360,8.601222,-82.146673,-15.922053
04374,571888,9.428827,0.979880,0.798415,-0.175988,-0.071476,0.083352,-0.294343,0.271228,-0.397810,8.206273,-82.193749,-15.625347
04375,571988,9.359478,0.863409,0.961831,-0.137267,-0.121409,0.058584,-0.292802,0.271325,-0.400309,7.961834,-82.266934,-15.458216
04376,572088,9.231950,0.606702,1.135548,-0.103980,-0.148352,0.041824,-0.297793,0.265425,-0.400615,7.819093,-82.354019,-15.374505
04377,572188,9.018147,0.377343,1.333343,-0.072124,-0.157328,0.029806,-0.301823,0.266863,-0.398041,7.748784,-82.445245,-15.345484
04378,572288,8.816255,0.191323,1.537543,-0.053574,-0.164680,0.025287,-0.299813,0.265883,-0.399091,7.711864,-82.540288,-15.339416
04379,572388,8.634803,0.094480,1.701586,-0.036511,-0.162261,0.028802,-0.302345,0.263833,-0.397194,7.667344,-82.634219,-15.315816
04380,572488,8.521069,0.117914,1.708849,-0.036754,-0.145564,0.040506,-0.298886,0.263207,-0.395719,7.559830,-82.719543,-15.228838
04381,572588,8.326368,0.257733,1.565510,-0.051667,-0.117578,0.054927,-0.296919,0.259640,-0.394897,7.360229,-82.790004,-15.057654
04382,572688,8.144701,0.349811,1.565012,-0.074263,-0.130057,0.070808,-0.297429,0.263087,-0.393719,7.078964,-82.868602,-14.817238
04383,572788,8.084582,0.323347,1.526420,-0.104775,-0.150547,0.085950,-0.295962,0.263490,-0.392194,6.715852,-82.959721,-14.512000
04384,572888,8.146346,0.347969,1.490510,-0.111506,-0.161978,0.101675,-0.293531,0.266271,-0.388542,6.272579,-83.058093,-14.129948
04385,572988,8.368485,0.437406,1.505714,-0.091392,-0.138470,0.120354,-0.292056,0.266199,-0.387542,5.729176,-83.143778,-13.635499
04386,573088,8.659051,0.447093,1.496024,-0.055579,-0.083964,0.137606,-0.287100,0.272501,-0.385211,5.087105,-83.198680,-13.021090
04387,573188,8.881168,0.399913,1.482500,-0.016864,-0.036302,0.149094,-0.288140,0.273891,-0.382636,4.384097,-83.226044,-12.323025
04388,573288,9.153671,0.419531,1.530811,0.012843,-0.017197,0.154583,-0.281650,0.276801,-0.382982,3.660202,-83.241674,-11.586816
04389,573388,9.441613,0.432066,1.604912,0.022271,-0.013540,0.156990,-0.275692,0.281617,-0.381226,2.925955,-83.254181,-10.834768
04390,573488,9.641836,0.406234,1.732531,0.020472,-0.010193,0.159136,-0.277226,0.280049,-0.379303,2.177077,-83.263675,-10.069036
04391,573588,9.738535,0.430815,1.816340,0.013852,-0.002902,0.160161,-0.279703,0.282604,-0.379677,1.416612,-83.267818,-9.295466
04392,573688,9.764835,0.514488,1.842898,0.002745,-0.000587,0.164021,-0.276217,0.282051,-0.379702,0.630179,-83.269440,-8.502156
04393,573788,9.664242,0.586772,1.771242,-0.009982,-0.007876,0.163214,-0.279184,0.283641,-0.380626,-0.159873,-83.273951,-7.712553
04394,573888,9.527076,0.633993,1.751103,-0.024307,-0.026621,0.152904,-0.274725,0.285989,-0.378998,-0.910287,-83.288005,-6.971150
04395,573988,9.456750,0.649393,1.875086,-0.024742,-0.038368,0.142075,-0.276726,0.286494,-0.378473,-1.612654,-83.307813,-6.278402
04396,574088,9.375383,0.615699,2.132207,-0.019820,-0.022427,0.134717,-0.273705,0.288512,-0.379870,-2.277033,-83.317657,-5.621078
04397,574188,9.275400,0.471197,2.329511,-0.015618,0.002677,0.133114,-0.273225,0.288954,-0.378845,-2.926660,-83.312277,-4.976178
04398,574288,9.290049,0.298627,2.429915,-0.011013,0.039173,0.143372,-0.271216,0.292933,-0.379141,-3.611223,-83.284791,-4.293408
04399,574388,9.481637,0.064207,2.392680,-0.004619,0.077791,0.167156,-0.271203,0.294950,-0.379539,-4.387030,-83.233251,-3.514990
04400,574488,9.750967,-0.099179,2.400262,0.011389,0.115062,0.203455,-0.269757,0.299266,-0.376311,-5.298480,-83.157316,-2.590613
04401,574588,10.118280,-0.117911,2.559413,0.031285,0.157420,0.238224,-0.268196,0.300407,-0.379758,-6.319310,-83.053364,-1.544356
04402,574688,10.526874,-0.209202,2.916845,0.043782,0.205725,0.264951,-0.268243,0.299788,-0.377285,-7.396150,-82.917797,-0.434161
04403,574788,11.041874,-0.259944,3.286426,0.078781,0.259822,0.289348,-0.266740,0.304747,-0.377030,-8.484625,-82.747032,0.708380
04404,574888,11.814159,-0.333345,3.457031,0.135850,0.343235,0.312521,-0.265220,0.303300,-0.378606,-9.528587,-82.524332,1.839565
04405,574988,12.487709,-0.276481,3.280454,0.190796,0.405703,0.330367,-0.264719,0.305285,-0.378504,-10.504116,-82.262063,2.934123
04406,575088,12.980810,-0.078386,3.002603,0.211864,0.442987,0.319957,-0.266275,0.301677,-0.375684,-11.328017,-81.977693,3.888527
04407,575188,13.422785,0.195382,2.764623,0.167377,0.476840,0.288155,-0.263758,0.300714,-0.377233,-11.966167,-81.676354,4.630225
04408,575288,13.986657,0.407433,2.400944,0.076334,0.518772,0.253604,-0.265764,0.293272,-0.377614,-12.445577,-81.354710,5.159280
04409,575388,14.398519,0.592589,1.691307,-0.024745,0.536466,0.211958,-0.269182,0.290032,-0.381792,-12.783902,-81.027854,5.487393
04410,575488,14.217923,0.829610,0.726658,-0.105971,0.495368,0.167596,-0.274167,0.283160,-0.382649,-13.025540,-80.729412,5.670670
04411,575588,13.588347,1.007799,-0.176422,-0.155968,0.370309,0.107360,-0.283114,0.278392,-0.384405,-13.179288,-80.508533,5.735866
04412,575688,12.743088,0.866254,-0.723804,-0.185574,0.209907,0.041612,-0.290035,0.271696,-0.388262,-13.253114,-80.385770,5.702765
04413,575788,11.693896,0.440526,-0.888233,-0.204542,0.047088,-0.016028,-0.297962,0.269452,-0.390890,-13.274139,-80.361441,5.604947
04414,575888,10.605299,-0.028146,-0.748040,-0.198915,-0.115797,-0.045953,-0.299916,0.270576,-0.392839,-13.319901,-80.431934,5.535417
04415,575988,9.579310,-0.268721,-0.512572,-0.190522,-0.259217,-0.062165,-0.306331,0.273315,-0.395713,-13.420224,-80.584573,5.526050
04416,576088,8.638590,-0.474069,-0.364971,-0.167683,-0.399196,-0.083163,-0.308806,0.276866,-0.396035,-13.552002,-80.818041,5.561781
04417,576188,7.828680,-0.864062,-0.088592,-0.101680,-0.523737,-0.115906,-0.310323,0.279807,-0.394384,-13.640779,-81.125285,5.592218
04418,576288,7.295435,-1.219129,0.420606,0.038287,-0.557997,-0.142039,-0.311828,0.284266,-0.393156,-13.586370,-81.455138,5.558910
04419,576388,7.055735,-1.471959,0.853234,0.243009,-0.470854,-0.161446,-0.312366,0.288140,-0.390454,-13.254386,-81.738987,5.363637
04420,576488,7.076650,-1.727008,1.037312,0.453454,-0.291844,-0.171856,-0.314295,0.292301,-0.393251,-12.578764,-81.923935,4.943172
04421,576588,7.433849,-1.935438,0.946239,0.619743,-0.062979,-0.159065,-0.312346,0.294142,-0.390649,-11.639546,-81.978271,4.352878
04422,576688,8.207391,-1.847283,0.794096,0.712237,0.152536,-0.133333,-0.311360,0.293604,-0.390175,-10.575663,-81.907146,3.690223
04423,576788,9.043592,-1.561607,0.619239,0.705267,0.318113,-0.113150,-0.311349,0.294625,-0.390624,-9.499196,-81.738876,3.010644
04424,576888,9.841864,-1.165718,0.563024,0.607393,0.406208,-0.088922,-0.312273,0.293339,-0.394699,-8.554430,-81.516915,2.407173
04425,576988,10.635830,-0.635922,0.477741,0.422175,0.417328,-0.052044,-0.312725,0.293467,-0.397198,-7.884853,-81.284432,1.974317
04426,577088,11.426451,-0.101333,0.472144,0.197988,0.391591,-0.006171,-0.314687,0.294567,-0.398647,-7.548559,-81.062500,1.748451
04427,577188,11.991057,0.376018,0.262540,0.001857,0.351274,0.021373,-0.315641,0.292711,-0.401248,-7.452504,-80.861313,1.651870
04428,577288,11.872678,0.430164,-0.098878,-0.120978,0.315317,0.020160,-0.316593,0.291352,-0.403823,-7.442150,-80.680667,1.570693
04429,577388,11.042264,0.327931,-0.253212,-0.170724,0.248655,-0.008209,-0.318548,0.291480,-0.405823,-7.394579,-80.540026,1.422804
04430,577488,10.147458,0.170123,-0.056128,-0.170439,0.130064,-0.040314,-0.320021,0.288088,-0.407501,-7.292443,-80.469127,1.219659
04431,577588,9.470417,0.052937,0.366644,-0.137844,0.014944,-0.071592,-0.320486,0.285701,-0.409627,-7.116835,-80.465855,0.960892
04432,577688,8.974850,-0.049556,0.831064,-0.099434,-0.059145,-0.106848,-0.321992,0.284705,-0.409179,-6.829894,-80.507011,0.611546
04433,577788,8.650377,-0.194045,1.211496,-0.046028,-0.097170,-0.134867,-0.321912,0.282430,-0.413804,-6.428335,-80.571320,0.177069
04434,577888,8.467871,-0.325138,1.479870,0.009909,-0.113023,-0.160444,-0.320432,0.279891,-0.413431,-5.906220,-80.645655,-0.347024
04435,577988,8.348488,-0.468951,1.643727,0.046738,-0.114964,-0.166026,-0.320384,0.281008,-0.415879,-5.335796,-80.720589,-0.898564
04436,578088,8.271470,-0.536377,1.604156,0.052133,-0.092802,-0.150429,-0.319380,0.280020,-0.416430,-4.801636,-80.781218,-1.410110
04437,578188,8.212870,-0.624873,1.309148,0.033388,-0.052989,-0.111344,-0.313424,0.283340,-0.414750,-4.399070,-80.816640,-1.799146
04438,578288,8.147442,-0.580522,1.032940,0.013731,-0.032946,-0.068435,-0.316396,0.282439,-0.415802,-4.151907,-80.838433,-2.042138
04439,578388,8.203118,-0.528302,0.932043,-0.021409,-0.054305,-0.030150,-0.315382,0.287430,-0.416047,-4.065183,-80.870757,-2.143002
04440,578488,8.296917,-0.501102,0.878267,-0.063560,-0.094333,-0.002297,-0.312410,0.287833,-0.415021,-4.111677,-80.924825,-2.133395
04441,578588,8.472587,-0.464097,0.942970,-0.101758,-0.145953,0.017267,-0.312892,0.291851,-0.415318,-4.264682,-81.007578,-2.038103
04442,578688,8.656366,-0.465591,1.008153,-0.133149,-0.169132,0.027126,-0.314411,0.293795,-0.413717,-4.480597,-81.103105,-1.897360
04443,578788,8.843660,-0.486739,0.991027,-0.162676,-0.183200,0.029965,-0.315393,0.296824,-0.414065,-4.732162,-81.206455,-1.737698
04444,578888,8.830696,-0.555910,1.045264,-0.190447,-0.206180,0.034445,-0.321402,0.299812,-0.411915,-5.028876,-81.322597,-1.548500
04445,578988,8.701387,-0.609625,1.257481,-0.207162,-0.232655,0.039784,-0.320880,0.302842,-0.412762,-5.371433,-81.453410,-1.322675
04446,579088,8.647973,-0.607710,1.495705,-0.211429,-0.260557,0.044402,-0.323401,0.306273,-0.410586,-5.753841,-81.599663,-1.059100
04447,579188,8.729346,-0.593488,1.705351,-0.204668,-0.277838,0.044877,-0.327364,0.308377,-0.411485,-6.152924,-81.755464,-0.774840
04448,579288,8.831085,-0.604655,1.812285,-0.188884,-0.290913,0.043975,-0.327377,0.311816,-0.410308,-6.558419,-81.918470,-0.475061
04449,579388,8.902417,-0.629439,1.773071,-0.182336,-0.291715,0.044565,-0.331856,0.313880,-0.410208,-6.977468,-82.081579,-0.157906
04450,579488,8.959455,-0.721964,1.710664,-0.171359,-0.273836,0.045963,-0.334895,0.316773,-0.407057,-7.401880,-82.234091,0.170911
04451,579588,9.076036,-0.859056,1.642270,-0.142963,-0.232250,0.050432,-0.336872,0.320814,-0.407354,-7.819840,-82.362311,0.509550
04452,579688,9.167810,-0.982265,1.567347,-0.100526,-0.190921,0.055654,-0.337415,0.321698,-0.404804,-8.223118,-82.466336,0.857840
04453,579788,9.130652,-1.098911,1.463259,-0.068851,-0.189537,0.063573,-0.337918,0.324173,-0.404178,-8.652215,-82.568574,1.250419
04454,579888,9.160385,-1.155665,1.418952,-0.058126,-0.231689,0.070919,-0.338880,0.327250,-0.405525,-9.148785,-82.693605,1.717155
04455,579988,9.325536,-1.223398,1.446531,-0.058020,-0.283677,0.077248,-0.338886,0.329718,-0.404899,-9.730394,-82.846858,2.269556
04456,580088,9.539250,-1.261821,1.452006,-0.047378,-0.294797,0.079411,-0.340942,0.330079,-0.401375,-10.349947,-83.005430,2.866177
04457,580188,9.759665,-1.261461,1.415365,-0.021935,-0.262503,0.082801,-0.341433,0.334073,-0.401172,-10.969528,-83.144657,3.477351
04458,580288,9.788536,-1.147626,1.324608,0.006673,-0.220695,0.084049,-0.340500,0.334885,-0.397622,-11.563236,-83.259465,4.078833
04459,580388,9.760659,-0.987315,1.254638,0.020692,-0.210290,0.080712,-0.341528,0.332835,-0.396225,-12.142668,-83.368099,4.673907
04460,580488,9.782210,-0.876637,1.256382,0.021523,-0.231667,0.070951,-0.341046,0.334274,-0.395149,-12.717062,-83.489198,5.264264
04461,580588,9.793235,-0.857375,1.126387,0.028154,-0.267549,0.059352,-0.340069,0.333712,-0.394174,-13.294190,-83.631145,5.861050
04462,580688,9.601814,-1.037491,0.912490,0.063133,-0.314442,0.048538,-0.340042,0.333286,-0.395699,-13.881865,-83.799982,6.488440
04463,580788,9.466855,-1.338580,0.910415,0.145977,-0.376493,0.045747,-0.341592,0.333663,-0.392675,-14.525456,-84.002937,7.219600
04464,580888,9.626067,-1.691053,1.175021,0.259309,-0.376026,0.043666,-0.344038,0.332827,-0.395226,-15.139137,-84.205072,7.985735
04465,580988,9.929109,-1.956323,1.599218,0.375001,-0.280654,0.046911,-0.343099,0.331670,-0.392277,-15.602457,-84.353267,8.667190
04466,581088,10.235466,-1.757006,2.181093,0.423836,-0.123532,0.048085,-0.337621,0.330586,-0.392327,-15.818257,-84.414195,9.127978
04467,581188,10.503971,-1.248697,2.865047,0.369529,0.053365,0.031514,-0.338124,0.328104,-0.392454,-15.693122,-84.380096,9.214970
04468,581288,10.862474,-0.580036,3.347544,0.264390,0.210479,-0.002584,-0.335688,0.323459,-0.390183,-15.198334,-84.264452,8.870001
04469,581388,11.294985,0.174524,3.484269,0.144915,0.340062,-0.039382,-0.332711,0.321893,-0.389758,-14.407792,-84.082012,8.158861
04470,581488,11.564873,1.041366,3.078371,0.028133,0.423847,-0.079853,-0.333235,0.317867,-0.388962,-13.412671,-83.857427,7.174443
04471,581588,11.585542,1.516776,2.195895,-0.046867,0.430426,-0.125235,-0.332260,0.310852,-0.388817,-12.294686,-83.633081,6.022735
04472,581688,11.657174,1.602276,1.561138,-0.084666,0.424896,-0.164503,-0.336243,0.306953,-0.389522,-11.089537,-83.413907,4.760946
04473,581788,12.015331,1.352414,1.052861,-0.082341,0.429393,-0.186976,-0.338268,0.298965,-0.388929,-9.852821,-83.191572,3.468089
04474,581888,12.393304,0.782678,0.257770,-0.079136,0.382246,-0.211182,-0.344283,0.293507,-0.387711,-8.616193,-82.994952,2.176540
04475,581988,12.460958,-0.058909,-0.780231,-0.092908,0.232896,-0.233361,-0.348749,0.287672,-0.389517,-7.444467,-82.881663,0.941950
04476,582088,12.132936,-0.686638,-1.511751,-0.106355,0.010063,-0.243118,-0.353714,0.280848,-0.391373,-6.386050,-82.892913,-0.186406
04477,582188,11.613798,-0.777232,-1.480597,-0.123223,-0.201541,-0.233297,-0.361694,0.275494,-0.391655,-5.471423,-83.021814,-1.179493
04478,582288,11.041263,-0.510554,-1.124682,-0.148883,-0.357716,-0.218017,-0.366138,0.271700,-0.394359,-4.668701,-83.237273,-2.074352
04479,582388,10.211875,-0.161800,-0.772196,-0.169772,-0.468856,-0.209270,-0.370619,0.267809,-0.395063,-3.903325,-83.514403,-2.943247
04480,582488,9.352250,0.268133,-0.293381,-0.167393,-0.539388,-0.198237,-0.375708,0.264136,-0.389745,-3.141820,-83.830145,-3.806405
04481,582588,8.657412,0.751239,0.231828,-0.153850,-0.554633,-0.187527,-0.376198,0.263669,-0.390270,-2.348059,-84.153011,-4.693714
04482,582688,8.147795,1.079264,0.630350,-0.161745,-0.514993,-0.179656,-0.377720,0.264119,-0.388746,-1.501486,-84.451670,-5.638190
04483,582788,7.980307,1.176787,0.860414,-0.208271,-0.419993,-0.174228,-0.379275,0.266465,-0.385121,-0.608797,-84.694396,-6.655369
04484,582888,8.251058,0.925473,0.855071,-0.289867,-0.271199,-0.164576,-0.379778,0.268940,-0.384494,0.259145,-84.850345,-7.694344
04485,582988,8.793807,0.544936,0.632001,-0.354211,-0.102709,-0.144460,-0.380791,0.274863,-0.382690,0.995898,-84.908549,-8.638465
04486,583088,9.375403,0.154154,0.226658,-0.361210,0.031829,-0.121048,-0.384794,0.275376,-0.381666,1.570063,-84.889028,-9.423368
04487,583188,9.972542,-0.139257,-0.244775,-0.320203,0.091421,-0.091083,-0.385797,0.281821,-0.380337,1.957692,-84.835341,-9.997454
04488,583288,10.606494,-0.372460,-0.386971,-0.249117,0.081755,-0.056435,-0.389282,0.282872,-0.380287,2.161032,-84.787658,-10.345656
04489,583388,11.167344,-0.616362,-0.234848,-0.162257,0.047938,-0.015203,-0.392285,0.285363,-0.379161,2.160505,-84.760190,-10.439191
04490,583488,11.468624,-0.892583,-0.252369,-0.070355,-0.006014,0.030706,-0.396191,0.283152,-0.383788,1.938186,-84.764591,-10.257129
04491,583588,11.414394,-0.891002,-0.339978,0.008134,-0.083220,0.066953,-0.397732,0.282557,-0.381315,1.546659,-84.813769,-9.860005
04492,583688,11.083736,-0.601463,-0.218926,0.059384,-0.151481,0.074768,-0.399166,0.280258,-0.384941,1.135722,-84.901915,-9.413958
04493,583788,10.631838,-0.226101,-0.003375,0.100512,-0.195441,0.053789,-0.400668,0.276296,-0.385145,0.874810,-85.014810,-9.094944
04494,583888,10.097642,0.232445,0.239060,0.133975,-0.214430,0.009791,-0.402761,0.272101,-0.380350,0.917534,-85.138144,-9.061521
04495,583988,9.561534,0.597574,0.466954,0.150573,-0.225885,-0.033462,-0.403251,0.271136,-0.380901,1.270798,-85.267582,-9.330216
04496,584088,9.170482,0.828818,0.659285,0.139387,-0.223947,-0.061566,-0.404218,0.266764,-0.383129,1.834604,-85.395292,-9.816557
04497,584188,8.908047,0.954163,0.723465,0.099168,-0.193047,-0.078720,-0.403289,0.265583,-0.379681,2.520619,-85.504498,-10.448556
04498,584288,8.655448,0.965435,0.807562,0.042341,-0.168487,-0.087482,-0.401297,0.265054,-0.379706,3.261445,-85.598764,-11.168125
04499,584388,8.541571,0.856570,0.912929,-0.025203,-0.144732,-0.085842,-0.398845,0.263921,-0.377757,3.970103,-85.678790,-11.894178
04500,584488,8.665900,0.598347,0.857338,-0.084046,-0.122789,-0.073686,-0.397361,0.263375,-0.377282,4.564586,-85.746160,-12.539487
04501,584588,8.872978,0.287024,0.701679,-0.106663,-0.110620,-0.044698,-0.392848,0.264373,-0.378729,4.931645,-85.807550,-12.969699
04502,584688,9.003030,0.068721,0.494165,-0.109100,-0.100652,-0.019326,-0.391850,0.265852,-0.378653,5.101596,-85.864375,-13.203651
04503,584788,9.094922,0.025452,0.400750,-0.100946,-0.099676,-0.002276,-0.390462,0.263072,-0.373281,5.144724,-85.921487,-13.305756
04504,584888,9.091369,0.079174,0.351610,-0.081982,-0.108051,0.006207,-0.391481,0.266005,-0.371630,5.138146,-85.983816,-13.347135
04505,584988,9.097194,0.311292,0.274009,-0.058083,-0.132766,0.003715,-0.384496,0.266915,-0.372077,5.185110,-86.060123,-13.428469
04506,585088,9.122976,0.536041,0.241054,-0.033471,-0.157193,-0.009102,-0.386979,0.265982,-0.372628,5.376634,-86.149684,-13.640573
04507,585188,9.208003,0.660280,0.204398,0.006003,-0.177675,-0.028559,-0.387464,0.263049,-0.373780,5.787475,-86.249767,-14.049808
04508,585288,9.261336,0.696515,0.218713,0.048030,-0.192305,-0.042714,-0.387995,0.260493,-0.372408,6.386199,-86.357088,-14.623162
04509,585388,9.284222,0.741982,0.348662,0.072916,-0.201198,-0.053049,-0.391488,0.257061,-0.372587,7.140306,-86.468331,-15.337867
04510,585488,9.262043,0.761302,0.575084,0.075200,-0.205691,-0.060322,-0.393976,0.258096,-0.372537,8.018489,-86.580928,-16.175498
04511,585588,9.239804,0.733798,0.800575,0.067118,-0.202513,-0.063924,-0.395931,0.253267,-0.375290,8.980615,-86.690587,-17.101769
04512,585688,9.163066,0.714742,0.883665,0.053024,-0.202819,-0.062099,-0.396489,0.250638,-0.372419,9.981145,-86.799640,-18.074503
04513,585788,9.111953,0.635252,0.968065,0.037353,-0.202892,-0.054171,-0.400458,0.249255,-0.373496,10.959456,-86.908584,-19.033881
04514,585888,9.134980,0.580009,0.983442,0.032847,-0.190662,-0.040858,-0.402474,0.252204,-0.371844,11.834830,-87.011295,-19.892670
04515,585988,9.154099,0.490760,0.974007,0.040443,-0.169066,-0.026518,-0.398489,0.252141,-0.371843,12.563773,-87.102994,-20.600402
04516,586088,9.236882,0.358853,0.908789,0.064098,-0.130636,-0.011022,-0.402958,0.254727,-0.372218,13.075334,-87.174789,-21.076861
04517,586188,9.383835,0.260922,0.838210,0.084590,-0.089584,0.009186,-0.402457,0.256214,-0.372141,13.278068,-87.226168,-21.232339
04518,586288,9.545665,0.244873,0.725028,0.090298,-0.062436,0.027615,-0.401479,0.256648,-0.371116,13.200094,-87.264814,-21.103504
04519,586388,9.647507,0.305984,0.656153,0.082526,-0.050855,0.042627,-0.398926,0.260241,-0.373936,12.905254,-87.298916,-20.762021
04520,586488,9.665637,0.399124,0.647905,0.062742,-0.044962,0.054304,-0.399451,0.260675,-0.372411,12.435062,-87.331081,-20.256355
04521,586588,9.738394,0.467811,0.704985,0.040557,-0.024740,0.067863,-0.396912,0.262250,-0.374833,11.724032,-87.353295,-19.522333
04522,586688,9.828233,0.518036,0.848218,0.026471,0.008611,0.084761,-0.397453,0.263632,-0.372258,10.707950,-87.358128,-18.491025
04523,586788,9.898560,0.563681,1.001563,0.030595,0.037440,0.099436,-0.396428,0.264187,-0.373732,9.452027,-87.347219,-17.217256
04524,586888,9.902696,0.523105,1.075190,0.054585,0.059948,0.110347,-0.394901,0.267225,-0.375079,8.049132,-87.323147,-15.782580
04525,586988,9.882053,0.462191,1.127977,0.091711,0.079007,0.122536,-0.389914,0.270136,-0.374925,6.520408,-87.287422,-14.200605
04526,587088,9.858418,0.442341,1.263406,0.121874,0.099759,0.129916,-0.391890,0.269219,-0.375976,4.941529,-87.238276,-12.551059
04527,587188,9.815458,0.519308,1.343905,0.130693,0.130336,0.130122,-0.389893,0.271678,-0.375848,3.402028,-87.169531,-10.935796
04528,587288,9.746462,0.701721,1.393070,0.111075,0.177597,0.121204,-0.384913,0.276059,-0.375118,2.009739,-87.071495,-9.479074
04529,587388,9.734548,0.872709,1.408628,0.078932,0.232966,0.103414,-0.386866,0.277682,-0.377042,0.876245,-86.939892,-8.299802
04530,587488,9.761894,0.941193,1.362772,0.044411,0.294676,0.087846,-0.383915,0.277040,-0.375067,-0.020441,-86.771791,-7.377349
04531,587588,9.741795,0.936889,1.349277,0.021824,0.346906,0.080467,-0.381291,0.279331,-0.381962,-0.761423,-86.573081,-6.623672
04532,587688,9.754303,0.896168,1.420831,0.009268,0.382196,0.078314,-0.382847,0.281179,-0.378362,-1.400002,-86.353662,-5.979649
04533,587788,9.812534,0.744509,1.557886,0.018934,0.419391,0.086686,-0.379809,0.282746,-0.380784,-2.020042,-86.112367,-5.348494
04534,587888,10.072583,0.555016,1.754870,0.044076,0.467004,0.101174,-0.381791,0.283300,-0.381259,-2.650186,-85.843030,-4.692578
04535,587988,10.523007,0.251387,1.870409,0.091351,0.532516,0.125380,-0.383268,0.282376,-0.382310,-3.326248,-85.534967,-3.963200
04536,588088,11.041848,0.019747,1.783446,0.140861,0.602599,0.148090,-0.382172,0.281628,-0.387858,-4.005606,-85.185364,-3.201716
04537,588188,11.526556,-0.116351,1.523766,0.172009,0.651104,0.164674,-0.383641,0.280229,-0.389434,-4.649736,-84.806640,-2.457261
04538,588288,11.996965,-0.136555,1.238967,0.182380,0.659955,0.174114,-0.385601,0.277368,-0.391586,-5.244133,-84.421719,-1.756337
04539,588388,12.320997,0.003619,1.003270,0.149909,0.629477,0.168391,-0.386072,0.276950,-0.393111,-5.758567,-84.053883,-1.154034
04540,588488,12.490880,0.158211,0.621552,0.066097,0.543495,0.158865,-0.388022,0.269653,-0.396492,-6.254187,-83.735103,-0.618588
04541,588588,12.639131,0.204564,0.198457,-0.051064,0.421828,0.153565,-0.392495,0.265288,-0.397722,-6.810772,-83.485430,-0.089077
04542,588688,12.742072,0.251160,-0.142817,-0.157096,0.295769,0.140412,-0.395413,0.258079,-0.402602,-7.401884,-83.307800,0.414226
04543,588788,12.395590,0.333689,-0.271080,-0.210746,0.178158,0.120563,-0.400371,0.250282,-0.405009,-7.978600,-83.197910,0.872191
04544,588888,11.675318,0.293221,-0.217086,-0.224571,0.069135,0.086912,-0.402841,0.246408,-0.406713,-8.464653,-83.152122,1.230908
04545,588988,10.958779,-0.022797,0.109876,-0.216869,-0.034286,0.069773,-0.408808,0.247025,-0.407189,-8.936068,-83.166051,1.579318
04546,589088,10.225212,-0.285148,0.395487,-0.206406,-0.117552,0.065711,-0.409755,0.243200,-0.410391,-9.449065,-83.227097,1.975608
04547,589188,9.454228,-0.502098,0.633117,-0.161160,-0.178931,0.058718,-0.412756,0.247185,-0.409189,-9.962232,-83.323063,2.398111
04548,589288,8.746258,-0.641871,0.799340,-0.062003,-0.210547,0.042148,-0.411253,0.246189,-0.409739,-10.379132,-83.438132,2.780814
04549,589388,8.228306,-0.692283,0.894373,0.069837,-0.194096,0.032526,-0.409786,0.246591,-0.408214,-10.670709,-83.544665,3.113340
04550,589488,7.730534,-0.662069,0.823776,0.209619,-0.149232,0.021770,-0.405817,0.248473,-0.407111,-10.794153,-83.626953,3.357219
04551,589588,7.221910,-0.670728,0.591197,0.338291,-0.101860,0.011171,-0.406369,0.249332,-0.404062,-10.747835,-83.683694,3.504447
04552,589688,6.915295,-0.627134,0.426825,0.444161,-0.058369,-0.002102,-0.401893,0.250234,-0.403510,-10.531416,-83.717389,3.541565
04553,589788,7.047763,-0.628871,0.274134,0.524686,-0.016271,-0.016338,-0.403418,0.248690,-0.402087,-10.155142,-83.728845,3.464285
04554,589888,7.563283,-0.693866,0.158456,0.575585,0.031374,-0.021289,-0.398899,0.253176,-0.403357,-9.680889,-83.713842,3.317780
04555,589988,8.165720,-0.811187,0.045302,0.589117,0.067478,-0.021700,-0.398936,0.253578,-0.401332,-9.167957,-83.678342,3.140160
04556,590088,8.728911,-0.932116,0.014900,0.553536,0.074956,-0.011436,-0.393927,0.253073,-0.402855,-8.725504,-83.637541,3.012937
04557,590188,9.235138,-0.987899,0.165385,0.484709,0.069873,0.006671,-0.393428,0.253563,-0.402830,-8.421350,-83.597990,2.985195
04558,590288,9.699429,-0.939485,0.426980,0.386372,0.084803,0.030055,-0.393428,0.259019,-0.402050,-8.281819,-83.548023,3.066428
04559,590388,10.108406,-0.831387,0.568584,0.289511,0.126055,0.047820,-0.390925,0.255540,-0.403227,-8.256364,-83.473220,3.206638
04560,590488,10.463039,-0.631246,0.644767,0.206906,0.169485,0.061676,-0.393340,0.256271,-0.407201,-8.313270,-83.372649,3.382142
04561,590588,10.764959,-0.379314,0.600950,0.145065,0.207159,0.067834,-0.391853,0.252261,-0.407404,-8.404600,-83.250188,3.556667
04562,590688,10.874607,-0.053182,0.702831,0.092600,0.198895,0.060888,-0.389894,0.248670,-0.406082,-8.494142,-83.132969,3.699149
04563,590788,10.876810,0.256383,0.926741,0.034538,0.142560,0.041848,-0.388320,0.246372,-0.410707,-8.563971,-83.049269,3.788276
04564,590888,10.854075,0.471580,1.104115,-0.026800,0.064811,0.011447,-0.394725,0.239716,-0.415562,-8.581024,-83.012209,3.788820
04565,590988,10.722347,0.516684,1.199868,-0.070184,0.000345,-0.017109,-0.393742,0.237185,-0.415189,-8.535793,-83.014111,3.701551
04566,591088,10.431417,0.448614,1.292546,-0.083747,-0.030774,-0.042598,-0.399171,0.234427,-0.418342,-8.401513,-83.035783,3.516726
04567,591188,9.949225,0.326036,1.313129,-0.066851,-0.044653,-0.063554,-0.401614,0.229629,-0.421596,-8.168154,-83.066981,3.241841
04568,591288,9.443601,0.119985,1.362436,-0.020561,-0.059860,-0.082648,-0.406583,0.226268,-0.422775,-7.826161,-83.108161,2.884261
04569,591388,9.080923,-0.112663,1.375199,0.031100,-0.082571,-0.099941,-0.406556,0.225842,-0.424299,-7.382446,-83.163251,2.454078
04570,591488,8.902678,-0.394228,1.329575,0.076129,-0.108980,-0.115623,-0.409023,0.223463,-0.425927,-6.845989,-83.234025,1.956548
04571,591588,8.967318,-0.647452,1.293950,0.103741,-0.127892,-0.122661,-0.411535,0.222458,-0.424978,-6.258766,-83.315441,1.423927
04572,591688,9.109695,-0.787586,1.280335,0.104192,-0.116168,-0.114738,-0.411480,0.221606,-0.428028,-5.690847,-83.389068,0.911109
04573,591788,9.196914,-0.772529,1.196767,0.086935,-0.078097,-0.100822,-0.411495,0.223551,-0.426927,-5.172875,-83.439656,0.438702
04574,591888,9.147321,-0.715516,1.080872,0.058854,-0.039397,-0.079628,-0.414467,0.222650,-0.427978,-4.753353,-83.466658,0.049253
04575,591988,9.038163,-0.650479,0.969618,0.035675,-0.015787,-0.057067,-0.414454,0.224667,-0.428377,-4.447636,-83.478858,-0.238986
04576,592088,8.931813,-0.566566,0.908128,0.014702,-0.018866,-0.038287,-0.415984,0.225591,-0.426327,-4.248075,-83.491858,-0.432453
04577,592188,8.758242,-0.504185,0.917829,0.000328,-0.047919,-0.026485,-0.418461,0.228146,-0.426701,-4.125771,-83.520903,-0.556433
04578,592288,8.579440,-0.448205,0.985158,-0.008939,-0.088319,-0.024060,-0.420459,0.230146,-0.426100,-4.034368,-83.572912,-0.654637
04579,592388,8.469310,-0.413030,1.077991,-0.019476,-0.130126,-0.029934,-0.421454,0.231158,-0.426049,-3.932139,-83.649030,-0.769785
04580,592488,8.462240,-0.405363,1.197111,-0.021847,-0.160984,-0.035132,-0.422892,0.236783,-0.428269,-3.812319,-83.742962,-0.903965
04581,592588,8.529942,-0.387809,1.294380,-0.011705,-0.181302,-0.040144,-0.424927,0.238687,-0.425669,-3.663153,-83.848659,-1.061778
04582,592688,8.645705,-0.420787,1.441306,0.008080,-0.194404,-0.041202,-0.424904,0.241724,-0.426517,-3.495831,-83.961834,-1.226398
04583,592788,8.731444,-0.431795,1.631794,0.028675,-0.202891,-0.040073,-0.426421,0.244665,-0.424865,-3.319241,-84.079765,-1.388415
04584,592888,8.866423,-0.466487,1.769886,0.048623,-0.202983,-0.037255,-0.428399,0.247212,-0.425238,-3.140165,-84.197597,-1.541380
04585,592988,9.142468,-0.577115,1.792517,0.072568,-0.178225,-0.030470,-0.426443,0.247582,-0.423213,-2.971966,-84.301001,-1.669566
04586,593088,9.400112,-0.759869,1.698711,0.112397,-0.135745,-0.019230,-0.427353,0.249310,-0.427636,-2.828580,-84.379728,-1.749833
04587,593188,9.626483,-0.891411,1.624463,0.142583,-0.108118,-0.008338,-0.425935,0.248097,-0.423687,-2.721069,-84.442319,-1.776629
04588,593288,9.801330,-0.966386,1.539985,0.148676,-0.094629,-0.008510,-0.427303,0.251423,-0.430033,-2.603874,-84.497183,-1.809608
04589,593388,9.899460,-0.933801,1.565237,0.138501,-0.095671,-0.008788,-0.429307,0.249936,-0.429610,-2.489721,-84.552639,-1.845348
04590,593488,9.875427,-0.866481,1.600499,0.110332,-0.103702,-0.005811,-0.431789,0.249501,-0.430136,-2.410459,-84.612607,-1.862215
04591,593588,9.802622,-0.680244,1.663377,0.084891,-0.113357,0.002648,-0.431791,0.248505,-0.430187,-2.399269,-84.677890,-1.825320
04592,593688,9.745430,-0.440306,1.696551,0.060732,-0.110388,0.007055,-0.431238,0.248143,-0.433211,-2.428988,-84.741360,-1.761220
04593,593788,9.718744,-0.194532,1.739406,0.043610,-0.090668,0.005134,-0.431253,0.250088,-0.432110,-2.452296,-84.793579,-1.713399
04594,593888,9.681157,-0.061662,1.765945,0.036751,-0.060149,-0.007058,-0.433192,0.249268,-0.435160,-2.394769,-84.828616,-1.750680
04595,593988,9.689590,-0.016210,1.727989,0.043544,-0.029062,-0.020322,-0.433709,0.248729,-0.434186,-2.240418,-84.846151,-1.881258
04596,594088,9.686106,-0.112768,1.633307,0.059406,-0.007039,-0.034117,-0.431707,0.248721,-0.434685,-1.983223,-84.851318,-2.105955
04597,594188,9.659932,-0.331094,1.504693,0.088792,-0.004602,-0.046217,-0.431705,0.249718,-0.434634,-1.631301,-84.855196,-2.408837
04598,594288,9.596727,-0.585455,1.289138,0.137459,-0.025385,-0.053066,-0.432681,0.245820,-0.436337,-1.210332,-84.870888,-2.753021
04599,594388,9.632827,-0.816031,1.137616,0.188695,-0.049161,-0.055760,-0.433119,0.248464,-0.439209,-0.742577,-84.899985,-3.114662
04600,594488,9.797097,-0.951083,1.189763,0.238209,-0.042902,-0.055351,-0.434570,0.246615,-0.441810,-0.244152,-84.925219,-3.478564
04601,594588,10.111736,-1.008662,1.349552,0.289908,0.003563,-0.055245,-0.433095,0.246045,-0.440836,0.286384,-84.923535,-3.844922
04602,594688,10.555685,-0.917953,1.729814,0.315027,0.076018,-0.045489,-0.429093,0.245531,-0.441859,0.762507,-84.880098,-4.142173
04603,594788,11.078528,-0.670041,2.314290,0.291461,0.162757,-0.036424,-0.429098,0.242542,-0.442012,1.150874,-84.786848,-4.364857
04604,594888,11.534057,-0.328195,2.951430,0.210782,0.257626,-0.026542,-0.428554,0.242156,-0.444536,1.407923,-84.639255,-4.502087
04605,594988,11.862955,0.211663,3.499815,0.091071,0.364297,-0.030221,-0.427002,0.237817,-0.448263,1.591272,-84.430441,-4.634189
04606,595088,12.051413,0.908502,3.781307,-0.035618,0.476927,-0.051678,-0.427022,0.237271,-0.447289,1.793361,-84.156696,-4.858115
04607,595188,12.178208,1.512394,3.737231,-0.142481,0.581254,-0.084665,-0.429484,0.232424,-0.449543,2.072306,-83.822461,-5.221014
04608,595288,12.242218,1.804793,3.332700,-0.211374,0.672578,-0.121431,-0.432449,0.230053,-0.451170,2.444312,-83.434882,-5.717544
04609,595388,12.166457,1.650118,2.611097,-0.234701,0.726353,-0.165195,-0.434854,0.226347,-0.456372,2.947093,-83.014925,-6.359661
04610,595488,12.133376,1.009535,1.733512,-0.195546,0.729071,-0.201645,-0.439293,0.220086,-0.459702,3.566446,-82.591502,-7.097272
04611,595588,11.983596,-0.022963,0.839264,-0.106002,0.663895,-0.208138,-0.442239,0.217762,-0.462330,4.209418,-82.204100,-7.807641
04612,595688,11.614644,-1.035780,0.011633,0.020631,0.511526,-0.177578,-0.449154,0.209098,-0.466788,4.788400,-81.904141,-8.380715
04613,595788,11.248452,-1.710321,-0.439165,0.160705,0.308341,-0.114951,-0.451610,0.202781,-0.469618,5.234162,-81.722614,-8.738435
04614,595888,10.776287,-1.813671,-0.394158,0.259376,0.142077,-0.055277,-0.458081,0.199919,-0.470272,5.550792,-81.638825,-8.908606
04615,595988,10.065010,-1.479256,-0.020909,0.301527,0.039645,-0.020723,-0.458569,0.195490,-0.471500,5.793168,-81.615290,-8.979310
04616,596088,9.389475,-0.920345,0.314869,0.277219,-0.035026,-0.008057,-0.458097,0.191448,-0.470704,6.001744,-81.635027,-9.029913
04617,596188,8.814413,-0.321017,0.604207,0.212729,-0.119329,-0.001338,-0.457097,0.193426,-0.470602,6.182947,-81.703183,-9.090186
04618,596288,8.380685,0.246904,0.964287,0.128339,-0.222469,0.012083,-0.455157,0.189786,-0.468280,6.309410,-81.830898,-9.143998
04619,596388,8.028559,0.848866,1.346269,0.022905,-0.316368,0.028220,-0.454212,0.187159,-0.465908,6.354970,-82.013091,-9.177111
04620,596488,7.772444,1.385902,1.649572,-0.116346,-0.359788,0.038870,-0.449251,0.190993,-0.464203,6.297520,-82.220678,-9.186793
04621,596588,7.702119,1.780408,1.647175,-0.277586,-0.310586,0.047072,-0.448314,0.194296,-0.460527,6.087335,-82.400742,-9.135617
04622,596688,7.723023,2.090925,1.117191,-0.429931,-0.195840,0.042964,-0.448881,0.197599,-0.456351,5.748980,-82.515134,-9.043284
04623,596788,7.855367,2.047849,0.408309,-0.549425,-0.069935,0.043662,-0.446916,0.202952,-0.454071,5.279220,-82.557677,-8.887566
04624,596888,8.204289,1.574064,-0.336786,-0.584248,-0.003699,0.074449,-0.445445,0.210305,-0.451691,4.626241,-82.563746,-8.567279
04625,596988,8.670919,0.991519,-0.967564,-0.522691,-0.006819,0.101274,-0.443949,0.216734,-0.450860,3.891273,-82.572255,-8.128812
04626,597088,9.197033,0.440902,-1.247202,-0.417814,-0.038220,0.113264,-0.446466,0.222656,-0.448557,3.170433,-82.598446,-7.644066
04627,597188,9.600677,-0.018199,-1.194095,-0.285249,-0.085190,0.115522,-0.446435,0.229680,-0.449201,2.520915,-82.650852,-7.154730
04628,597288,10.046712,-0.365921,-0.798719,-0.160730,-0.142846,0.119642,-0.448933,0.235650,-0.447897,1.925294,-82.735692,-6.647901
04629,597388,10.704116,-0.697101,-0.278036,-0.048416,-0.199958,0.128968,-0.447447,0.236598,-0.447346,1.345142,-82.852744,-6.091915
04630,597488,11.314836,-0.845312,0.175308,0.048644,-0.236356,0.144785,-0.450392,0.240230,-0.449168,0.730802,-82.990089,-5.445586
04631,597588,11.517720,-0.818471,0.513752,0.125837,-0.238721,0.165590,-0.455374,0.239810,-0.449195,0.037109,-83.127960,-4.674940
04632,597688,11.303527,-0.669486,0.592027,0.175222,-0.257727,0.183241,-0.455383,0.239786,-0.448695,-0.744777,-83.275455,-3.787201
04633,597788,10.821057,-0.449220,0.721272,0.177306,-0.306883,0.184154,-0.453354,0.239851,-0.450694,-1.574183,-83.449611,-2.850708
04634,597888,10.203676,-0.132749,0.940863,0.124868,-0.355166,0.179519,-0.455349,0.238388,-0.450771,-2.469100,-83.649864,-1.878873
04635,597988,9.653565,0.260179,1.107960,0.021899,-0.392784,0.171769,-0.454880,0.237311,-0.449322,-3.455352,-83.870053,-0.874916
04636,598088,9.268436,0.656061,1.223821,-0.099576,-0.396243,0.158096,-0.452402,0.235753,-0.448898,-4.512225,-84.090781,0.129632
04637,598188,8.993445,0.887119,1.218178,-0.193384,-0.348452,0.136024,-0.451924,0.239659,-0.447195,-5.550660,-84.283375,1.061217
04638,598288,8.751281,0.911826,1.107095,-0.239469,-0.280958,0.107502,-0.449502,0.242914,-0.443018,-6.471706,-84.437577,1.847993
04639,598388,8.556360,0.775888,1.005821,-0.247288,-0.228211,0.075484,-0.445525,0.243824,-0.442466,-7.213749,-84.562817,2.450225
04640,598488,8.560968,0.477885,0.956038,-0.229320,-0.205664,0.050158,-0.441093,0.246099,-0.439339,-7.803572,-84.676465,2.909764
04641,598588,8.698615,0.177809,0.977776,-0.199481,-0.192758,0.035926,-0.443106,0.250543,-0.437611,-8.298786,-84.783518,3.291371
04642,598688,8.913049,-0.074701,0.965657,-0.156614,-0.192205,0.034523,-0.439125,0.252946,-0.436983,-8.778085,-84.890075,3.681595
04643,598788,9.193202,-0.175964,0.902346,-0.107576,-0.192287,0.042524,-0.441680,0.253814,-0.433435,-9.299224,-84.995646,4.141970
04644,598888,9.367747,-0.181067,0.830685,-0.067431,-0.180592,0.049710,-0.439188,0.254272,-0.433408,-9.852197,-85.093539,4.657316
04645,598988,9.373787,-0.099203,0.745656,-0.034977,-0.164411,0.050290,-0.440218,0.250728,-0.432087,-10.392093,-85.181819,5.178125
04646,599088,9.275281,0.028502,0.734577,-0.018001,-0.166037,0.039335,-0.441722,0.250728,-0.431588,-10.869521,-85.271777,5.645934
04647,599188,9.156055,0.144449,0.837708,-0.010543,-0.175681,0.023826,-0.442739,0.249699,-0.430639,-11.266790,-85.368564,6.037531
04648,599288,9.108273,0.272122,0.976400,-0.012726,-0.181957,0.007717,-0.443741,0.246228,-0.430817,-11.577179,-85.470503,6.340649
04649,599388,9.087141,0.357098,1.077984,-0.021675,-0.184442,-0.001151,-0.444746,0.246219,-0.430318,-11.846357,-85.574741,6.597231
04650,599488,9.104944,0.427481,1.183116,-0.046626,-0.175692,-0.011251,-0.447714,0.242851,-0.431996,-12.053857,-85.675185,6.777567
04651,599588,9.211897,0.463905,1.201522,-0.075984,-0.148124,-0.017755,-0.450247,0.239805,-0.430150,-12.193114,-85.760923,6.872565
04652,599688,9.221050,0.511234,1.295234,-0.097057,-0.127535,-0.017530,-0.451259,0.241267,-0.429075,-12.316468,-85.835085,6.939486
04653,599788,9.287335,0.607376,1.385369,-0.113437,-0.107103,-0.014614,-0.449270,0.239243,-0.429176,-12.440277,-85.897439,6.997432
04654,599888,9.395955,0.596583,1.421422,-0.114307,-0.076657,-0.013897,-0.451764,0.242746,-0.428499,-12.519566,-85.942660,7.010224
04655,599988,9.468479,0.502630,1.418443,-0.087439,-0.047048,-0.006729,-0.452313,0.240142,-0.426127,-12.588852,-85.970423,7.028408
04656,600088,9.498044,0.364045,1.285686,-0.044456,-0.028655,0.001178,-0.450757,0.238294,-0.429727,-12.664151,-85.986905,7.077300
04657,600188,9.428590,0.204683,1.172795,0.002574,-0.034925,0.009279,-0.449270,0.239243,-0.429176,-12.789068,-86.005860,7.202936
04658,600288,9.336518,0.137917,1.122508,0.048682,-0.043764,0.012676,-0.449805,0.239653,-0.427151,-12.932281,-86.029295,7.373388
04659,600388,9.227574,0.054690,1.221577,0.078549,-0.049074,0.013191,-0.451296,0.236213,-0.427829,-13.074309,-86.055593,7.559803
04660,600488,9.210817,0.008212,1.314610,0.091179,-0.031364,0.013693,-0.450820,0.239122,-0.426178,-13.181482,-86.071910,7.718536
04661,600588,9.190665,0.053799,1.384003,0.085523,-0.006863,0.016914,-0.448819,0.238616,-0.426702,-13.272021,-86.074115,7.857349
04662,600688,9.245151,0.217902,1.389984,0.056995,0.009155,0.025339,-0.446853,0.239509,-0.425151,-13.416338,-86.066251,8.033684
04663,600788,9.428160,0.344017,1.387022,0.017901,0.033238,0.035700,-0.445349,0.239509,-0.425650,-13.618870,-86.043540,8.245916
04664,600888,9.607286,0.456135,1.416367,-0.023384,0.073696,0.048200,-0.443370,0.242419,-0.424498,-13.862673,-85.996550,8.475804
04665,600988,9.750441,0.530862,1.370363,-0.051458,0.125518,0.059071,-0.443310,0.245054,-0.427370,-14.100134,-85.919171,8.683211
04666,601088,9.853050,0.637833,1.251023,-0.065432,0.153963,0.064117,-0.440323,0.249467,-0.426640,-14.320292,-85.825223,8.865240
04667,601188,9.811782,0.836741,1.131381,-0.065697,0.157084,0.062940,-0.440845,0.246438,-0.425793,-14.516864,-85.729663,9.023455
04668,601288,9.697822,0.990607,1.139554,-0.053833,0.139342,0.053041,-0.437302,0.251485,-0.428037,-14.660586,-85.645335,9.135466
04669,601388,9.666183,1.044747,1.359260,-0.029863,0.129700,0.036197,-0.437329,0.252409,-0.426487,-14.683443,-85.568781,9.140000
04670,601488,9.803931,0.978535,1.774254,-0.009144,0.158658,0.024503,-0.437254,0.252602,-0.430485,-14.558745,-85.477859,9.008406
04671,601588,10.057081,0.799531,2.246265,0.005822,0.238278,0.018825,-0.434814,0.255407,-0.427333,-14.252166,-85.343513,8.702913
04672,601688,10.434823,0.459513,2.655775,0.036041,0.340682,0.019229,-0.437229,0.256137,-0.431307,-13.781362,-85.152006,8.249937
04673,601788,11.110952,-0.061849,2.772102,0.088736,0.447116,0.041900,-0.438196,0.257222,-0.432756,-13.299952,-84.897851,7.816497
04674,601888,11.810810,-0.474742,2.559617,0.153961,0.510270,0.083182,-0.439624,0.257912,-0.436229,-12.984251,-84.602813,7.586845
04675,601988,12.380795,-0.756183,2.354096,0.215945,0.513167,0.128789,-0.435626,0.254908,-0.437381,-12.913987,-84.300223,7.639396
04676,602088,13.038396,-0.806955,2.035198,0.263475,0.508323,0.166571,-0.441527,0.256192,-0.441330,-13.024631,-83.995470,7.901240
04677,602188,13.844349,-0.727011,1.395685,0.284388,0.490325,0.199353,-0.444470,0.250405,-0.444634,-13.292503,-83.696394,8.333437
04678,602288,14.143470,-0.573288,0.251730,0.238644,0.407464,0.216116,-0.443472,0.241469,-0.446091,-13.732796,-83.440967,8.912986
04679,602388,13.568710,-0.394498,-1.028123,0.127552,0.222315,0.207236,-0.444920,0.241115,-0.448616,-14.377185,-83.289102,9.634115
04680,602488,12.746174,-0.221221,-1.572960,0.005031,-0.010925,0.180785,-0.450867,0.237320,-0.450820,-15.231102,-83.269264,10.495600
04681,602588,11.952725,-0.089464,-1.243554,-0.057122,-0.196726,0.150370,-0.449926,0.232700,-0.448550,-16.225131,-83.355025,11.462180
04682,602688,11.219930,-0.032930,-0.810172,-0.096864,-0.286424,0.126611,-0.451401,0.232772,-0.449550,-17.286995,-83.491908,12.473850
04683,602788,10.416918,-0.150758,-0.653954,-0.096538,-0.341731,0.106528,-0.452395,0.229324,-0.450227,-18.384440,-83.660291,13.521162
04684,602888,9.655449,-0.348555,-0.559525,-0.048158,-0.406240,0.076649,-0.450922,0.232716,-0.448550,-19.476566,-83.866935,14.590597
04685,602988,9.000550,-0.511728,-0.331346,0.062528,-0.469422,0.042649,-0.448000,0.231503,-0.445101,-20.525834,-84.112063,15.680236
04686,603088,8.435292,-0.660175,-0.081303,0.220415,-0.518695,0.004602,-0.448527,0.230941,-0.443627,-21.474948,-84.389340,16.759621
04687,603188,7.958477,-0.756170,0.239162,0.352396,-0.505749,-0.036291,-0.445565,0.231319,-0.442101,-22.189393,-84.666844,17.678725
04688,603288,7.517627,-0.791768,0.472095,0.443136,-0.419763,-0.066037,-0.445588,0.234237,-0.440450,-22.547660,-84.904436,18.292013
04689,603388,7.366284,-0.816846,0.460590,0.517505,-0.293530,-0.079224,-0.443084,0.231256,-0.441601,-22.500206,-85.077958,18.540623
04690,603488,7.479255,-0.803410,0.229992,0.589472,-0.146363,-0.077368,-0.439098,0.231691,-0.441574,-22.046349,-85.173142,18.422704
04691,603588,7.891623,-0.805452,-0.030240,0.638929,-0.017979,-0.066530,-0.438175,0.232479,-0.437525,-21.296939,-85.197569,18.036645
04692,603688,8.561084,-0.706773,-0.051409,0.642849,0.085655,-0.056389,-0.439121,0.234608,-0.439923,-20.355514,-85.163957,17.460146
04693,603788,9.205763,-0.569482,0.030472,0.557766,0.165004,-0.050288,-0.441084,0.235210,-0.441397,-19.333959,-85.085575,16.754251
04694,603888,9.887464,-0.458599,0.174328,0.401792,0.203437,-0.040459,-0.442033,0.236343,-0.443846,-18.409418,-84.983533,16.055930
04695,603988,10.517771,-0.236012,0.338457,0.187537,0.229562,-0.019129,-0.441031,0.233860,-0.444472,-17.717799,-84.862635,15.468073
04696,604088,11.046094,0.078011,0.396253,-0.022328,0.241054,0.005040,-0.444433,0.234630,-0.448946,-17.296869,-84.730800,15.031138
04697,604188,11.343337,0.342441,0.279933,-0.157964,0.236087,0.016710,-0.449907,0.232749,-0.449549,-17.050031,-84.599491,14.690863
04698,604288,11.258707,0.519437,0.041203,-0.213162,0.210159,0.005399,-0.450804,0.231534,-0.455124,-16.828487,-84.484164,14.344097
04699,604388,10.776721,0.411093,-0.196152,-0.222783,0.151939,-0.023137,-0.455742,0.229741,-0.457726,-16.561046,-84.405359,13.945564
04700,604488,10.243347,0.150650,-0.095854,-0.203436,0.077391,-0.055987,-0.458190,0.227410,-0.460352,-16.229582,-84.372654,13.493759
04701,604588,9.746582,-0.113923,0.180780,-0.180204,0.006298,-0.092480,-0.461671,0.225496,-0.460955,-15.797847,-84.384584,12.954541
04702,604688,9.398949,-0.315727,0.509574,-0.150569,-0.042654,-0.129413,-0.464658,0.226540,-0.460905,-15.213741,-84.428733,12.279306
04703,604788,9.143402,-0.482435,0.834550,-0.126357,-0.051528,-0.159517,-0.464062,0.224306,-0.466530,-14.446222,-84.481434,11.433800
04704,604888,8.886514,-0.577258,0.895634,-0.113338,-0.047651,-0.179825,-0.464525,0.223414,-0.468580,-13.532247,-84.533587,10.448752
04705,604988,8.658068,-0.610425,0.895396,-0.109976,-0.048706,-0.184295,-0.466546,0.222875,-0.467107,-12.573401,-84.585358,9.420673
04706,605088,8.448911,-0.581266,0.892429,-0.123098,-0.064734,-0.175823,-0.466544,0.223871,-0.467056,-11.673654,-84.643499,8.444521
04707,605188,8.389310,-0.542339,0.916735,-0.136626,-0.076574,-0.158580,-0.465546,0.224852,-0.467005,-10.879786,-84.704998,7.567043
04708,605288,8.525735,-0.455793,0.852894,-0.148762,-0.079681,-0.134282,-0.466049,0.222369,-0.467132,-10.226504,-84.764663,6.823868
04709,605388,8.725053,-0.333728,0.798225,-0.153684,-0.072225,-0.111347,-0.469530,0.225414,-0.466980,-9.695203,-84.817137,6.200428
04710,605488,8.836435,-0.223839,0.776854,-0.163125,-0.064831,-0.097493,-0.470538,0.229367,-0.465778,-9.237356,-84.863637,5.645366
04711,605588,8.958532,-0.208507,0.783980,-0.184485,-0.057678,-0.091954,-0.475021,0.229438,-0.465780,-8.810822,-84.905203,5.109500
04712,605688,9.051255,-0.257895,0.745676,-0.209262,-0.050666,-0.086471,-0.476552,0.229864,-0.463755,-8.419242,-84.941985,4.594516
04713,605788,9.089485,-0.350549,0.662164,-0.230336,-0.046839,-0.082750,-0.477027,0.232411,-0.464628,-8.053770,-84.975990,4.093662
04714,605888,9.007976,-0.449162,0.581305,-0.232564,-0.054277,-0.079522,-0.484986,0.233558,-0.465079,-7.711245,-85.013691,3.614604
04715,605988,8.900529,-0.512929,0.612297,-0.220883,-0.073833,-0.083006,-0.485457,0.238098,-0.465851,-7.349364,-85.062504,3.122888
04716,606088,8.803530,-0.558947,0.740807,-0.206550,-0.088424,-0.089257,-0.489440,0.239158,-0.465801,-6.940940,-85.119769,2.592767
04717,606188,8.710351,-0.608185,0.910896,-0.184578,-0.090678,-0.089511,-0.489936,0.240660,-0.465725,-6.508829,-85.177998,2.051586
04718,606288,8.658624,-0.623986,0.992647,-0.154154,-0.071935,-0.083731,-0.491923,0.238723,-0.466327,-6.073393,-85.224837,1.524641
04719,606388,8.733670,-0.604849,1.047602,-0.127130,-0.065222,-0.075091,-0.494412,0.239261,-0.466302,-5.667970,-85.267015,1.043419
04720,606488,8.942086,-0.569400,1.088527,-0.114623,-0.066327,-0.065652,-0.497925,0.240738,-0.464728,-5.313817,-85.309036,0.620895
04721,606588,9.280353,-0.519709,1.155352,-0.107415,-0.062952,-0.061213,-0.498420,0.242241,-0.464652,-4.977689,-85.348688,0.220658
04722,606688,9.553016,-0.501266,1.211481,-0.096046,-0.052371,-0.056444,-0.499392,0.240337,-0.466253,-4.656466,-85.381878,-0.158035
04723,606788,9.672004,-0.530892,1.308414,-0.082217,-0.036963,-0.056747,-0.500895,0.240336,-0.465754,-4.311926,-85.406095,-0.552120
04724,606888,9.730226,-0.612337,1.402755,-0.056970,-0.031422,-0.058198,-0.499400,0.240811,-0.465728,-3.935966,-85.427001,-0.963160
04725,606988,9.802095,-0.719910,1.509321,-0.025213,-0.029398,-0.058391,-0.499897,0.241815,-0.465677,-3.535981,-85.446526,-1.379987
04726,607088,9.850346,-0.784919,1.631081,0.004002,-0.019086,-0.061601,-0.501910,0.240802,-0.464729,-3.088652,-85.460005,-1.827454
04727,607188,9.776551,-0.826779,1.656006,0.034257,-0.002462,-0.067049,-0.500929,0.237274,-0.464407,-2.576622,-85.463819,-2.322374
04728,607288,9.582600,-0.728570,1.721789,0.058103,0.012639,-0.076185,-0.500852,0.238464,-0.468354,-1.980415,-85.458809,-2.887978
04729,607388,9.428682,-0.538336,1.851789,0.067933,0.029687,-0.084802,-0.501390,0.236880,-0.466431,-1.315063,-85.443674,-3.517258
04730,607488,9.355956,-0.327494,2.033985,0.075603,0.044737,-0.094248,-0.501459,0.234719,-0.463034,-0.580925,-85.419387,-4.211113
04731,607588,9.358686,-0.191254,2.129624,0.080269,0.059045,-0.106303,-0.503370,0.233971,-0.467584,0.233576,-85.386166,-4.982902
04732,607688,9.353943,-0.139359,2.120665,0.089609,0.068524,-0.107972,-0.501901,0.229913,-0.466787,1.052460,-85.346615,-5.753725
04733,607788,9.311504,-0.169762,1.972790,0.110886,0.066442,-0.110018,-0.502345,0.229069,-0.469837,1.884655,-85.307323,-6.525687
04734,607888,9.268898,-0.304183,1.678729,0.152309,0.045339,-0.107810,-0.500403,0.226426,-0.467465,2.718536,-85.279246,-7.275533
04735,607988,9.291757,-0.506714,1.496236,0.209080,0.018109,-0.104718,-0.502407,0.225437,-0.467016,3.565479,-85.265941,-8.005833
04736,608088,9.365689,-0.693019,1.388448,0.267200,-0.002589,-0.098983,-0.501883,0.224505,-0.468566,4.412375,-85.263803,-8.702637
04737,608188,9.518312,-0.853065,1.389989,0.309282,-0.011894,-0.090176,-0.505888,0.218565,-0.468372,5.227578,-85.266563,-9.343396
04738,608288,9.710351,-0.861233,1.666457,0.330844,-0.010947,-0.078917,-0.506371,0.216130,-0.469499,5.977563,-85.268685,-9.906260
04739,608388,9.952021,-0.652101,2.179678,0.319921,0.012218,-0.069587,-0.502378,0.215593,-0.470023,6.639215,-85.257620,-10.386717
04740,608488,10.161863,-0.325680,2.798143,0.279459,0.058425,-0.067754,-0.500437,0.212950,-0.467651,7.222812,-85.219955,-10.812079
04741,608588,10.327455,0.172953,3.294416,0.213224,0.121236,-0.070775,-0.503388,0.213094,-0.469651,7.724065,-85.146031,-11.192886
04742,608688,10.402306,0.734392,3.581187,0.132685,0.187859,-0.085307,-0.498906,0.207068,-0.470454,8.199023,-85.032858,-11.593652
04743,608788,10.375167,1.064227,3.640434,0.052854,0.241258,-0.108840,-0.505343,0.208263,-0.472404,8.707183,-84.887129,-12.073741
04744,608888,10.204180,1.157339,3.554448,-0.014080,0.259582,-0.131985,-0.502880,0.203193,-0.471658,9.273973,-84.728548,-12.651325
04745,608988,9.944144,1.016971,3.377011,-0.058395,0.231154,-0.148543,-0.505325,0.202855,-0.474183,9.910187,-84.583887,-13.324278
04746,609088,9.671317,0.576682,3.196712,-0.063872,0.155853,-0.151970,-0.505875,0.199753,-0.471837,10.610764,-84.480595,-14.065161
04747,609188,9.515907,-0.040158,3.062120,-0.015467,0.066402,-0.152485,-0.506335,0.199857,-0.473836,11.418255,-84.426620,-14.885653
04748,609288,9.435241,-0.589974,3.039914,0.052148,0.007941,-0.150200,-0.508871,0.200773,-0.471287,12.307837,-84.404515,-15.749689
04749,609388,9.409834,-0.982707,3.113082,0.111379,-0.015181,-0.144214,-0.512866,0.200314,-0.470814,13.220840,-84.394756,-16.603099
04750,609488,9.485034,-1.177808,3.200068,0.141760,-0.000816,-0.132365,-0.513403,0.199229,-0.468866,14.060538,-84.377315,-17.365288
04751,609588,9.812793,-1.141258,3.384324,0.131887,0.066145,-0.123847,-0.513923,0.197196,-0.467968,14.742920,-84.322925,-17.975030
04752,609688,10.394390,-0.761212,3.463697,0.096242,0.194134,-0.120017,-0.517926,0.197709,-0.466944,15.180417,-84.197658,-18.359197
04753,609788,11.150980,-0.152961,3.285045,0.036354,0.356753,-0.121254,-0.517926,0.197709,-0.466944,15.335877,-83.982108,-18.494387
04754,609888,12.074756,0.346813,2.587639,-0.010848,0.491148,-0.101443,-0.517423,0.195234,-0.467571,15.169803,-83.695249,-18.333431
04755,609988,13.054736,0.487036,1.315167,-0.013733,0.535363,-0.035607,-0.519344,0.193964,-0.471646,14.644946,-83.393518,-17.812999
04756,610088,13.827611,0.144064,-0.092575,0.076534,0.463977,0.031362,-0.519336,0.192991,-0.472197,13.990381,-83.140337,-17.109623
04757,610188,14.307862,-0.241248,-1.106579,0.278058,0.304906,0.039761,-0.522842,0.187542,-0.471977,13.631215,-82.976122,-16.587239
04758,610288,14.429346,-0.524463,-1.376731,0.485081,0.152583,0.024595,-0.521793,0.186176,-0.475052,13.638000,-82.894510,-16.313976
04759,610388,13.978314,-0.397450,-1.386572,0.599215,0.033210,-0.003512,-0.523804,0.180703,-0.474832,13.966239,-82.875602,-16.298767
04760,610488,13.192173,-0.164640,-0.955171,0.617440,-0.075933,-0.043028,-0.526781,0.176813,-0.476036,14.603421,-82.911746,-16.584404
04761,610588,12.173604,0.060071,-0.231021,0.572994,-0.178203,-0.055201,-0.526838,0.171212,-0.473816,15.398685,-83.002253,-17.054975
04762,610688,11.130443,0.152538,0.483351,0.486853,-0.263330,-0.027759,-0.528827,0.167780,-0.474495,16.147083,-83.143194,-17.527954
04763,610788,10.499053,0.653206,0.883799,0.391236,-0.283243,-0.021371,-0.530331,0.162323,-0.474775,16.863878,-83.295376,-18.024160
04764,610888,9.646839,0.742634,0.714245,0.255245,-0.230060,0.002629,-0.531365,0.156786,-0.473555,17.336967,-83.421861,-18.353350
04765,610988,8.715418,1.001377,0.180038,0.094504,-0.158022,0.027421,-0.531405,0.155195,-0.471632,17.503441,-83.513008,-18.466601
04766,611088,8.038834,1.181319,-0.625033,-0.066609,-0.094199,0.055213,-0.529426,0.157607,-0.470505,17.348116,-83.574043,-18.348958
04767,611188,7.700068,1.223052,-1.333327,-0.191671,-0.062403,0.083486,-0.527945,0.161022,-0.469327,16.931734,-83.622393,-18.040827
04768,611288,7.818136,1.255850,-1.604733,-0.274666,-0.051104,0.098968,-0.529957,0.160507,-0.468353,16.369023,-83.666804,-17.633431
04769,611388,8.373152,1.172290,-1.432221,-0.299635,-0.038280,0.101285,-0.529998,0.163376,-0.465702,15.755494,-83.704074,-17.189421
04770,611488,9.139130,0.998528,-1.122836,-0.265110,-0.017998,0.079259,-0.527966,0.169894,-0.466870,15.238652,-83.726304,-16.822880
04771,611588,9.821699,0.779892,-0.762937,-0.180760,0.001699,0.048263,-0.530446,0.170954,-0.467320,14.897239,-83.732732,-16.584274
04772,611688,10.217006,0.605873,-0.546041,-0.086746,-0.000073,0.014136,-0.530431,0.173967,-0.467668,14.783862,-83.735041,-16.520931
04773,611788,10.535867,0.431023,-0.347580,0.003272,-0.015960,-0.003116,-0.531955,0.172922,-0.466219,14.830351,-83.743631,-16.566563
04774,611888,10.834407,0.275164,-0.207951,0.080980,-0.025820,-0.011542,-0.535370,0.176634,-0.469541,14.977467,-83.756441,-16.668661
04775,611988,10.851616,0.118439,-0.162438,0.122208,-0.009380,-0.006075,-0.535893,0.173604,-0.468694,15.098628,-83.760949,-16.720901
04776,612088,10.563013,0.024221,-0.089808,0.119586,0.019995,0.003535,-0.537349,0.174223,-0.470669,15.129637,-83.750647,-16.683975
04777,612188,10.133890,-0.080487,0.125822,0.110493,0.032234,0.015656,-0.536386,0.171145,-0.469321,15.077700,-83.735390,-16.568851
04778,612288,9.658354,-0.043586,0.429231,0.099747,0.036591,0.026329,-0.535332,0.172271,-0.472269,14.960477,-83.719293,-16.394235
04779,612388,9.349626,0.124861,0.863742,0.079153,0.038921,0.038774,-0.533368,0.171668,-0.470794,14.766635,-83.703684,-16.154401
04780,612488,9.196772,0.340544,1.176521,0.041840,0.068366,0.044116,-0.535834,0.169787,-0.472396,14.487608,-83.672415,-15.850361
04781,612588,9.033755,0.586435,1.232742,-0.005168,0.125925,0.045290,-0.533848,0.171724,-0.471794,14.106626,-83.609159,-15.470819
04782,612688,8.814016,0.795899,1.111651,-0.047341,0.180343,0.041569,-0.531852,0.168229,-0.472471,13.662253,-83.514820,-15.051761
04783,612788,8.565462,0.910843,0.817407,-0.073566,0.206786,0.038935,-0.529373,0.166671,-0.472047,13.198104,-83.405025,-14.627868
04784,612888,8.377112,0.876246,0.449775,-0.073682,0.198146,0.037985,-0.526824,0.168271,-0.474969,12.762317,-83.299558,-14.232539
04785,612988,8.267271,0.749629,0.271553,-0.059597,0.156384,0.036454,-0.525286,0.166873,-0.477543,12.397739,-83.216941,-13.900746
04786,613088,8.238867,0.525711,0.295104,-0.025910,0.105163,0.036900,-0.529261,0.167458,-0.478019,12.109845,-83.162840,-13.626720
04787,613188,8.275392,0.301338,0.349540,0.012937,0.057522,0.036105,-0.524788,0.166865,-0.477543,11.898785,-83.135206,-13.407652
04788,613288,8.333629,0.184856,0.502829,0.061825,0.004204,0.036388,-0.519856,0.165171,-0.475119,11.767554,-83.137431,-13.240777
04789,613388,8.441418,0.229646,0.721159,0.100882,-0.042249,0.037695,-0.521860,0.169140,-0.473917,11.697259,-83.165834,-13.112747
04790,613488,8.497193,0.301073,0.910775,0.118982,-0.055294,0.039757,-0.518852,0.164182,-0.475669,11.639430,-83.201779,-12.986837
04791,613588,8.433897,0.460801,0.995294,0.128144,-0.057072,0.045031,-0.516362,0.163645,-0.475694,11.562647,-83.239311,-12.836573
04792,613688,8.281286,0.668133,1.038519,0.125940,-0.055826,0.047181,-0.517401,0.160575,-0.473847,11.471912,-83.276362,-12.673557
04793,613788,8.193673,0.929326,1.097938,0.120119,-0.057020,0.043042,-0.514898,0.157096,-0.475024,11.397446,-83.313584,-12.530316
04794,613888,8.279799,1.142827,1.209530,0.107497,-0.051472,0.036946,-0.513405,0.156574,-0.475049,11.338590,-83.346979,-12.410112
04795,613988,8.403515,1.291844,1.310719,0.090167,-0.028374,0.033867,-0.514392,0.156116,-0.475574,11.261625,-83.367030,-12.281713
04796,614088,8.515059,1.326773,1.417131,0.065474,-0.001685,0.037566,-0.515919,0.153576,-0.474203,11.126572,-83.372459,-12.109113
04797,614188,8.642796,1.210869,1.532044,0.041462,0.020056,0.048440,-0.511379,0.154147,-0.477175,10.904582,-83.366786,-11.862866
04798,614288,8.676717,0.974035,1.593575,0.036356,0.017209,0.063009,-0.510915,0.156036,-0.475074,10.612182,-83.364141,-11.548693
04799,614388,8.726633,0.802179,1.654461,0.057204,-0.000387,0.080882,-0.510463,0.155908,-0.472574,10.260814,-83.373058,-11.163138
04800,614488,8.799839,0.700854,1.707109,0.099092,-0.014245,0.095813,-0.511435,0.154501,-0.474150,9.871549,-83.390995,-10.715284
04801,614588,8.790560,0.592966,1.638305,0.138831,-0.010945,0.108578,-0.507967,0.159356,-0.472396,9.437722,-83.407919,-10.199666
04802,614688,8.653584,0.498970,1.467974,0.165289,-0.008160,0.119751,-0.506435,0.159429,-0.474395,8.959659,-83.423817,-9.624273
04803,614788,8.427929,0.427868,1.318837,0.182740,-0.017240,0.126590,-0.504955,0.161848,-0.473267,8.462007,-83.444886,-9.019119
04804,614888,8.249415,0.373240,1.300462,0.197934,-0.037174,0.134957,-0.506437,0.163390,-0.473692,7.941788,-83.477326,-8.382517
04805,614988,8.233952,0.290111,1.385502,0.208086,-0.059105,0.142562,-0.502028,0.163625,-0.469666,7.397791,-83.522124,-7.716171
04806,615088,8.341381,0.187979,1.544650,0.214736,-0.053790,0.154346,-0.503957,0.167787,-0.472462,6.786630,-83.563968,-6.978442
04807,615188,8.673804,0.159321,1.711186,0.211125,-0.014536,0.175584,-0.499482,0.168688,-0.471911,6.035809,-83.583826,-6.102281
04808,615288,9.243371,0.271479,1.780659,0.196516,0.052430,0.201009,-0.498507,0.172087,-0.470233,5.112182,-83.565472,-5.060635
04809,615388,9.753988,0.485936,1.814312,0.165461,0.113813,0.221542,-0.493008,0.173045,-0.471180,4.051264,-83.510978,-3.898650
04810,615488,9.982410,0.756703,1.805524,0.136607,0.125165,0.231999,-0.492061,0.176372,-0.468003,2.937798,-83.447882,-2.700287
04811,615588,10.155408,1.004300,1.932597,0.114597,0.086542,0.230903,-0.491038,0.180889,-0.468774,1.845726,-83.404260,-1.536043
04812,615688,10.297103,1.201476,2.171820,0.101901,0.035911,0.216658,-0.489522,0.182408,-0.469697,0.835255,-83.387006,-0.461216
04813,615788,10.242545,1.325955,2.413148,0.097092,0.004126,0.189179,-0.488008,0.183429,-0.470645,-0.036940,-83.385819,0.471635
04814,615888,10.126921,1.334887,2.610851,0.094390,0.019916,0.157497,-0.486482,0.185470,-0.472042,-0.752549,-83.374215,1.245286
04815,615988,10.036668,1.201433,2.820749,0.095846,0.075536,0.135597,-0.489986,0.186474,-0.470993,-1.350166,-83.329948,1.901020
04816,616088,9.960862,0.926275,2.902472,0.102626,0.148737,0.120542,-0.489979,0.190460,-0.470790,-1.850615,-83.243264,2.462917
04817,616188,9.955759,0.579782,2.887586,0.127863,0.203406,0.116329,-0.492912,0.190652,-0.473789,-2.292473,-83.124818,2.980500
04818,616288,10.193197,0.187284,2.920750,0.170467,0.228895,0.125286,-0.488398,0.192147,-0.475211,-2.729870,-82.991082,3.518344
04819,616388,10.690486,-0.191023,3.075508,0.226487,0.247370,0.150601,-0.494850,0.189831,-0.476840,-3.227915,-82.845487,4.149845
04820,616488,11.432942,-0.421376,3.270918,0.290499,0.292628,0.187146,-0.495869,0.187308,-0.475967,-3.816413,-82.671981,4.909765
04821,616588,12.252020,-0.494327,3.188034,0.343045,0.364215,0.211376,-0.495357,0.189815,-0.476340,-4.424437,-82.455569,5.720116
04822,616688,12.894141,-0.367970,2.909105,0.354178,0.419052,0.213672,-0.497344,0.187878,-0.476942,-4.975759,-82.206680,6.480156
04823,616788,13.399191,0.118659,2.625177,0.309411,0.468624,0.191337,-0.497321,0.184961,-0.478594,-5.402270,-81.929807,7.088765
04824,616888,13.984282,0.732356,2.224303,0.226935,0.502269,0.143438,-0.498802,0.182043,-0.479746,-5.641634,-81.635907,7.460947
04825,616988,14.536124,1.253759,1.467541,0.118291,0.463395,0.081391,-0.501280,0.179142,-0.480899,-5.703642,-81.367555,7.591076
04826,617088,14.512894,1.637581,0.549478,-0.012140,0.351335,0.023664,-0.503211,0.176851,-0.484525,-5.663611,-81.166378,7.542359
04827,617188,13.705640,1.714187,-0.083333,-0.114939,0.209531,-0.049127,-0.511181,0.172019,-0.485282,-5.470965,-81.050111,7.279438
