PacketCounter,SampleTimeFine,Acc_X,Acc_Y,Acc_Z,Gyr_X,Gyr_Y,Gyr_Z,Mag_X,Mag_Y,Mag_Z,Roll,Pitch,Yaw
01344,324109,9.693268,0.376878,0.859739,0.017146,0.033526,-0.058084,-0.476520,-0.025116,-0.314418,8.203953,-83.621957,-8.153860
01345,324209,9.788750,0.350956,0.996423,0.032949,0.029430,-0.056773,-0.475026,-0.025140,-0.314417,8.545526,-83.605737,-8.470234
01346,324309,9.895967,0.347976,1.096898,0.039943,0.033440,-0.056612,-0.477041,-0.027647,-0.313545,8.892466,-83.587839,-8.785937
01347,324409,9.927095,0.287052,1.113042,0.032867,0.038471,-0.054245,-0.473050,-0.024223,-0.313366,9.188053,-83.565084,-9.064717
01348,324509,9.922494,0.288294,1.108035,0.021009,0.044139,-0.053356,-0.475020,-0.027109,-0.315019,9.474019,-83.538414,-9.333967
01349,324609,9.871987,0.338464,1.090592,0.008880,0.050301,-0.055035,-0.475999,-0.027543,-0.316044,9.749729,-83.507574,-9.600162
01350,324709,9.760249,0.427112,1.024922,-0.004194,0.048220,-0.054969,-0.473043,-0.025195,-0.313917,10.002766,-83.477731,-9.859216
01351,324809,9.674179,0.385996,0.930249,-0.011488,0.039447,-0.054003,-0.474537,-0.025172,-0.313917,10.250847,-83.453116,-10.117980
01352,324909,9.735246,0.411867,0.913214,-0.012938,0.020860,-0.054460,-0.473976,-0.026506,-0.317492,10.514812,-83.436797,-10.388771
01353,325009,9.798259,0.354653,1.020817,-0.014184,0.021582,-0.052086,-0.474570,-0.027735,-0.312545,10.769934,-83.422183,-10.654376
01354,325109,9.779548,0.329317,1.039363,-0.014906,0.027431,-0.048057,-0.473538,-0.028651,-0.314595,10.996550,-83.403246,-10.889394
01355,325209,9.735172,0.231131,1.080401,-0.024010,0.038267,-0.044089,-0.476527,-0.029102,-0.314621,11.187532,-83.379238,-11.094054
01356,325309,9.640776,0.308040,1.052957,-0.034543,0.039319,-0.036858,-0.476555,-0.029174,-0.313122,11.334191,-83.355707,-11.261639
01357,325409,9.621757,0.439705,1.019743,-0.042383,0.028984,-0.035983,-0.473044,-0.031150,-0.314722,11.481719,-83.336409,-11.431671
01358,325509,9.676109,0.533515,1.043352,-0.031517,0.007319,-0.038002,-0.473541,-0.030644,-0.314696,11.662711,-83.329083,-11.630503
01359,325609,9.802043,0.567943,1.095512,-0.008231,-0.003092,-0.046045,-0.474056,-0.029688,-0.313646,11.902471,-83.326929,-11.877247
01360,325709,9.916734,0.516834,1.118270,0.018025,-0.002602,-0.059189,-0.473019,-0.032573,-0.316297,12.222044,-83.321648,-12.185626
01361,325809,9.922484,0.333328,1.151802,0.023493,0.007317,-0.069847,-0.472543,-0.029663,-0.314645,12.577336,-83.309814,-12.531221
01362,325909,9.816613,0.165382,1.201569,0.021490,0.014172,-0.075514,-0.472533,-0.034099,-0.315873,12.956076,-83.292683,-12.897717
01363,326009,9.701161,0.139900,1.166632,0.026483,0.014924,-0.075250,-0.472559,-0.033673,-0.314349,13.331488,-83.275318,-13.259891
01364,326109,9.664528,0.168102,1.102457,0.026338,0.016679,-0.078264,-0.471035,-0.032130,-0.315771,13.711624,-83.255846,-13.628220
01365,326209,9.640738,0.112981,1.018755,0.021443,0.015911,-0.075515,-0.471583,-0.034235,-0.313374,14.078415,-83.237449,-13.985652
01366,326309,9.618973,0.015854,0.973189,-0.003231,0.010282,-0.063265,-0.472094,-0.036245,-0.312976,14.380740,-83.223714,-14.291500
01367,326409,9.619512,0.209122,1.030386,-0.005938,0.009668,-0.065549,-0.471620,-0.039290,-0.312129,14.694742,-83.209737,-14.609395
01368,326509,9.682490,0.343080,1.028817,0.012727,0.004736,-0.061843,-0.471638,-0.039338,-0.311129,15.005405,-83.198985,-14.914124
01369,326609,9.753346,0.409706,1.066040,0.025771,-0.005058,-0.054413,-0.471642,-0.041331,-0.311231,15.301104,-83.194408,-15.195663
01370,326709,9.839463,0.409639,1.168077,0.042193,-0.005174,-0.053147,-0.471653,-0.042351,-0.310782,15.599107,-83.189896,-15.470377
01371,326809,9.870559,0.338785,1.205834,0.054713,0.002513,-0.054637,-0.471181,-0.041435,-0.309231,15.897605,-83.180896,-15.739888
01372,326909,9.797110,0.147551,1.200548,0.062331,0.007435,-0.059525,-0.472699,-0.044449,-0.308384,16.216891,-83.168288,-16.025279
01373,327009,9.702367,0.021231,1.144388,0.074742,0.019854,-0.057770,-0.470295,-0.046200,-0.303962,16.516487,-83.149055,-16.284331
01374,327109,9.583387,0.085654,1.124812,0.094105,0.037782,-0.055679,-0.472682,-0.044899,-0.309410,16.786835,-83.119714,-16.503147
01375,327209,9.496294,0.184565,1.057826,0.105124,0.026595,-0.056067,-0.469775,-0.049623,-0.305639,17.080050,-83.096318,-16.738281
01376,327309,9.567754,0.324865,1.021141,0.111217,0.016832,-0.058198,-0.472746,-0.050026,-0.306665,17.396458,-83.077769,-16.993783
01377,327409,9.643078,0.421313,1.000348,0.112167,0.014840,-0.064220,-0.474289,-0.051119,-0.304217,17.741137,-83.059147,-17.277514
01378,327509,9.663920,0.457245,1.038212,0.104626,-0.008624,-0.057222,-0.472802,-0.055129,-0.304420,18.082545,-83.054198,-17.562185
01379,327609,9.767414,0.490366,1.113589,0.098513,-0.016287,-0.049020,-0.472370,-0.056302,-0.300972,18.394313,-83.054726,-17.820733
01380,327709,9.739166,0.537890,1.083201,0.102268,0.000231,-0.044069,-0.475841,-0.057194,-0.302023,18.661122,-83.047005,-18.031888
01381,327809,9.651634,0.571920,0.948961,0.110172,0.018762,-0.047255,-0.476388,-0.059300,-0.299626,18.917984,-83.028528,-18.228473
01382,327909,9.589076,0.630293,0.934647,0.112288,0.021118,-0.052158,-0.472897,-0.061822,-0.300252,19.192921,-83.007726,-18.442063
01383,328009,9.637606,0.668944,1.043894,0.117704,0.021059,-0.054682,-0.471947,-0.061959,-0.297753,19.480734,-82.986361,-18.665537
01384,328109,9.634768,0.677085,1.055909,0.121488,0.007297,-0.048804,-0.473928,-0.060408,-0.298177,19.765095,-82.973414,-18.883370
01385,328209,9.643734,0.643560,1.049063,0.117585,-0.016692,-0.036321,-0.474439,-0.062418,-0.297779,20.030050,-82.975694,-19.083894
01386,328309,9.727033,0.565258,1.139714,0.114174,-0.027657,-0.023685,-0.475387,-0.061285,-0.300227,20.255661,-82.986253,-19.246753
01387,328409,9.736751,0.461802,1.159046,0.125320,-0.021420,-0.021137,-0.471420,-0.060898,-0.299201,20.466923,-82.993891,-19.388714
01388,328509,9.686097,0.509423,1.116258,0.141345,-0.014372,-0.033172,-0.472944,-0.062441,-0.297778,20.728690,-82.995253,-19.572302
01389,328609,9.657057,0.616952,1.054173,0.145667,-0.008017,-0.050045,-0.471856,-0.062714,-0.302801,21.055866,-82.989642,-19.819303
01390,328709,9.601231,0.746157,1.025680,0.135305,-0.000881,-0.060088,-0.470918,-0.059411,-0.299125,21.408181,-82.977963,-20.097633
01391,328809,9.577155,0.872500,0.999388,0.105256,-0.001195,-0.061725,-0.465380,-0.062319,-0.302774,21.750035,-82.965884,-20.382768
01392,328909,9.620691,0.925340,0.984835,0.066243,-0.021160,-0.052112,-0.463339,-0.056275,-0.304468,22.062039,-82.966275,-20.660390
01393,329009,9.694336,0.872830,1.020832,0.038073,-0.047823,-0.037369,-0.462790,-0.053671,-0.306839,22.341829,-82.983819,-20.921810
01394,329109,9.760428,0.759615,1.067433,0.026034,-0.067649,-0.019773,-0.460306,-0.052240,-0.306263,22.575857,-83.015563,-21.144062
01395,329209,9.814156,0.651799,1.037315,0.026403,-0.078598,-0.013686,-0.459225,-0.046085,-0.309956,22.805681,-83.054323,-21.361887
01396,329309,9.761358,0.461162,1.029860,0.029098,-0.075210,-0.007935,-0.459756,-0.043682,-0.307830,23.008290,-83.092493,-21.550709
01397,329409,9.829047,0.289184,1.070171,0.030661,-0.057690,-0.010355,-0.464204,-0.045009,-0.309907,23.191684,-83.120808,-21.719218
01398,329509,9.735668,0.144753,1.045799,0.037049,-0.030442,-0.005874,-0.466727,-0.042077,-0.307756,23.308894,-83.135769,-21.817415
01399,329609,9.639262,0.232237,0.926411,0.052815,-0.026938,-0.005922,-0.470680,-0.039948,-0.309155,23.428984,-83.148859,-21.909422
01400,329709,9.589779,0.328523,0.852570,0.061623,-0.030270,-0.006211,-0.473776,-0.042657,-0.303785,23.562455,-83.163656,-22.009725
01401,329809,9.611579,0.422930,0.889277,0.066784,-0.043096,-0.007939,-0.476776,-0.043630,-0.303337,23.731583,-83.184750,-22.142958
01402,329909,9.640734,0.594974,0.974264,0.072406,-0.063128,-0.014065,-0.481741,-0.040040,-0.303660,23.970569,-83.214881,-22.343430
01403,330009,9.829501,0.712607,1.075284,0.078137,-0.076122,-0.020608,-0.481761,-0.040586,-0.302686,24.269641,-83.250130,-22.601026
01404,330109,10.010436,0.695747,1.081139,0.087402,-0.068949,-0.024351,-0.484740,-0.040514,-0.303187,24.579039,-83.280578,-22.863655
01405,330209,10.074442,0.622491,1.043220,0.096612,-0.047605,-0.024612,-0.479745,-0.038078,-0.303558,24.853337,-83.299648,-23.085692
01406,330309,10.038866,0.559051,0.976098,0.097429,-0.027119,-0.021297,-0.480249,-0.041059,-0.303711,25.072859,-83.308766,-23.251946
01407,330409,9.889161,0.474774,0.980666,0.078027,-0.002481,-0.018166,-0.477723,-0.037041,-0.305006,25.215958,-83.305805,-23.352637
01408,330509,9.684057,0.416004,0.922781,0.048058,0.013135,-0.005019,-0.476712,-0.034043,-0.305353,25.251052,-83.297968,-23.361942
01409,330609,9.632594,0.540841,0.817734,0.025365,0.008222,0.006111,-0.476178,-0.029495,-0.306624,25.233970,-83.295414,-23.331917
01410,330709,9.630207,0.787178,0.823901,0.013428,-0.019865,0.010491,-0.476131,-0.028876,-0.309098,25.249519,-83.308449,-23.341515
01411,330809,9.574727,0.948682,0.842915,0.013761,-0.051102,0.006885,-0.476682,-0.027518,-0.306023,25.347261,-83.336850,-23.433658
01412,330909,9.612059,1.037717,0.893394,0.020687,-0.077940,0.001428,-0.475081,-0.024786,-0.311393,25.530751,-83.377652,-23.608166
01413,331009,9.674356,0.951109,0.941470,0.024560,-0.081578,-0.005076,-0.477587,-0.022802,-0.310293,25.756166,-83.418717,-23.822624
01414,331109,9.659582,0.748348,0.979884,0.016991,-0.064561,-0.009869,-0.478060,-0.019258,-0.311115,25.964322,-83.449710,-24.024079
01415,331209,9.575745,0.455952,0.953234,0.009284,-0.047964,-0.010669,-0.478539,-0.018704,-0.312089,26.137200,-83.471868,-24.194333
01416,331309,9.567597,0.279388,0.899765,0.009030,-0.039922,-0.007821,-0.482497,-0.019066,-0.313615,26.280475,-83.490575,-24.334857
01417,331409,9.592486,0.273592,0.844028,0.000151,-0.034369,-0.000994,-0.483504,-0.015113,-0.312412,26.376023,-83.508154,-24.432508
01418,331509,9.595424,0.450155,0.776549,-0.018168,-0.038220,0.008166,-0.485478,-0.015033,-0.313413,26.428918,-83.530023,-24.497731
01419,331609,9.681449,0.716050,0.701474,-0.036617,-0.052112,0.018120,-0.487480,-0.015026,-0.312913,26.457998,-83.561560,-24.549622
01420,331709,9.729537,0.891237,0.640312,-0.050404,-0.075374,0.026467,-0.488463,-0.012993,-0.313312,26.494600,-83.607156,-24.617048
01421,331809,9.745896,0.889858,0.700424,-0.065620,-0.097050,0.033133,-0.489926,-0.010904,-0.314710,26.542623,-83.665563,-24.704739
01422,331909,9.831658,0.790308,0.803550,-0.068885,-0.111962,0.035738,-0.493891,-0.009796,-0.315660,26.612871,-83.732267,-24.816667
01423,332009,9.902110,0.648576,0.915588,-0.059384,-0.118003,0.035418,-0.493377,-0.006292,-0.315982,26.706399,-83.801958,-24.946529
01424,332109,9.945180,0.499090,0.968377,-0.041316,-0.114919,0.032352,-0.496313,-0.002637,-0.318304,26.819987,-83.869251,-25.086136
01425,332209,9.899108,0.437786,0.954746,-0.023784,-0.101757,0.029582,-0.496774,-0.002533,-0.320303,26.927563,-83.929069,-25.209573
01426,332309,9.793478,0.364390,0.877238,-0.020139,-0.078514,0.026371,-0.495293,0.000385,-0.319151,26.997567,-83.976166,-25.293113
01427,332409,9.598004,0.301736,0.810793,-0.037972,-0.054666,0.021769,-0.495736,0.004997,-0.321422,27.021510,-84.009891,-25.340602
01428,332509,9.456479,0.460104,0.760889,-0.064335,-0.052308,0.019324,-0.493675,0.007625,-0.324793,27.036752,-84.041777,-25.394526
01429,332609,9.573065,0.863250,0.692040,-0.072888,-0.054641,0.026180,-0.493608,0.008790,-0.328240,27.019811,-84.076634,-25.421028
01430,332709,9.731246,1.154535,0.675594,-0.086205,-0.076041,0.032979,-0.489065,0.010857,-0.331136,27.016044,-84.124173,-25.468460
01431,332809,9.887909,1.195592,0.662003,-0.114206,-0.093197,0.039701,-0.488521,0.015927,-0.332881,27.007092,-84.182206,-25.526824
01432,332909,9.979570,1.100797,0.742443,-0.144931,-0.083465,0.042090,-0.486970,0.021504,-0.335100,26.944092,-84.235881,-25.548567
01433,333009,9.872177,0.789897,0.800165,-0.158329,-0.072656,0.039937,-0.483311,0.029830,-0.343190,26.856116,-84.283468,-25.552930
01434,333109,9.782658,0.560275,0.817470,-0.153499,-0.067706,0.042655,-0.484724,0.034033,-0.346985,26.743352,-84.329220,-25.529603
01435,333209,9.741307,0.367404,0.795918,-0.135994,-0.062570,0.042684,-0.481189,0.040052,-0.348679,26.625905,-84.372347,-25.491490
01436,333309,9.698097,0.220422,0.709659,-0.115589,-0.062253,0.040484,-0.479130,0.046144,-0.351372,26.529545,-84.414748,-25.462817
01437,333409,9.745196,0.143296,0.703601,-0.093696,-0.058194,0.034313,-0.477121,0.050122,-0.351668,26.466544,-84.453498,-25.455053
01438,333509,9.740168,0.095376,0.784354,-0.078690,-0.049393,0.030438,-0.474981,0.054936,-0.358936,26.408773,-84.486752,-25.443897
01439,333609,9.661655,0.138435,0.776723,-0.071806,-0.035528,0.030422,-0.469445,0.060450,-0.361154,26.317672,-84.512889,-25.395287
01440,333709,9.575653,0.290224,0.681394,-0.074900,-0.043863,0.032443,-0.463847,0.065136,-0.366921,26.235266,-84.543821,-25.357192
01441,333809,9.608802,0.499151,0.683903,-0.075503,-0.067107,0.037956,-0.458881,0.071960,-0.365064,26.183930,-84.588093,-25.350659
01442,333909,9.761869,0.718822,0.681396,-0.068413,-0.090509,0.041085,-0.452286,0.076132,-0.370857,26.182240,-84.645183,-25.389921
01443,334009,9.943779,0.811576,0.699707,-0.058731,-0.102703,0.045021,-0.448254,0.081645,-0.372575,26.198196,-84.709531,-25.441341
01444,334109,10.055974,0.781612,0.732840,-0.057660,-0.095158,0.043832,-0.442235,0.084636,-0.374420,26.201576,-84.769690,-25.479520
01445,334209,10.055892,0.615195,0.739636,-0.065512,-0.066700,0.037190,-0.434247,0.089516,-0.374664,26.159232,-84.813534,-25.476305
01446,334309,9.911828,0.356996,0.744780,-0.081556,-0.031764,0.033204,-0.430224,0.095006,-0.375882,26.032292,-84.838398,-25.397375
01447,334409,9.783355,0.321799,0.677851,-0.098516,-0.016230,0.026932,-0.420705,0.099460,-0.378150,25.887216,-84.853673,-25.309994
01448,334509,9.716133,0.385127,0.608047,-0.116779,-0.022141,0.019598,-0.415174,0.102483,-0.380495,25.789508,-84.870153,-25.280679
01449,334609,9.661337,0.485340,0.553124,-0.122672,-0.036553,0.017946,-0.410271,0.105176,-0.375842,25.737721,-84.893660,-25.300864
01450,334709,9.645856,0.582355,0.515134,-0.113543,-0.050978,0.024575,-0.404210,0.110256,-0.379585,25.693027,-84.926265,-25.322923
01451,334809,9.663091,0.570965,0.554195,-0.097151,-0.058855,0.027596,-0.397328,0.110902,-0.374534,25.662215,-84.963692,-25.349495
01452,334909,9.782492,0.504778,0.601580,-0.083688,-0.059606,0.029965,-0.390821,0.112864,-0.375930,25.627314,-85.002096,-25.364222
01453,335009,9.846368,0.422329,0.678491,-0.072813,-0.053873,0.032862,-0.385426,0.112561,-0.371430,25.564895,-85.038256,-25.345071
01454,335109,9.817811,0.326143,0.744838,-0.067855,-0.036381,0.034817,-0.376032,0.114709,-0.367301,25.442895,-85.065849,-25.263264
01455,335209,9.797019,0.335846,0.701192,-0.073103,-0.021550,0.033271,-0.371138,0.112420,-0.362903,25.283679,-85.085367,-25.147121
01456,335309,9.881288,0.466030,0.648644,-0.088754,-0.015609,0.031824,-0.364167,0.110317,-0.363003,25.106291,-85.101422,-25.021745
01457,335409,9.884088,0.583932,0.607119,-0.098078,-0.022484,0.033109,-0.361739,0.112101,-0.359402,24.934325,-85.121323,-24.907181
01458,335509,9.841229,0.660461,0.585568,-0.101263,-0.030555,0.030913,-0.355886,0.109701,-0.353004,24.795807,-85.144862,-24.828029
01459,335609,9.796767,0.683583,0.602807,-0.098084,-0.038586,0.028126,-0.347041,0.109245,-0.346504,24.698175,-85.171892,-24.788094
01460,335709,9.806403,0.630378,0.648418,-0.088493,-0.040517,0.021499,-0.345119,0.106055,-0.343157,24.651995,-85.198332,-24.794286
01461,335809,9.836648,0.546778,0.663717,-0.079731,-0.041125,0.012645,-0.345707,0.107317,-0.338083,24.667622,-85.222968,-24.857467
01462,335909,9.861685,0.407279,0.692724,-0.069642,-0.036867,0.007910,-0.340328,0.103004,-0.333286,24.706794,-85.244249,-24.938472
01463,336009,9.857937,0.285399,0.687915,-0.063652,-0.025667,0.006184,-0.334526,0.097991,-0.324517,24.728253,-85.259286,-24.998253
01464,336109,9.850932,0.213421,0.697187,-0.064965,-0.021799,0.007244,-0.332579,0.098835,-0.321966,24.731165,-85.272565,-25.040172
01465,336209,9.790680,0.173975,0.694821,-0.072113,-0.015821,0.008611,-0.329712,0.097479,-0.315519,24.703927,-85.283064,-25.055941
01466,336309,9.745251,0.183540,0.669641,-0.082455,-0.015857,0.011831,-0.327401,0.090529,-0.306852,24.650313,-85.294356,-25.051183
01467,336409,9.711423,0.271642,0.626680,-0.090348,-0.018925,0.015276,-0.327949,0.088423,-0.304454,24.578998,-85.308072,-25.033199
01468,336509,9.684732,0.339926,0.602058,-0.088687,-0.028532,0.021180,-0.325619,0.082020,-0.296762,24.498648,-85.328199,-25.005195
01469,336609,9.690260,0.401777,0.636950,-0.082036,-0.036935,0.026716,-0.327210,0.079312,-0.291891,24.410632,-85.354018,-24.965677
01470,336709,9.721837,0.454251,0.677781,-0.073233,-0.039143,0.027057,-0.328335,0.075028,-0.285597,24.331237,-85.381061,-24.929750
01471,336809,9.746463,0.447535,0.636013,-0.060705,-0.035548,0.026873,-0.332467,0.070246,-0.278330,24.249042,-85.406176,-24.883818
01472,336909,9.759049,0.352159,0.610047,-0.055306,-0.033772,0.025188,-0.331619,0.064887,-0.271086,24.175020,-85.429963,-24.842982
01473,337009,9.738685,0.270075,0.585832,-0.058268,-0.032930,0.026717,-0.332784,0.058515,-0.262895,24.086081,-85.453668,-24.788884
01474,337109,9.742378,0.273140,0.579259,-0.065121,-0.044223,0.031329,-0.338333,0.055942,-0.259525,23.995157,-85.484357,-24.736733
01475,337209,9.799325,0.373077,0.566467,-0.072598,-0.052483,0.034843,-0.338977,0.052101,-0.252206,23.899955,-85.520183,-24.684592
01476,337309,9.822980,0.485782,0.569964,-0.073092,-0.053134,0.034623,-0.342585,0.046885,-0.246463,23.806788,-85.556291,-24.634783
01477,337409,9.813782,0.640532,0.567783,-0.072922,-0.056122,0.032653,-0.345165,0.043718,-0.242118,23.735090,-85.593500,-24.606421
01478,337509,9.804207,0.616680,0.604389,-0.070456,-0.058825,0.027048,-0.349212,0.040149,-0.239298,23.710757,-85.630827,-24.624155
01479,337609,9.759463,0.574904,0.632248,-0.064497,-0.054181,0.019523,-0.349280,0.037988,-0.235901,23.727883,-85.663975,-24.680049
01480,337709,9.723772,0.525633,0.656932,-0.061170,-0.052485,0.011720,-0.352824,0.037400,-0.232929,23.796716,-85.694422,-24.785888
01481,337809,9.714578,0.414478,0.688818,-0.057526,-0.055536,0.004270,-0.355375,0.034805,-0.230058,23.930552,-85.724719,-24.954815
01482,337909,9.772957,0.352831,0.692177,-0.048530,-0.058097,0.001154,-0.357923,0.033703,-0.227111,24.101694,-85.755592,-25.155974
01483,338009,9.802913,0.395333,0.648865,-0.034131,-0.050690,-0.002128,-0.358477,0.033566,-0.224112,24.283390,-85.781772,-25.359437
01484,338109,9.735739,0.389423,0.554267,-0.033227,-0.048533,-0.004996,-0.358437,0.035157,-0.226035,24.481425,-85.806098,-25.578758
01485,338209,9.707461,0.352578,0.525293,-0.046681,-0.056390,-0.001037,-0.360934,0.031709,-0.226214,24.671670,-85.835410,-25.797991
01486,338309,9.806393,0.329342,0.593431,-0.064647,-0.067194,0.003922,-0.361441,0.037150,-0.224935,24.854789,-85.871479,-26.020388
01487,338409,9.872355,0.285459,0.688842,-0.071502,-0.070352,0.014430,-0.359943,0.039119,-0.224833,24.971829,-85.911680,-26.180461
01488,338509,9.924007,0.345956,0.744437,-0.074295,-0.066759,0.024945,-0.359965,0.037078,-0.223935,25.000480,-85.952534,-26.253516
01489,338609,9.847970,0.433098,0.628418,-0.066861,-0.061648,0.031937,-0.358489,0.042462,-0.222156,24.964957,-85.992421,-26.257967
01490,338709,9.736653,0.430776,0.457103,-0.059439,-0.062743,0.030840,-0.360454,0.042068,-0.223681,24.945505,-86.032612,-26.274267
01491,338809,9.690591,0.357543,0.413673,-0.051674,-0.067746,0.025985,-0.361973,0.044012,-0.222080,24.984887,-86.074233,-26.345084
01492,338909,9.642024,0.298755,0.450408,-0.047432,-0.081966,0.023762,-0.361939,0.047572,-0.223402,25.095762,-86.122695,-26.485121
01493,339009,9.624256,0.291497,0.442535,-0.049661,-0.110246,0.024081,-0.364003,0.048906,-0.219328,25.309576,-86.185873,-26.729600
01494,339109,9.661627,0.352271,0.500590,-0.055184,-0.150936,0.023729,-0.362486,0.051421,-0.220200,25.684881,-86.269922,-27.139072
01495,339209,9.768729,0.403442,0.686277,-0.051380,-0.171734,0.023905,-0.362474,0.052940,-0.220623,26.161467,-86.364518,-27.647811
01496,339309,9.841201,0.441876,0.729693,-0.034505,-0.163976,0.020254,-0.365556,0.052747,-0.215626,26.672016,-86.453903,-28.180841
01497,339409,9.855747,0.512553,0.593315,-0.013609,-0.144921,0.014521,-0.368555,0.052272,-0.215153,27.187453,-86.531753,-28.706732
01498,339509,9.738091,0.603818,0.398898,0.006184,-0.124727,0.002606,-0.368165,0.053470,-0.209079,27.749493,-86.595878,-29.267919
01499,339609,9.531016,0.627721,0.250900,0.017789,-0.115261,-0.012416,-0.370673,0.054457,-0.208029,28.425521,-86.650800,-29.936607
01500,339709,9.423537,0.551183,0.175441,0.016098,-0.125293,-0.027681,-0.367716,0.052345,-0.206631,29.304505,-86.706001,-30.809537
01501,339809,9.536919,0.468545,0.234591,0.007189,-0.145537,-0.032299,-0.370217,0.056820,-0.205403,30.352021,-86.769097,-31.856340
01502,339909,9.711854,0.361692,0.398909,-0.009463,-0.164126,-0.026389,-0.373251,0.057744,-0.202854,31.479507,-86.841929,-32.992725
01503,340009,9.878390,0.323247,0.554236,-0.032389,-0.178180,-0.010505,-0.375250,0.059246,-0.202279,32.584740,-86.925162,-34.119892
01504,340109,9.985407,0.304395,0.609915,-0.048285,-0.179989,0.009198,-0.375789,0.062123,-0.199628,33.573223,-87.014282,-35.139172
01505,340209,10.081887,0.299533,0.556711,-0.058505,-0.176439,0.026375,-0.375260,0.064180,-0.201025,34.433873,-87.106332,-36.036229
01506,340309,10.043048,0.350367,0.476518,-0.067196,-0.164799,0.034548,-0.377285,0.066606,-0.198900,35.190102,-87.194914,-36.833649
01507,340409,9.887007,0.404447,0.445570,-0.064385,-0.153083,0.034334,-0.375792,0.071043,-0.198171,35.917464,-87.277435,-37.600500
01508,340509,9.779561,0.426657,0.386406,-0.061641,-0.149080,0.031167,-0.375224,0.079151,-0.200763,36.694752,-87.356534,-38.415711
01509,340609,9.700186,0.403702,0.282310,-0.060755,-0.141674,0.023655,-0.375203,0.085652,-0.200933,37.539943,-87.429101,-39.298341
01510,340709,9.666162,0.400916,0.233437,-0.077630,-0.127515,0.025398,-0.373148,0.089751,-0.203728,38.292129,-87.495314,-40.097508
01511,340809,9.679937,0.479543,0.181812,-0.092819,-0.118892,0.033321,-0.372037,0.096477,-0.208895,38.921832,-87.560064,-40.782756
01512,340909,9.751141,0.608587,0.163106,-0.096364,-0.137492,0.038335,-0.367981,0.105028,-0.211461,39.696476,-87.634505,-41.615081
01513,341009,9.881318,0.700747,0.233679,-0.090411,-0.165090,0.040787,-0.367377,0.112734,-0.216077,40.758515,-87.721345,-42.731589
01514,341109,9.970823,0.692763,0.330903,-0.080803,-0.180987,0.043624,-0.365244,0.123977,-0.222015,42.040114,-87.815131,-44.062257
01515,341209,9.974349,0.614770,0.378351,-0.079045,-0.181912,0.039705,-0.364716,0.130494,-0.222684,43.493717,-87.906502,-45.563970
01516,341309,9.906072,0.498041,0.365947,-0.072638,-0.173868,0.035620,-0.364511,0.141439,-0.232147,45.038686,-87.991427,-47.153353
01517,341409,9.809701,0.333042,0.341869,-0.069603,-0.165938,0.026550,-0.363443,0.150535,-0.234689,46.729580,-88.067811,-48.886932
01518,341509,9.726535,0.154655,0.289011,-0.070180,-0.160828,0.023771,-0.364262,0.161922,-0.242626,48.523653,-88.139202,-50.723996
01519,341609,9.684335,0.021085,0.197263,-0.076578,-0.159809,0.031325,-0.362668,0.171083,-0.246667,50.353557,-88.211555,-52.600494
01520,341709,9.688290,-0.069265,0.161700,-0.083176,-0.165306,0.050462,-0.365489,0.181978,-0.254131,52.191969,-88.292501,-54.489198
01521,341809,9.711729,-0.036242,0.132725,-0.086479,-0.179831,0.074920,-0.366454,0.189018,-0.254776,54.159892,-88.387714,-56.509264
01522,341909,9.739980,0.125317,0.185765,-0.084110,-0.184931,0.099591,-0.366365,0.197182,-0.258368,56.170920,-88.494118,-58.570990
01523,342009,9.695203,0.332653,0.228191,-0.077223,-0.187109,0.111266,-0.367748,0.202951,-0.263587,58.392074,-88.604678,-60.838863
01524,342109,9.671966,0.553180,0.238975,-0.066710,-0.188303,0.106991,-0.368694,0.210038,-0.265230,61.080075,-88.710897,-63.567591
01525,342209,9.714914,0.573729,0.179750,-0.052246,-0.183488,0.092173,-0.369110,0.214723,-0.269000,64.311856,-88.804852,-66.831842
01526,342309,9.793755,0.387776,0.127558,-0.037194,-0.173151,0.076538,-0.372168,0.217069,-0.264876,67.981296,-88.883785,-70.525118
01527,342409,9.840567,0.108336,0.048610,-0.028117,-0.167555,0.071111,-0.374156,0.220090,-0.264724,72.080255,-88.953488,-74.642692
01528,342509,9.974220,-0.056170,0.022751,-0.027434,-0.164435,0.077702,-0.379580,0.224781,-0.266996,76.584986,-89.020345,-79.165612
01529,342609,10.104865,-0.012163,0.031046,-0.032077,-0.155388,0.083844,-0.379017,0.230398,-0.269715,81.358115,-89.083000,-83.959532
01530,342709,10.135887,0.165275,0.040286,-0.034229,-0.148431,0.085514,-0.382482,0.232495,-0.270614,86.518166,-89.139090,-89.141574
01531,342809,10.029620,0.430953,0.038981,-0.029689,-0.154734,0.080712,-0.384957,0.236046,-0.270937,92.591209,-89.184319,-95.234043
01532,342909,9.921302,0.559093,0.152585,-0.025656,-0.148455,0.069366,-0.388961,0.241019,-0.269185,98.958365,-89.213487,-101.618300
01533,343009,9.808491,0.513406,0.179185,-0.021369,-0.136478,0.052681,-0.393934,0.240624,-0.269712,105.046543,-89.224839,-107.721072
01534,343109,9.722981,0.319750,0.118040,-0.021591,-0.125055,0.039566,-0.395932,0.242625,-0.269111,110.592109,-89.222537,-113.281309
01535,343209,9.666099,0.064012,0.075072,-0.023406,-0.113491,0.033186,-0.396990,0.243967,-0.265537,115.502582,-89.212620,-118.207436
01536,343309,9.616315,-0.005687,-0.040363,-0.023809,-0.094302,0.038542,-0.399517,0.244906,-0.263487,119.683591,-89.205236,-122.404265
01537,343409,9.567850,0.051374,-0.111554,-0.020175,-0.086527,0.040709,-0.402490,0.247967,-0.263835,123.553460,-89.197205,-126.287845
01538,343509,9.663242,0.184413,-0.175664,-0.008523,-0.096938,0.038351,-0.404482,0.248497,-0.263811,127.610820,-89.180877,-130.352270
01539,343609,9.876824,0.203925,-0.122330,0.000775,-0.117487,0.039702,-0.405568,0.250265,-0.258711,132.127464,-89.153333,-134.870725
01540,343709,10.014241,0.100948,-0.038878,-0.004278,-0.134033,0.042596,-0.407549,0.251317,-0.259161,136.833838,-89.115138,-139.581861
01541,343809,10.084006,-0.045095,0.125852,-0.017902,-0.139964,0.052211,-0.409085,0.254210,-0.256510,141.513345,-89.072298,-144.273977
01542,343909,10.102634,-0.119650,0.160243,-0.025710,-0.124148,0.065535,-0.409156,0.256010,-0.252410,145.821630,-89.035638,-148.599333
01543,344009,9.922262,-0.027760,-0.017172,-0.021984,-0.103375,0.071075,-0.409193,0.255913,-0.250411,149.608615,-89.005813,-152.401215
01544,344109,9.662542,0.163920,-0.260223,-0.006908,-0.096857,0.067774,-0.411695,0.254933,-0.249963,152.980181,-88.974359,-155.779011
01545,344209,9.540014,0.303638,-0.316785,0.010488,-0.106209,0.053264,-0.411287,0.256179,-0.244888,155.858785,-88.931276,-158.653841
01546,344309,9.529733,0.346861,-0.261709,0.035275,-0.123604,0.036490,-0.409798,0.258622,-0.244261,158.252830,-88.872892,-161.029876
01547,344409,9.653426,0.372050,-0.170599,0.059198,-0.149091,0.021871,-0.411772,0.263660,-0.244507,160.278989,-88.796174,-163.024304
01548,344509,9.876422,0.365482,-0.071677,0.061386,-0.164461,0.015317,-0.414777,0.270112,-0.242678,162.024963,-88.708623,-164.737293
01549,344609,9.960230,0.392625,0.008000,0.048442,-0.162881,0.013758,-0.413755,0.274130,-0.243474,163.496089,-88.620672,-166.182844
01550,344709,9.972856,0.379034,0.006239,0.034893,-0.153497,0.009687,-0.413739,0.278140,-0.243771,164.640185,-88.536521,-167.309090
01551,344809,9.936746,0.325747,-0.082290,0.030673,-0.134433,0.004051,-0.415196,0.283717,-0.244991,165.440439,-88.461639,-168.093839
01552,344909,9.927972,0.291999,-0.217962,0.034332,-0.118457,-0.001853,-0.420155,0.290795,-0.245137,165.973456,-88.394561,-168.609187
01553,345009,9.925280,0.152083,-0.332260,0.043962,-0.100938,-0.004259,-0.419090,0.298397,-0.247755,166.342772,-88.336791,-168.955264
01554,345109,9.932877,0.046952,-0.397584,0.056222,-0.092695,-0.001789,-0.422081,0.302406,-0.247052,166.704899,-88.283879,-169.287128
01555,345209,9.993591,-0.006215,-0.393337,0.066134,-0.087474,0.007643,-0.424010,0.306568,-0.249849,167.201373,-88.235029,-169.747725
01556,345309,10.045576,-0.042896,-0.378411,0.069615,-0.077292,0.016828,-0.428905,0.318773,-0.252739,167.797850,-88.192884,-170.306383
01557,345409,9.995782,-0.030948,-0.404396,0.064464,-0.065950,0.030099,-0.430320,0.326937,-0.255832,168.556214,-88.158453,-171.029969
01558,345509,9.794588,0.151018,-0.417248,0.047282,-0.071508,0.039183,-0.431814,0.327459,-0.255807,169.451574,-88.121557,-171.900489
01559,345609,9.617196,0.374618,-0.350294,0.024954,-0.084138,0.038950,-0.439726,0.333685,-0.258003,170.332095,-88.077078,-172.768993
01560,345709,9.540746,0.625353,-0.250464,0.010998,-0.095602,0.033105,-0.442777,0.335557,-0.254404,171.097447,-88.025169,-173.530304
01561,345809,9.567854,0.774511,-0.217181,0.011224,-0.106364,0.022370,-0.450219,0.341702,-0.255101,171.675921,-87.965947,-174.104542
01562,345909,9.702862,0.690610,-0.244635,0.012617,-0.105973,0.007777,-0.453219,0.345687,-0.253899,171.994262,-87.905608,-174.417720
01563,346009,9.951612,0.445810,-0.282255,0.015100,-0.085395,-0.004313,-0.460242,0.344681,-0.251453,172.070251,-87.855952,-174.486980
01564,346109,10.077474,0.097444,-0.310852,0.019990,-0.065261,-0.006460,-0.464287,0.342108,-0.248583,172.072440,-87.817556,-174.479582
01565,346209,10.083667,-0.158012,-0.433802,0.027524,-0.048294,-0.000825,-0.469833,0.341031,-0.245136,172.127595,-87.789236,-174.520859
01566,346309,10.026258,-0.286577,-0.513867,0.037996,-0.035880,0.010737,-0.476359,0.339020,-0.242741,172.331790,-87.768854,-174.705270
01567,346409,9.959189,-0.272421,-0.538251,0.038177,-0.026847,0.023268,-0.477467,0.333290,-0.237523,172.697602,-87.754500,-175.051305
01568,346509,9.885074,-0.127872,-0.506249,0.033204,-0.025691,0.036931,-0.484081,0.333530,-0.230003,173.251481,-87.741652,-175.588400
01569,346609,9.784109,0.077770,-0.396731,0.022358,-0.045562,0.047148,-0.490126,0.327003,-0.227336,173.969988,-87.717909,-176.296475
01570,346709,9.668776,0.303476,-0.240887,0.010101,-0.069482,0.048230,-0.493759,0.317753,-0.220797,174.713135,-87.680243,-177.036259
01571,346809,9.643046,0.433247,-0.200653,-0.004614,-0.086129,0.046488,-0.496359,0.314040,-0.215478,175.418000,-87.632627,-177.746201
01572,346909,9.660114,0.439032,-0.216016,-0.014814,-0.088851,0.040752,-0.500924,0.304476,-0.212463,176.013463,-87.582897,-178.352529
01573,347009,9.681882,0.380157,-0.301583,-0.024597,-0.079553,0.038335,-0.505042,0.297251,-0.206323,176.539209,-87.538156,-178.894720
01574,347109,9.706230,0.285397,-0.340358,-0.025561,-0.062233,0.032502,-0.512156,0.291046,-0.199632,176.956853,-87.502953,-179.329282
01575,347209,9.715503,0.109544,-0.458311,-0.018521,-0.048164,0.025353,-0.511658,0.286080,-0.200386,177.265458,-87.475476,-179.650673
01576,347309,9.792829,-0.052880,-0.546372,-0.009662,-0.035137,0.019634,-0.517232,0.279474,-0.196220,177.491799,-87.455237,-179.884641
01577,347409,9.893322,-0.106991,-0.535890,0.003558,-0.023350,0.017663,-0.519213,0.275567,-0.197423,177.691083,-87.441659,179.916062
01578,347509,9.968794,-0.085914,-0.496189,0.008879,-0.016066,0.016295,-0.522742,0.273035,-0.195552,177.870676,-87.432191,179.739532
01579,347609,10.029914,-0.027889,-0.447356,0.004997,-0.014139,0.017734,-0.524748,0.270552,-0.195180,178.064396,-87.423834,179.546639
01580,347709,10.016636,0.081747,-0.404179,-0.005912,-0.010757,0.018947,-0.529171,0.268300,-0.198807,178.264750,-87.417411,179.340848
01581,347809,9.953600,0.122157,-0.419001,-0.015485,-0.013458,0.016984,-0.531143,0.269377,-0.199757,178.434657,-87.409383,179.160044
01582,347909,9.906868,0.139637,-0.392497,-0.022535,-0.018727,0.014954,-0.537193,0.264819,-0.196488,178.575416,-87.398291,179.004372
01583,348009,9.895475,0.135991,-0.382471,-0.025290,-0.017454,0.015968,-0.538705,0.265292,-0.195464,178.725680,-87.387930,178.837603
01584,348109,9.838631,0.110984,-0.426387,-0.026866,-0.015064,0.018496,-0.543088,0.264632,-0.201014,178.904819,-87.378950,178.641023
01585,348209,9.812574,0.063181,-0.452307,-0.025342,-0.016876,0.020608,-0.544644,0.261024,-0.198193,179.110288,-87.368927,178.418961
01586,348309,9.793956,0.056966,-0.459962,-0.029643,-0.015480,0.024847,-0.549586,0.257237,-0.200897,179.364172,-87.359697,178.145965
01587,348409,9.768548,0.095045,-0.454445,-0.031918,-0.011820,0.024072,-0.552121,0.253195,-0.199102,179.605010,-87.352509,177.884721
01588,348509,9.758770,0.201835,-0.440202,-0.038857,-0.011383,0.018698,-0.556617,0.250751,-0.198730,179.773954,-87.345515,177.691464
01589,348609,9.779798,0.265141,-0.404236,-0.041829,-0.007538,0.010470,-0.560132,0.245775,-0.197986,179.838483,-87.340696,177.601023
01590,348709,9.771043,0.317675,-0.367712,-0.046737,-0.001007,0.001264,-0.564708,0.240149,-0.193769,179.785993,-87.339609,177.624903
01591,348809,9.705510,0.290595,-0.374342,-0.057069,-0.004313,-0.005501,-0.566158,0.234339,-0.197073,179.644215,-87.336613,177.732236
01592,348909,9.716662,0.156909,-0.335955,-0.075090,-0.011380,-0.010657,-0.567690,0.228810,-0.195853,179.429716,-87.329539,177.902031
01593,349009,9.679567,-0.023726,-0.294410,-0.088148,-0.017482,-0.011058,-0.571655,0.224461,-0.197582,179.204996,-87.318948,178.074576
01594,349109,9.690928,-0.170837,-0.274448,-0.105610,-0.033282,-0.003834,-0.575695,0.219422,-0.195338,179.063261,-87.299355,178.154043
01595,349209,9.759818,-0.216553,-0.254747,-0.115741,-0.046587,0.007339,-0.580143,0.213136,-0.198169,179.054986,-87.272255,178.094105
01596,349309,9.795129,-0.198948,-0.312768,-0.106227,-0.046615,0.017372,-0.580185,0.210051,-0.196323,179.171454,-87.245238,177.914749
01597,349409,9.778650,-0.154158,-0.424184,-0.096096,-0.049976,0.023700,-0.583656,0.203701,-0.198153,179.366158,-87.216325,177.662883
01598,349509,9.793735,-0.097633,-0.431314,-0.083078,-0.044035,0.024221,-0.585157,0.199739,-0.198357,179.569505,-87.190782,177.409832
01599,349609,9.844041,-0.007643,-0.393122,-0.061552,-0.029859,0.018224,-0.589192,0.197689,-0.195961,179.710966,-87.173311,177.231090
01600,349709,9.823128,0.074318,-0.410091,-0.050190,-0.023786,0.008958,-0.588580,0.194008,-0.202661,179.749811,-87.159288,177.161608
01601,349809,9.815463,0.097599,-0.421061,-0.051441,-0.031517,-0.006113,-0.592107,0.192472,-0.200739,179.614810,-87.140796,177.265467
01602,349909,9.833791,0.081460,-0.354413,-0.052090,-0.041487,-0.020760,-0.595035,0.190197,-0.204366,179.315373,-87.116504,177.533601
01603,350009,9.862955,0.077877,-0.352536,-0.055695,-0.042350,-0.033874,-0.596028,0.186750,-0.205044,178.870939,-87.091522,177.944855
01604,350109,9.831891,0.126362,-0.400205,-0.057235,-0.037140,-0.047024,-0.599482,0.184410,-0.207171,178.284211,-87.069159,178.497714
01605,350209,9.706397,0.159725,-0.409019,-0.070881,-0.029268,-0.058971,-0.600993,0.180424,-0.206875,177.562069,-87.050741,179.178346
01606,350309,9.648107,0.240413,-0.393366,-0.087835,-0.026732,-0.067421,-0.599458,0.177033,-0.209551,176.744081,-87.033074,179.945231
01607,350409,9.651083,0.211235,-0.358783,-0.107972,-0.026653,-0.067926,-0.603904,0.176702,-0.211578,175.918408,-87.014878,-179.291730
01608,350509,9.694035,0.185716,-0.325714,-0.129452,-0.020492,-0.066732,-0.605388,0.177746,-0.212027,175.097435,-86.999699,-178.545712
01609,350609,9.736390,0.111266,-0.346755,-0.141070,-0.011598,-0.059420,-0.608850,0.175881,-0.213629,174.347520,-86.989459,-177.877504
01610,350709,9.775708,0.004446,-0.388360,-0.148333,0.002282,-0.048358,-0.609331,0.175439,-0.214654,173.701442,-86.987372,-177.317433
01611,350809,9.846902,-0.103493,-0.378665,-0.142944,0.020832,-0.039019,-0.608336,0.174427,-0.214705,173.136485,-86.996158,-176.835493
01612,350909,9.883724,-0.181264,-0.334678,-0.129275,0.050796,-0.029117,-0.613292,0.173083,-0.216282,172.642412,-87.022462,-176.416684
01613,351009,9.911073,-0.244411,-0.298436,-0.110810,0.087869,-0.024017,-0.613776,0.170648,-0.217409,172.151375,-87.070036,-175.990317
01614,351109,9.883224,-0.248427,-0.260852,-0.088199,0.117207,-0.018493,-0.614199,0.171347,-0.221382,171.672683,-87.134528,-175.563342
01615,351209,9.818506,-0.208773,-0.313102,-0.070091,0.138953,-0.016394,-0.616205,0.168864,-0.221009,171.169329,-87.211346,-175.101296
01616,351309,9.714830,-0.092132,-0.418155,-0.061902,0.140627,-0.014090,-0.617160,0.166010,-0.223661,170.667912,-87.289123,-174.636510
01617,351409,9.627626,0.004080,-0.466979,-0.065951,0.115610,-0.017643,-0.618131,0.164603,-0.225237,170.145439,-87.352227,-174.152987
01618,351509,9.629624,0.145029,-0.375149,-0.068975,0.086796,-0.022036,-0.620111,0.166154,-0.225662,169.607668,-87.398429,-173.655905
01619,351609,9.685319,0.260537,-0.244702,-0.072284,0.071022,-0.026573,-0.621555,0.163831,-0.228788,169.030400,-87.435055,-173.121200
01620,351709,9.672862,0.287220,-0.200060,-0.083312,0.047265,-0.029504,-0.623551,0.161870,-0.228890,168.454778,-87.457771,-172.594483
01621,351809,9.718786,0.264263,-0.194614,-0.092250,0.009914,-0.031516,-0.623533,0.161420,-0.229915,167.939695,-87.459090,-172.133497
01622,351909,9.802427,0.166920,-0.167838,-0.094501,-0.014307,-0.033104,-0.624509,0.161982,-0.230890,167.470464,-87.446497,-171.719695
01623,352009,9.894911,0.028234,-0.124341,-0.092064,-0.015788,-0.030160,-0.626005,0.161009,-0.230941,167.048006,-87.433324,-171.351303
01624,352109,9.907565,-0.147587,-0.198602,-0.081918,-0.004297,-0.026871,-0.629514,0.159023,-0.230044,166.642732,-87.426891,-170.994277
01625,352209,9.780959,-0.437511,0.007770,-0.038829,0.049702,0.000128,-0.628979,0.159112,-0.232043,166.437569,-87.454096,-170.812823
01626,352309,9.946749,-0.048919,-0.554583,-0.089837,0.026502,-0.029106,-0.630423,0.156291,-0.235195,165.903289,-87.464334,-170.331176
01627,352409,9.751759,-0.133562,-0.722911,0.001349,-0.007770,-0.003651,-0.630404,0.156339,-0.236194,165.847240,-87.458969,-170.275923
01628,352509,9.577671,-0.018136,-0.433015,0.029300,-0.040109,-0.000115,-0.630407,0.154844,-0.236271,165.953041,-87.436130,-170.366644
01629,352609,9.447589,0.181033,-0.337181,0.027450,-0.071338,-0.009974,-0.630369,0.155439,-0.238244,166.030361,-87.394561,-170.429918
01630,352709,9.493662,0.330221,-0.297815,0.017047,-0.093473,-0.016714,-0.631897,0.151902,-0.236923,166.084270,-87.339754,-170.475731
01631,352809,9.587156,0.407940,-0.302148,-0.000934,-0.092915,-0.013889,-0.630441,0.151284,-0.234949,166.157194,-87.285648,-170.550906
01632,352909,9.633452,0.419706,-0.357088,-0.011433,-0.089154,-0.015665,-0.632417,0.149869,-0.236026,166.189904,-87.233391,-170.591855
01633,353009,9.783540,0.263233,-0.434355,-0.003276,-0.076088,-0.021693,-0.634934,0.150833,-0.234476,166.121235,-87.187578,-170.526632
01634,353109,10.015812,-0.000877,-0.478482,0.013030,-0.061405,-0.021784,-0.634900,0.154393,-0.235798,166.022480,-87.149916,-170.421923
01635,353209,10.106231,-0.187489,-0.552639,0.040972,-0.054123,-0.013736,-0.636419,0.150881,-0.234976,166.011439,-87.117415,-170.388990
01636,353309,10.064942,-0.282719,-0.501585,0.078655,-0.048646,-0.006477,-0.635465,0.153236,-0.232350,166.087336,-87.088970,-170.421469
01637,353409,9.954277,-0.231141,-0.475974,0.120416,-0.045096,0.002886,-0.636895,0.152930,-0.235875,166.278530,-87.063784,-170.545421
01638,353509,9.771037,-0.057667,-0.487943,0.159700,-0.033786,0.004482,-0.635426,0.149370,-0.235052,166.477536,-87.045094,-170.654651
01639,353609,9.622817,0.127404,-0.503510,0.196266,-0.026745,0.000291,-0.637938,0.152825,-0.233376,166.632582,-87.029750,-170.698883
01640,353709,9.537121,0.303071,-0.516413,0.213444,-0.028049,-0.001895,-0.640885,0.150502,-0.236003,166.776237,-87.013381,-170.721859
01641,353809,9.532706,0.410243,-0.495491,0.218727,-0.042928,-0.004375,-0.642382,0.149031,-0.236079,166.932316,-86.988379,-170.754255
01642,353909,9.491837,0.530661,-0.581388,0.230338,-0.055026,-0.005149,-0.643448,0.145889,-0.232733,167.114274,-86.956507,-170.805921
01643,354009,9.432936,0.513064,-0.599175,0.230845,-0.072730,-0.010782,-0.644444,0.146403,-0.232708,167.277012,-86.914010,-170.838066
01644,354109,9.501707,0.415503,-0.576577,0.225299,-0.095366,-0.023606,-0.645939,0.145928,-0.232734,167.354815,-86.857235,-170.788343
01645,354209,9.678721,0.268774,-0.426226,0.227526,-0.095784,-0.031352,-0.646945,0.145920,-0.232234,167.356809,-86.799259,-170.661419
01646,354309,9.864016,0.152168,-0.370229,0.238603,-0.064633,-0.037375,-0.647451,0.146402,-0.231710,167.238641,-86.757937,-170.407778
01647,354409,9.940585,0.045155,-0.401360,0.249109,-0.040020,-0.032532,-0.649448,0.143943,-0.231838,167.123341,-86.730960,-170.150965
01648,354509,9.973035,0.077715,-0.515821,0.262123,-0.027650,-0.021954,-0.648989,0.142842,-0.229889,167.093559,-86.712228,-169.972329
01649,354609,9.890565,0.156231,-0.619915,0.269766,-0.026171,-0.007616,-0.652943,0.144472,-0.231313,167.204746,-86.696153,-169.930508
01650,354709,9.849986,0.263284,-0.665474,0.272564,-0.037726,0.002364,-0.654950,0.141490,-0.230966,167.438344,-86.674872,-170.009698
01651,354809,9.818406,0.419798,-0.574194,0.275451,-0.053239,0.010372,-0.655441,0.140526,-0.231517,167.780450,-86.645867,-170.195938
01652,354909,9.792052,0.562262,-0.569871,0.273903,-0.075742,0.012275,-0.655451,0.140003,-0.231043,168.179827,-86.604402,-170.440458
01653,355009,9.714706,0.602565,-0.504385,0.268277,-0.100618,0.014689,-0.656447,0.140019,-0.231043,168.637478,-86.549143,-170.746616
01654,355109,9.326454,0.581463,-0.586497,0.254274,-0.141959,0.011596,-0.656981,0.135969,-0.229747,169.119836,-86.470145,-171.085604
01655,355209,9.837316,0.599196,-0.557759,0.235370,-0.147353,0.013881,-0.656554,0.137263,-0.225672,169.602458,-86.388177,-171.435757
01656,355309,9.962960,0.514128,-0.512707,0.229066,-0.123717,0.018665,-0.662514,0.136908,-0.226699,170.068142,-86.319847,-171.772599
01657,355409,9.899195,0.486138,-0.546137,0.236516,-0.105243,0.022405,-0.665467,0.136055,-0.228750,170.528660,-86.262140,-172.100024
01658,355509,9.754153,0.475023,-0.569839,0.249522,-0.083282,0.027345,-0.663024,0.135397,-0.226276,170.996562,-86.217137,-172.427414
01659,355609,9.690545,0.588290,-0.687825,0.248710,-0.068871,0.022801,-0.662986,0.135992,-0.228249,171.397245,-86.179726,-172.687936
01660,355709,9.603989,0.633778,-0.715466,0.257634,-0.063558,0.014971,-0.666491,0.135999,-0.227251,171.723859,-86.144548,-172.869130
01661,355809,9.649857,0.677526,-0.634210,0.252891,-0.074095,0.009760,-0.667540,0.132905,-0.224905,172.011754,-86.102902,-173.014271
01662,355909,9.729711,0.706039,-0.517474,0.236731,-0.083974,0.009824,-0.668000,0.133507,-0.226879,172.297068,-86.055607,-173.166133
01663,356009,9.868003,0.757719,-0.471976,0.210364,-0.086438,0.012697,-0.667540,0.132905,-0.224905,172.587735,-86.007082,-173.338539
01664,356109,10.012839,0.740778,-0.482230,0.175053,-0.075223,0.020560,-0.668544,0.133395,-0.224380,172.904233,-85.965443,-173.557151
01665,356209,10.121242,0.708994,-0.519826,0.138118,-0.046637,0.036694,-0.670020,0.133467,-0.225380,173.295616,-85.941087,-173.872081
01666,356309,10.133460,0.713153,-0.505583,0.108274,-0.027262,0.046587,-0.668995,0.134021,-0.226854,173.727135,-85.928249,-174.244421
01667,356409,10.091631,0.718174,-0.493008,0.085359,-0.005013,0.056001,-0.667037,0.135388,-0.224777,174.199582,-85.928456,-174.670977
01668,356509,9.977200,0.659369,-0.570056,0.072766,0.017195,0.065285,-0.670006,0.135982,-0.225752,174.722331,-85.941584,-175.155214
01669,356609,9.871885,0.597468,-0.621675,0.063026,0.045393,0.071074,-0.670484,0.137034,-0.226701,175.270191,-85.970776,-175.670223
01670,356709,9.784893,0.620367,-0.662738,0.048890,0.053675,0.075946,-0.669994,0.137501,-0.226176,175.852127,-86.004555,-176.227509
01671,356809,9.696718,0.622002,-0.593577,0.044461,0.062520,0.078343,-0.668434,0.138144,-0.229649,176.456016,-86.043080,-176.809339
01672,356909,9.694759,0.629907,-0.553194,0.032777,0.060606,0.083853,-0.669948,0.137621,-0.228675,177.111177,-86.080248,-177.449266
01673,357009,9.707168,0.620267,-0.500459,0.009106,0.059392,0.085179,-0.666455,0.141053,-0.228496,177.776177,-86.116254,-178.112640
01674,357109,9.711352,0.532927,-0.409756,-0.010063,0.059759,0.088766,-0.668456,0.141559,-0.227972,178.472578,-86.152012,-178.818479
01675,357209,9.720759,0.445078,-0.397588,-0.027291,0.057576,0.097057,-0.666932,0.142604,-0.229420,179.243320,-86.186018,-179.608701
01676,357309,9.688372,0.281683,-0.370466,-0.030101,0.059431,0.098670,-0.665934,0.143585,-0.229369,-179.959814,-86.220383,179.573309
01677,357409,9.594167,0.090960,-0.351677,-0.025940,0.061178,0.101157,-0.668392,0.145689,-0.230767,-179.123902,-86.254979,178.718615
01678,357509,9.449558,-0.069969,-0.400480,-0.015119,0.056955,0.098769,-0.667433,0.146075,-0.228742,-178.288257,-86.286379,177.870442
01679,357609,9.149100,-0.316180,-0.483507,0.015961,0.035020,0.099123,-0.666384,0.149668,-0.231063,-177.425820,-86.304397,177.013309
01680,357709,8.916440,-0.586728,-0.646610,0.046952,-0.016724,0.101088,-0.663406,0.148600,-0.230613,-176.546973,-86.291900,176.157554
01681,357809,8.743237,-0.864959,-0.768338,0.077649,-0.079465,0.108123,-0.664412,0.148093,-0.230139,-175.635845,-86.242390,175.287080
01682,357909,8.773548,-1.044049,-0.849015,0.107301,-0.137994,0.117011,-0.663901,0.150600,-0.230512,-174.700363,-86.158107,174.409201
01683,358009,8.965335,-1.107018,-0.857298,0.130629,-0.173457,0.125816,-0.663937,0.151002,-0.228487,-173.748808,-86.052136,173.528553
01684,358109,9.308490,-1.089405,-0.708820,0.157226,-0.190853,0.131780,-0.662945,0.153952,-0.227835,-172.799077,-85.934877,172.664934
01685,358209,9.650488,-1.014715,-0.535223,0.186683,-0.194249,0.139943,-0.663463,0.152915,-0.226886,-171.823348,-85.814066,171.792085
01686,358309,9.946940,-0.958322,-0.346865,0.207185,-0.194140,0.147465,-0.663981,0.152377,-0.225912,-170.830679,-85.691618,170.913933
01687,358409,10.176676,-0.871536,-0.202583,0.222290,-0.183001,0.152473,-0.662990,0.154330,-0.225310,-169.829773,-85.573887,170.036100
01688,358509,10.464733,-0.837509,0.050883,0.225533,-0.137559,0.156981,-0.664504,0.153807,-0.224337,-168.779960,-85.480119,169.110988
01689,358609,10.842241,-0.563265,0.102427,0.200381,-0.094697,0.150072,-0.661524,0.154234,-0.223810,-167.768080,-85.409962,168.209397
01690,358709,10.758744,-0.501235,0.182694,0.178943,-0.060563,0.143265,-0.663987,0.154346,-0.225311,-166.788960,-85.358555,167.328299
01691,358809,10.904120,-0.281195,0.243979,0.169293,-0.034260,0.144030,-0.663525,0.154740,-0.223286,-165.785558,-85.320520,166.417253
01692,358909,10.912507,-0.034187,0.368412,0.144372,0.006619,0.122697,-0.662537,0.155198,-0.222760,-164.881086,-85.307077,165.591116
01693,359009,10.795125,0.106349,0.341885,0.135422,0.052817,0.103716,-0.665504,0.157286,-0.223659,-164.025566,-85.321077,164.808951
01694,359109,10.537942,0.197612,0.227906,0.145650,0.079726,0.085256,-0.666005,0.155302,-0.223761,-163.229218,-85.351987,164.092058
01695,359209,10.059555,0.221410,0.108223,0.161409,0.074792,0.063148,-0.664970,0.156378,-0.225709,-162.574041,-85.383227,163.525882
01696,359309,9.659025,0.165959,0.033416,0.158691,0.017348,0.042707,-0.666981,0.156362,-0.224710,-162.176592,-85.386265,163.216717
01697,359409,9.335460,-0.000459,0.061093,0.175358,-0.061068,0.022885,-0.666961,0.157406,-0.225659,-162.074136,-85.349959,163.213088
01698,359509,9.277810,-0.073463,0.182034,0.184397,-0.125676,0.005504,-0.667013,0.154297,-0.223312,-162.220445,-85.281514,163.464258
01699,359609,9.226306,-0.102136,0.239569,0.188376,-0.157660,-0.011607,-0.667499,0.155823,-0.223736,-162.535857,-85.198535,163.887438
01700,359709,9.187084,-0.123056,0.223209,0.194071,-0.171002,-0.020291,-0.668035,0.155237,-0.221762,-162.917201,-85.109566,164.380122
01701,359809,9.173345,-0.248510,0.212848,0.191850,-0.165974,-0.021696,-0.667519,0.154779,-0.222787,-163.283329,-85.023361,164.856332
01702,359909,9.194569,-0.437163,0.227170,0.173899,-0.164932,-0.012763,-0.666110,0.154040,-0.218314,-163.587628,-84.936072,165.260234
01703,360009,9.378899,-0.589661,0.346277,0.162931,-0.159011,0.005414,-0.669089,0.154112,-0.218815,-163.764268,-84.849011,165.529744
01704,360109,9.461966,-0.681187,0.376491,0.156090,-0.166222,0.029368,-0.669608,0.153075,-0.217866,-163.805618,-84.754153,165.659540
01705,360209,9.457967,-0.854754,0.411090,0.161313,-0.181512,0.051576,-0.671131,0.152528,-0.216393,-163.735842,-84.647379,165.680803
01706,360309,9.618840,-0.882797,0.417980,0.151964,-0.179559,0.070614,-0.671154,0.149989,-0.215520,-163.558923,-84.538661,165.589111
01707,360409,9.666802,-0.863887,0.311322,0.150380,-0.169983,0.084122,-0.671179,0.151411,-0.213944,-163.295426,-84.433008,165.409550
01708,360509,9.688312,-0.785116,0.273709,0.152331,-0.156786,0.089343,-0.671685,0.152391,-0.213394,-162.987552,-84.333685,165.186528
01709,360609,9.727481,-0.630705,0.263787,0.151320,-0.141249,0.089800,-0.674175,0.152431,-0.213395,-162.660314,-84.242718,164.943457
01710,360709,9.670251,-0.520473,0.256784,0.143521,-0.130315,0.086456,-0.674666,0.150968,-0.213971,-162.345381,-84.158217,164.708251
01711,360809,9.645034,-0.429748,0.218836,0.130835,-0.134020,0.080609,-0.674206,0.150864,-0.211971,-162.082239,-84.072650,164.517787
01712,360909,9.578342,-0.372017,0.175279,0.113920,-0.150640,0.069858,-0.675712,0.149369,-0.211548,-161.918571,-83.979906,164.417584
01713,361009,9.511261,-0.339497,0.194377,0.101427,-0.171537,0.059933,-0.675729,0.150317,-0.210498,-161.851046,-83.877581,164.406865
01714,361109,9.616543,-0.278352,0.204973,0.088626,-0.182824,0.043677,-0.677731,0.150325,-0.209999,-161.891503,-83.772062,164.497391
01715,361209,9.472254,-0.335229,0.296468,0.097607,-0.175105,0.035221,-0.677738,0.151297,-0.209448,-161.953654,-83.672297,164.614953
01716,361309,9.488741,-0.311475,0.328209,0.102887,-0.178592,0.028720,-0.677732,0.149328,-0.210050,-162.046745,-83.571826,164.766731
01717,361409,9.536750,-0.281134,0.311414,0.100770,-0.187391,0.011667,-0.679771,0.149738,-0.207526,-162.231847,-83.469573,165.009934
01718,361509,9.510434,-0.380767,0.334616,0.125002,-0.186725,0.000978,-0.679283,0.149208,-0.207051,-162.445600,-83.369506,165.296023
01719,361609,9.468245,-0.519593,0.406843,0.137019,-0.201926,-0.004316,-0.681806,0.146684,-0.205680,-162.691264,-83.261969,165.621259
01720,361709,9.579305,-0.580290,0.387802,0.141887,-0.201451,-0.014505,-0.680817,0.147640,-0.205129,-162.970742,-83.156305,165.983456
01721,361809,9.663631,-0.599250,0.374125,0.127994,-0.185124,-0.026483,-0.680861,0.144056,-0.203307,-163.279973,-83.061428,166.367711
01722,361909,9.713686,-0.543028,0.358423,0.123243,-0.167639,-0.037230,-0.683858,0.144080,-0.202809,-163.607308,-82.977717,166.767562
01723,362009,9.663986,-0.494666,0.371170,0.144121,-0.149518,-0.052221,-0.684394,0.143991,-0.200809,-163.957220,-82.906153,167.202306
01724,362109,9.658922,-0.472934,0.389107,0.163075,-0.144989,-0.068510,-0.682899,0.144466,-0.200783,-164.354213,-82.839352,167.695533
01725,362209,9.685685,-0.435145,0.447920,0.169897,-0.140053,-0.084839,-0.683414,0.144924,-0.199759,-164.804248,-82.777386,168.246254
01726,362309,9.714928,-0.490074,0.474889,0.178945,-0.136315,-0.098093,-0.685406,0.140496,-0.200488,-165.293590,-82.718957,168.841925
01727,362409,9.837858,-0.525234,0.561032,0.185766,-0.128077,-0.110313,-0.683950,0.139379,-0.198539,-165.813886,-82.666261,169.472846
01728,362509,9.996757,-0.539815,0.621348,0.201956,-0.105933,-0.118220,-0.685466,0.137860,-0.197616,-166.327361,-82.626331,170.106338
01729,362609,10.104929,-0.617872,0.620222,0.211608,-0.079116,-0.125382,-0.687955,0.138397,-0.197591,-166.832761,-82.601660,170.737346
01730,362709,10.264408,-0.638096,0.627946,0.208254,-0.055211,-0.127563,-0.684487,0.138294,-0.196590,-167.322372,-82.589997,171.350556
01731,362809,10.417876,-0.574596,0.669189,0.200500,-0.029655,-0.131492,-0.688991,0.137321,-0.195643,-167.807655,-82.592533,171.954963
01732,362909,10.474651,-0.607547,0.731049,0.190898,-0.007677,-0.136511,-0.684447,0.134927,-0.199267,-168.300609,-82.607409,172.561581
01733,363009,10.540284,-0.580595,0.792994,0.177982,0.012314,-0.145117,-0.685463,0.134397,-0.198293,-168.823166,-82.633889,173.190597
01734,363109,10.583303,-0.565542,0.856694,0.163565,0.016557,-0.149070,-0.685487,0.131359,-0.197446,-169.371637,-82.662525,173.837411
01735,363209,10.547759,-0.512794,0.883999,0.157610,0.014446,-0.151753,-0.687932,0.131021,-0.199971,-169.941333,-82.689537,174.502178
01736,363309,10.633401,-0.440927,0.912022,0.134446,0.014625,-0.159757,-0.687982,0.128409,-0.197600,-170.563868,-82.716643,175.206827
01737,363409,10.724981,-0.473788,0.938864,0.127053,0.041145,-0.162805,-0.689464,0.125492,-0.198752,-171.190637,-82.758154,175.911456
01738,363509,10.806309,-0.524163,0.916975,0.126116,0.079521,-0.161425,-0.689461,0.126986,-0.198676,-171.794357,-82.820435,176.592266
01739,363609,10.886009,-0.522199,0.836168,0.120737,0.100332,-0.160994,-0.689944,0.125049,-0.199777,-172.397536,-82.893686,177.269360
01740,363709,11.155714,-0.524546,0.813914,0.106387,0.110778,-0.160666,-0.688935,0.121594,-0.200954,-173.014579,-82.972046,177.952064
01741,363809,11.502555,-0.531852,0.876756,0.079547,0.141289,-0.156682,-0.691859,0.121810,-0.204454,-173.626912,-83.066697,178.614442
01742,363909,11.902634,-0.544624,0.805378,0.062798,0.180266,-0.152157,-0.690339,0.120364,-0.206029,-174.226004,-83.182523,179.253706
01743,364009,12.160236,-0.675106,0.613750,0.058082,0.219100,-0.142193,-0.691836,0.118893,-0.206106,-174.783256,-83.319261,179.847994
01744,364109,12.268519,-0.851375,0.358582,0.058031,0.230523,-0.123010,-0.692774,0.115590,-0.209782,-175.263930,-83.461000,-179.634960
01745,364209,12.265109,-1.067882,0.082178,0.059416,0.221293,-0.110471,-0.693718,0.118715,-0.212129,-175.704939,-83.596475,-179.157124
01746,364309,12.212962,-1.121739,-0.186964,0.065854,0.212547,-0.109153,-0.692230,0.115204,-0.212307,-176.157642,-83.726515,-178.663879
01747,364409,12.204064,-1.022409,-0.444798,0.068701,0.209061,-0.102900,-0.693155,0.118378,-0.215653,-176.596030,-83.853936,-178.183469
01748,364509,12.074230,-0.825049,-0.915502,0.081334,0.204557,-0.090909,-0.695160,0.116891,-0.215230,-176.982318,-83.978019,-177.748257
01749,364609,11.763027,-0.558524,-1.433416,0.082558,0.168828,-0.083714,-0.695153,0.115420,-0.215806,-177.354092,-84.081119,-177.327012
01750,364709,11.312883,-0.387332,-1.805934,0.076539,0.130626,-0.080691,-0.695122,0.117485,-0.217204,-177.734628,-84.161938,-176.900496
01751,364809,10.767542,-0.251577,-1.941200,0.065464,0.100291,-0.080400,-0.695048,0.117180,-0.221228,-178.136658,-84.225023,-176.458816
01752,364909,10.215141,-0.172408,-1.985283,0.042442,0.061447,-0.073469,-0.695557,0.116665,-0.220753,-178.527163,-84.265372,-176.042029
01753,365009,9.878239,0.112607,-1.910761,0.002400,0.015295,-0.064223,-0.698542,0.118706,-0.220653,-178.898443,-84.278825,-175.667666
01754,365109,9.760468,0.670613,-1.627199,-0.078508,0.020427,-0.066322,-0.698064,0.117653,-0.219704,-179.329919,-84.294929,-175.279450
01755,365209,8.957604,0.930589,-1.486450,-0.146096,0.056347,-0.062753,-0.699989,0.118850,-0.223152,-179.781488,-84.331254,-174.910030
01756,365309,8.571529,1.355765,-1.334186,-0.244018,0.081746,-0.072983,-0.699481,0.119364,-0.223626,179.644541,-84.381757,-174.474093
01757,365409,7.923258,1.506726,-1.319424,-0.308427,0.141191,-0.075966,-0.700973,0.120882,-0.223551,179.000560,-84.465798,-174.005020
01758,365509,7.499779,1.503771,-1.736085,-0.357232,0.166249,-0.075328,-0.699936,0.122956,-0.225448,178.310257,-84.563598,-173.517662
01759,365609,7.399738,1.559730,-2.213382,-0.399307,0.153120,-0.077486,-0.697446,0.122418,-0.225473,177.563474,-84.653152,-172.997953
01760,365709,7.585654,1.393489,-2.522661,-0.413220,0.130678,-0.070935,-0.700395,0.124056,-0.227397,176.834740,-84.729303,-172.504532
01761,365809,8.050221,1.258359,-2.746768,-0.417745,0.092370,-0.058297,-0.700853,0.125655,-0.229320,176.180127,-84.783315,-172.088281
01762,365909,8.627717,1.121666,-2.734306,-0.415056,0.062013,-0.040239,-0.700390,0.127046,-0.227244,175.643928,-84.820204,-171.789486
01763,366009,9.295149,0.898977,-2.579430,-0.404189,0.034774,-0.024104,-0.699373,0.128075,-0.228193,175.224205,-84.841946,-171.601464
01764,366109,9.940363,0.671589,-2.193949,-0.367669,0.015162,-0.020845,-0.696434,0.125914,-0.225795,174.854420,-84.852460,-171.442620
01765,366209,10.491869,0.505975,-1.817444,-0.316939,0.005530,-0.018768,-0.696882,0.128035,-0.228192,174.531522,-84.857448,-171.301700
01766,366309,10.823583,0.355224,-1.493785,-0.284750,-0.001973,-0.012309,-0.698360,0.127111,-0.229243,174.272293,-84.858421,-171.206207
01767,366409,10.892042,0.257811,-1.395603,-0.267007,-0.020887,-0.000777,-0.699353,0.129119,-0.229141,174.108487,-84.849219,-171.196329
01768,366509,10.718482,0.291424,-1.227400,-0.273083,-0.051501,0.011447,-0.698398,0.131973,-0.226490,174.038589,-84.823270,-171.284249
01769,366609,10.476588,0.385970,-0.992380,-0.281732,-0.071787,0.019681,-0.697417,0.133901,-0.225388,174.028253,-84.786246,-171.436971
01770,366709,10.151199,0.449367,-0.655934,-0.294474,-0.065132,0.029866,-0.697867,0.134528,-0.227862,174.068479,-84.753620,-171.647820
01771,366809,9.758531,0.483634,-0.373805,-0.306909,-0.035883,0.037110,-0.696894,0.136931,-0.226235,174.126329,-84.738091,-171.883544
01772,366909,9.395606,0.602972,-0.120024,-0.318191,-0.011044,0.045694,-0.699336,0.138586,-0.228659,174.214349,-84.737220,-172.156076
01773,367009,9.030439,0.686725,-0.003570,-0.334855,0.014227,0.048970,-0.699857,0.141511,-0.227007,174.297421,-84.750938,-172.433243
01774,367109,8.679215,0.760796,0.031295,-0.349257,0.032013,0.046150,-0.700316,0.142611,-0.228956,174.344555,-84.774639,-172.682622
01775,367209,8.385650,0.811314,0.037090,-0.358242,0.039578,0.046713,-0.703310,0.144628,-0.228355,174.386502,-84.802696,-172.931977
01776,367309,8.109149,0.804484,0.037067,-0.360983,0.026867,0.046201,-0.698296,0.147610,-0.229701,174.432560,-84.823488,-173.187054
01777,367409,7.965906,0.730772,-0.003609,-0.357325,0.010347,0.044322,-0.702835,0.147039,-0.226729,174.479676,-84.834762,-173.441105
01778,367509,7.906185,0.722817,-0.108366,-0.350784,-0.008405,0.038829,-0.701324,0.151523,-0.227000,174.507387,-84.835045,-173.671930
01779,367609,7.930531,0.580770,-0.286265,-0.323624,-0.033538,0.031659,-0.701772,0.153644,-0.229397,174.520196,-84.820605,-173.872190
01780,367709,8.038983,0.383296,-0.390435,-0.291391,-0.056783,0.031099,-0.704836,0.153001,-0.225425,174.560956,-84.792877,-174.081990
01781,367809,8.142964,0.245181,-0.537307,-0.265572,-0.082405,0.032461,-0.704292,0.152615,-0.227949,174.638403,-84.750589,-174.313791
01782,367909,8.263111,0.127838,-0.569925,-0.234790,-0.106294,0.032764,-0.703314,0.158007,-0.226170,174.746252,-84.694656,-174.558433
01783,368009,8.448997,0.072379,-0.517676,-0.194881,-0.134251,0.037072,-0.705297,0.158063,-0.226671,174.914434,-84.622944,-174.840727
01784,368109,8.649024,0.076041,-0.425012,-0.156450,-0.168880,0.046106,-0.707335,0.158971,-0.224121,175.170061,-84.531826,-175.188777
01785,368209,8.748377,0.156630,-0.251019,-0.112838,-0.198810,0.053289,-0.705811,0.160016,-0.225569,175.496476,-84.423806,-175.582898
01786,368309,8.899735,0.294827,-0.102902,-0.077456,-0.219175,0.062359,-0.705816,0.162483,-0.224943,175.889634,-84.304332,-176.023796
01787,368409,8.946789,0.466080,0.038112,-0.056263,-0.230500,0.062180,-0.706899,0.160289,-0.220546,176.280590,-84.178120,-176.450383
01788,368509,8.957950,0.604973,0.133921,-0.034803,-0.216198,0.061129,-0.709359,0.161896,-0.221970,176.655761,-84.059807,-176.848851
01789,368609,8.890849,0.749366,0.118166,-0.011611,-0.196069,0.065970,-0.708387,0.163800,-0.220369,177.049162,-83.952930,-177.252396
01790,368709,8.665274,0.779595,-0.005672,0.015165,-0.187877,0.072736,-0.710901,0.166259,-0.218743,177.477588,-83.850660,-177.675840
01791,368809,8.570783,0.803126,0.010142,0.029792,-0.186289,0.079027,-0.708892,0.165279,-0.219793,177.932604,-83.749133,-178.117711
01792,368909,8.578259,0.828338,0.065098,0.049897,-0.171166,0.077393,-0.708924,0.168172,-0.217641,178.373704,-83.655905,-178.534103
01793,369009,8.691661,0.872659,0.146510,0.080494,-0.146151,0.071093,-0.708392,0.166268,-0.219742,178.784662,-83.576620,-178.902625
01794,369109,9.095128,0.699785,0.206101,0.105588,-0.119134,0.065164,-0.709918,0.169184,-0.217591,179.168253,-83.512517,-179.229211
01795,369209,9.488549,0.718172,0.269653,0.130976,-0.087390,0.071708,-0.710426,0.169168,-0.217091,179.590460,-83.466440,-179.580078
01796,369309,9.823619,0.712563,0.282757,0.153711,-0.058018,0.074932,-0.710405,0.170213,-0.218040,-179.964106,-83.436954,-179.941261
01797,369409,10.114612,0.584441,0.323646,0.166432,-0.026194,0.083734,-0.706924,0.172624,-0.217412,-179.470324,-83.425401,179.656196
01798,369509,10.409727,0.472560,0.384244,0.177478,0.013665,0.097305,-0.710856,0.176296,-0.219734,-178.901074,-83.436210,179.184051
01799,369609,10.653898,0.440701,0.274533,0.184449,0.065320,0.113666,-0.709850,0.176304,-0.220234,-178.237098,-83.475851,178.620597
01800,369709,10.866920,0.452519,0.101904,0.165236,0.111140,0.137409,-0.709831,0.176352,-0.221234,-177.447291,-83.540450,177.919475
01801,369809,11.018099,0.556872,-0.098884,0.135773,0.146300,0.168301,-0.708298,0.177421,-0.223181,-176.491323,-83.623060,177.034244
01802,369909,11.155163,0.825250,-0.245518,0.081004,0.173396,0.195040,-0.708741,0.182532,-0.225427,-175.393796,-83.718325,175.975142
01803,370009,11.239209,1.098840,-0.397066,0.015367,0.185280,0.219260,-0.708696,0.187112,-0.227197,-174.168241,-83.816758,174.749579
01804,370109,11.424888,1.324280,-0.266749,-0.046216,0.193397,0.230450,-0.710126,0.186308,-0.230747,-172.874802,-83.916183,173.420432
01805,370209,11.846300,1.452792,0.060455,-0.085895,0.212377,0.231988,-0.705093,0.189837,-0.233067,-171.538532,-84.023042,172.025558
01806,370309,12.516531,1.429164,0.416847,-0.079687,0.264708,0.229831,-0.706045,0.193935,-0.234863,-170.112094,-84.156217,170.543868
01807,370409,13.481371,1.154355,0.764411,0.004535,0.378927,0.221525,-0.706963,0.196136,-0.238760,-168.486594,-84.350575,168.911013
01808,370509,14.511073,0.684062,0.704427,0.117640,0.536061,0.213539,-0.704889,0.200284,-0.242555,-166.508199,-84.628688,166.989390
01809,370609,15.248162,-0.056874,0.316677,0.212758,0.675927,0.198898,-0.702745,0.202132,-0.250475,-164.109245,-84.979282,164.701216
01810,370709,15.448613,-0.890119,-0.013546,0.251212,0.768077,0.202616,-0.699129,0.206873,-0.256742,-161.107962,-85.369543,161.832043
01811,370809,15.313851,-1.376935,-0.763137,0.228396,0.829597,0.231040,-0.698493,0.211687,-0.263511,-157.205916,-85.771772,158.047989
01812,370909,15.038125,-1.506126,-1.942361,0.180535,0.834731,0.279215,-0.695378,0.214443,-0.269881,-152.167643,-86.140885,153.099341
01813,371009,14.413920,-1.212728,-3.119166,0.159187,0.727632,0.318111,-0.694739,0.220752,-0.276573,-146.393671,-86.411190,147.403088
01814,371109,12.861338,-0.711156,-3.859771,0.132767,0.535384,0.326388,-0.692151,0.223444,-0.281443,-140.901744,-86.552021,141.975525
01815,371209,10.997695,-0.188623,-3.994929,0.119074,0.306602,0.292823,-0.691074,0.232565,-0.284484,-136.790957,-86.578150,137.924171
01816,371309,9.647144,0.290956,-3.499371,0.132250,0.103103,0.219762,-0.691067,0.236053,-0.284307,-134.519396,-86.536464,135.722847
01817,371409,9.011455,0.661501,-2.806088,0.169971,-0.014471,0.127604,-0.692558,0.238567,-0.284180,-133.673802,-86.482170,134.971623
01818,371509,8.031270,0.515560,-2.078653,0.188788,-0.026421,0.040584,-0.689048,0.241051,-0.285051,-133.473163,-86.458802,134.877303
01819,371609,6.781041,0.018723,-1.766546,0.222179,-0.084303,-0.016186,-0.689014,0.244113,-0.286398,-134.002388,-86.435948,135.533396
01820,371709,6.315263,-0.268401,-1.321665,0.210235,-0.093062,-0.072582,-0.689996,0.242184,-0.287500,-134.952798,-86.432036,136.604639
01821,371809,5.832614,-0.786074,-1.181405,0.231444,-0.008122,-0.126129,-0.687505,0.247601,-0.286720,-135.697291,-86.483228,137.481737
01822,371909,5.843321,-1.335197,-1.374062,0.241493,0.099939,-0.148149,-0.685981,0.248148,-0.288193,-135.899281,-86.587034,137.821074
01823,372009,6.270847,-1.652395,-1.635222,0.219819,0.182778,-0.152049,-0.685444,0.243776,-0.290921,-135.584853,-86.726279,137.630681
01824,372109,7.042202,-1.848048,-1.748170,0.209682,0.196810,-0.145546,-0.686390,0.246403,-0.293293,-135.102354,-86.868402,137.266222
01825,372209,7.960667,-1.739025,-1.625785,0.211345,0.174317,-0.112075,-0.684365,0.243977,-0.295419,-134.497051,-86.987506,136.779835
01826,372309,8.941124,-1.329348,-1.206258,0.223224,0.158572,-0.085522,-0.680353,0.242990,-0.296968,-133.760515,-87.088998,136.168941
01827,372409,9.729336,-0.858603,-1.146198,0.257642,0.153917,-0.073440,-0.683284,0.244178,-0.299917,-132.899539,-87.183096,135.453269
01828,372509,10.227025,-0.415944,-1.317492,0.293718,0.143609,-0.056316,-0.681792,0.243158,-0.299967,-131.918523,-87.265316,134.638164
01829,372609,10.617227,-0.031007,-1.500762,0.291565,0.128506,-0.034811,-0.680763,0.246204,-0.301314,-130.851701,-87.331799,133.735955
01830,372709,10.764562,0.240618,-1.549077,0.245465,0.110044,-0.017576,-0.680769,0.242716,-0.301491,-129.802709,-87.383067,132.825167
01831,372809,10.514916,0.471260,-1.325792,0.165189,0.093919,-0.013760,-0.681684,0.246412,-0.305313,-128.892680,-87.426031,132.007443
01832,372909,10.088987,0.477560,-0.984676,0.079556,0.074525,-0.016443,-0.680197,0.247361,-0.304761,-128.223309,-87.462736,131.381498
01833,373009,9.590586,0.303494,-0.635068,0.000522,0.035106,-0.017534,-0.677675,0.249387,-0.306159,-127.997879,-87.485756,131.154595
01834,373109,9.255729,0.056589,-0.199938,-0.064602,-0.009406,-0.018059,-0.681650,0.249972,-0.306634,-128.270752,-87.493250,131.389123
01835,373209,9.040383,-0.159530,0.236145,-0.113755,-0.042228,-0.016206,-0.679149,0.250455,-0.307108,-128.893421,-87.488091,131.945601
01836,373309,8.899595,-0.387946,0.553423,-0.151344,-0.044846,-0.013515,-0.677159,0.254385,-0.306404,-129.538590,-87.480502,132.503066
01837,373409,8.717192,-0.449862,0.682569,-0.170361,-0.025664,-0.019738,-0.678623,0.255975,-0.307828,-130.051456,-87.482425,132.917220
01838,373509,8.493554,-0.429072,0.698008,-0.178737,0.010774,-0.036534,-0.676637,0.257415,-0.307251,-130.348372,-87.505030,133.110431
01839,373609,8.216300,-0.418590,0.621201,-0.171140,0.056663,-0.056330,-0.679073,0.257100,-0.310276,-130.350301,-87.553261,133.012758
01840,373709,7.961681,-0.396583,0.490153,-0.154690,0.102511,-0.076014,-0.678043,0.260146,-0.311623,-130.032837,-87.627026,132.604866
01841,373809,7.737338,-0.391148,0.295763,-0.136587,0.122160,-0.084850,-0.676052,0.259118,-0.311673,-129.545187,-87.711735,132.037071
01842,373909,7.772131,-0.344675,0.126950,-0.119439,0.110799,-0.091799,-0.676537,0.261641,-0.312046,-129.203395,-87.795190,131.625127
01843,374009,7.900134,-0.285023,0.098945,-0.108722,0.081706,-0.104415,-0.678455,0.261865,-0.316045,-129.297592,-87.873630,131.655665
01844,374109,8.080371,-0.368250,0.141347,-0.107303,0.055555,-0.108665,-0.676979,0.261794,-0.315045,-129.761401,-87.944373,132.056887
01845,374209,8.258850,-0.482133,0.202362,-0.110243,0.012793,-0.106556,-0.676438,0.259913,-0.317645,-130.770333,-87.998131,133.001894
01846,374309,8.571586,-0.662711,0.335111,-0.124542,-0.015892,-0.091453,-0.673938,0.264856,-0.317390,-132.029442,-88.033820,134.189030
01847,374409,8.771531,-0.820518,0.453609,-0.137211,-0.037833,-0.064063,-0.675865,0.265554,-0.320865,-133.292309,-88.048498,135.372678
01848,374509,8.852244,-0.943601,0.445541,-0.160002,-0.071771,-0.025335,-0.673914,0.262935,-0.318991,-134.535697,-88.032773,136.523807
01849,374609,8.839762,-0.936397,0.523823,-0.182465,-0.105962,-0.001270,-0.672384,0.267468,-0.320262,-135.880006,-87.992510,137.763094
01850,374709,8.928884,-0.737190,0.731351,-0.213208,-0.110528,-0.004748,-0.675884,0.270464,-0.319111,-137.279976,-87.950675,139.040513
01851,374809,8.352868,-1.038411,0.945207,-0.176881,-0.108267,0.008523,-0.678912,0.269419,-0.317163,-138.424696,-87.903679,140.083419
01852,374909,8.096632,-1.126393,0.924996,-0.144403,-0.154028,0.011301,-0.679400,0.269451,-0.317663,-139.920192,-87.834916,141.496048
01853,375009,8.335271,-1.102445,1.040462,-0.140115,-0.172473,-0.000058,-0.678402,0.270432,-0.317612,-141.620593,-87.760622,143.116299
01854,375109,8.558889,-1.075245,1.038649,-0.102718,-0.166738,-0.009294,-0.679875,0.271998,-0.318536,-143.247101,-87.690367,144.684164
01855,375209,8.950903,-1.004306,0.885311,-0.060154,-0.149939,-0.023081,-0.681380,0.271500,-0.318062,-144.774840,-87.630839,146.177691
01856,375309,9.321998,-0.968217,0.648594,-0.033789,-0.135874,-0.039718,-0.680382,0.272480,-0.318011,-146.293332,-87.581729,147.677171
01857,375409,9.595358,-0.991467,0.461367,-0.011595,-0.147945,-0.061373,-0.679433,0.272344,-0.315512,-148.066589,-87.531725,149.444459
01858,375509,9.912429,-1.014116,0.415217,0.006560,-0.179160,-0.076649,-0.680878,0.268527,-0.318714,-150.131794,-87.468346,151.514490
01859,375609,10.376407,-0.913458,0.492437,0.016540,-0.176885,-0.093891,-0.680413,0.270415,-0.316613,-152.266710,-87.407584,153.660150
01860,375709,10.724154,-0.748590,0.593992,0.044516,-0.170833,-0.117950,-0.685346,0.271611,-0.319063,-154.520676,-87.352458,155.941148
01861,375809,10.877972,-0.693927,0.471935,0.098931,-0.155123,-0.146164,-0.686815,0.270710,-0.320614,-156.887622,-87.308018,158.366568
01862,375909,10.884006,-0.826351,0.210803,0.164093,-0.133489,-0.177525,-0.685892,0.266042,-0.317343,-159.395974,-87.276990,160.971024
01863,376009,10.998278,-1.142450,0.061570,0.231327,-0.096950,-0.206954,-0.686343,0.266171,-0.319843,-162.002186,-87.265814,163.712090
01864,376109,11.396303,-1.352404,0.114041,0.284078,-0.070557,-0.225619,-0.687825,0.262755,-0.321021,-164.682064,-87.266166,166.557211
01865,376209,12.143487,-1.279135,0.589608,0.300430,-0.050084,-0.240526,-0.688845,0.259733,-0.320174,-167.467562,-87.273488,169.517476
01866,376309,12.967282,-1.002599,1.477475,0.286965,-0.015097,-0.253956,-0.693286,0.257433,-0.322801,-170.357702,-87.295006,172.574775
01867,376409,13.748643,-0.425773,2.396611,0.232736,0.059885,-0.270242,-0.689763,0.256976,-0.324825,-173.411518,-87.352912,175.764742
01868,376509,14.335056,0.438757,2.798250,0.132651,0.191370,-0.275200,-0.695212,0.253173,-0.327029,-176.618713,-87.478002,179.050600
01869,376609,14.462587,1.434914,2.350012,0.044755,0.334711,-0.293102,-0.691655,0.250820,-0.331153,179.534947,-87.676224,-177.074677
01870,376709,14.131181,2.131253,1.540904,-0.009609,0.466745,-0.333379,-0.694080,0.251526,-0.334627,174.137820,-87.935063,-171.679896
01871,376809,13.587909,2.537752,0.552419,-0.056803,0.554417,-0.380309,-0.689017,0.250169,-0.339200,166.049966,-88.213108,-163.620925
01872,376909,13.243720,2.677023,-0.784789,-0.102614,0.571337,-0.429749,-0.692427,0.246954,-0.343877,154.174789,-88.439970,-151.800493
01873,377009,12.864499,2.087908,-2.263313,-0.139005,0.515534,-0.475331,-0.689854,0.246135,-0.348425,139.192866,-88.539096,-136.894102
01874,377109,12.318628,1.026313,-3.499702,-0.160989,0.387743,-0.497215,-0.690347,0.243675,-0.349053,125.314629,-88.477580,-123.104526
01875,377209,11.245992,-0.059396,-4.350899,-0.195838,0.208405,-0.492610,-0.687790,0.244801,-0.352500,116.345575,-88.295793,-114.245254
01876,377309,9.770128,-0.485126,-4.480459,-0.282231,-0.000725,-0.449979,-0.691789,0.241850,-0.352154,112.768373,-88.060687,-110.829100
01877,377409,8.361043,-0.507539,-4.131114,-0.331013,-0.243970,-0.394524,-0.692835,0.240251,-0.349731,113.622810,-87.797448,-111.874932
01878,377509,7.566338,-0.322105,-3.368033,-0.352057,-0.408191,-0.343794,-0.692882,0.239633,-0.347257,116.521678,-87.519454,-114.979152
01879,377609,7.131173,-0.015376,-2.514894,-0.315895,-0.470921,-0.298218,-0.693941,0.240975,-0.343683,119.747013,-87.241116,-118.390092
01880,377709,7.417790,0.375219,-1.642146,-0.247186,-0.450884,-0.250946,-0.697028,0.237792,-0.338838,122.487731,-86.984181,-121.277158
01881,377809,8.209374,0.767606,-0.749681,-0.209725,-0.326468,-0.206084,-0.697043,0.239737,-0.337737,124.023816,-86.782625,-122.936933
01882,377909,9.107619,1.000574,-0.508255,-0.191386,-0.140290,-0.150560,-0.698577,0.238169,-0.335814,124.205623,-86.665905,-123.229964
01883,378009,9.853424,1.013821,-0.986165,-0.179775,0.008057,-0.083125,-0.697063,0.238692,-0.336788,123.558998,-86.628690,-122.686516
01884,378109,10.174798,0.815554,-1.678600,-0.161536,0.076661,-0.025243,-0.698559,0.238217,-0.336814,122.682386,-86.640279,-121.902217
01885,378209,10.360626,0.651397,-2.130125,-0.150660,0.097694,0.021568,-0.698058,0.239704,-0.336737,121.874871,-86.680272,-121.180914
01886,378309,10.528502,0.280573,-2.169224,-0.143551,0.093954,0.064907,-0.697602,0.242067,-0.334111,121.311330,-86.739767,-120.699940
01887,378409,10.431873,-0.165708,-2.017527,-0.153717,0.066066,0.110816,-0.697100,0.244052,-0.334010,121.211886,-86.813287,-120.689647
01888,378509,10.110258,-0.508033,-1.823489,-0.192053,0.003351,0.156992,-0.697626,0.243988,-0.332510,121.906707,-86.890552,-121.496794
01889,378609,9.649950,-0.534484,-1.492785,-0.243612,-0.080733,0.193924,-0.697120,0.248464,-0.332282,123.588928,-86.958631,-123.322267
01890,378709,9.347925,-0.447919,-0.888498,-0.290131,-0.137035,0.226268,-0.698170,0.249830,-0.329207,126.034651,-87.019956,-125.938855
01891,378809,9.145965,-0.104625,-0.402440,-0.306507,-0.142745,0.245624,-0.699180,0.252289,-0.328080,128.758227,-87.081858,-128.842900
01892,378909,8.859192,0.288587,-0.118618,-0.271205,-0.120973,0.244150,-0.702687,0.256756,-0.326354,131.418852,-87.144064,-131.663496
01893,379009,8.587308,0.765751,-0.049182,-0.197401,-0.091517,0.222142,-0.703198,0.260203,-0.325176,133.809820,-87.202085,-134.171630
01894,379109,8.303780,1.075475,-0.069516,-0.115369,-0.069688,0.189777,-0.705661,0.259816,-0.326702,135.887510,-87.250896,-136.318966
01895,379209,8.043047,1.278572,-0.084882,-0.042505,-0.058938,0.157442,-0.706191,0.262717,-0.324550,137.702244,-87.287936,-138.161197
01896,379309,7.759683,1.324628,-0.105204,0.007156,-0.055045,0.121786,-0.707219,0.265626,-0.322399,139.231929,-87.310503,-139.689554
01897,379409,7.596343,1.333373,-0.091527,0.032320,-0.049655,0.083590,-0.707723,0.262645,-0.322552,140.396500,-87.319590,-140.837964
01898,379509,7.613433,1.070055,0.029761,0.026340,-0.034031,0.063612,-0.708218,0.264147,-0.322476,141.253403,-87.327427,-141.681810
01899,379609,7.604423,0.958255,-0.028043,-0.000662,-0.026234,0.057130,-0.709232,0.264613,-0.321451,141.977429,-87.335908,-142.408128
01900,379709,7.577472,0.752026,-0.053652,-0.035020,-0.023972,0.055155,-0.710728,0.263641,-0.321502,142.649758,-87.344304,-143.102404
01901,379809,7.587195,0.563769,-0.065737,-0.066037,-0.018713,0.061416,-0.710713,0.267152,-0.321824,143.331815,-87.356883,-143.824206
01902,379909,7.735758,0.484124,-0.038642,-0.086300,-0.006355,0.073869,-0.714712,0.264700,-0.321452,144.044121,-87.378986,-144.587903
01903,380009,7.846788,0.482744,-0.120916,-0.092866,0.010314,0.077550,-0.713697,0.264733,-0.322452,144.681435,-87.409665,-145.280282
01904,380109,7.908865,0.417073,-0.254949,-0.082536,-0.001872,0.081898,-0.713238,0.263632,-0.320503,145.474971,-87.435646,-146.123101
01905,380209,8.042452,0.331609,-0.340369,-0.066187,-0.049052,0.091177,-0.717245,0.266612,-0.318852,146.729130,-87.441471,-147.417614
01906,380309,8.274961,0.319190,-0.355335,-0.049599,-0.127445,0.105950,-0.718212,0.267697,-0.320302,148.683388,-87.412219,-149.403431
01907,380409,8.499091,0.357186,-0.277974,-0.016864,-0.189967,0.119921,-0.716779,0.264539,-0.317455,151.141068,-87.352564,-151.874488
01908,380509,8.625564,0.413252,-0.054722,0.003424,-0.224941,0.130296,-0.719276,0.265551,-0.316905,153.796895,-87.272908,-154.532414
01909,380609,8.626934,0.456285,0.209225,0.020426,-0.250524,0.139410,-0.718778,0.265543,-0.316905,156.522812,-87.176383,-157.250954
01910,380709,8.695694,0.608224,0.538575,0.012852,-0.264393,0.144485,-0.722875,0.265318,-0.310908,159.167508,-87.067546,-159.892760
01911,380809,8.708336,0.891308,0.736797,-0.001984,-0.257728,0.151025,-0.722361,0.263863,-0.311984,161.653851,-86.957753,-162.384779
01912,380909,8.688205,1.159692,0.941440,-0.010559,-0.218729,0.152685,-0.720920,0.265190,-0.308908,163.861557,-86.864384,-164.602925
01913,381009,8.557558,1.343804,0.890300,-0.013432,-0.161428,0.146560,-0.727891,0.261338,-0.309614,165.732949,-86.797609,-166.486081
01914,381109,8.490491,1.292270,0.724894,-0.022802,-0.109212,0.131865,-0.724929,0.267173,-0.307309,167.261151,-86.754918,-168.031000
01915,381209,8.723524,1.110123,0.638645,-0.015628,-0.073222,0.112600,-0.725473,0.262103,-0.305564,168.492473,-86.728007,-169.274509
01916,381309,9.304617,0.853455,0.540235,-0.000699,-0.056509,0.098736,-0.728978,0.262608,-0.304540,169.545751,-86.707594,-170.331152
01917,381409,9.922003,0.539300,0.417824,0.021575,-0.068593,0.098297,-0.729938,0.262222,-0.306565,170.613537,-86.679215,-171.389572
01918,381509,10.547784,0.207430,0.561760,0.040094,-0.072591,0.107712,-0.728489,0.257618,-0.304794,171.770357,-86.648235,-172.526574
01919,381609,10.928582,-0.105106,0.694249,0.056114,-0.025102,0.129115,-0.728475,0.255175,-0.305920,173.065204,-86.644459,-173.792653
01920,381709,11.180238,-0.181529,0.522094,0.054166,0.052864,0.157611,-0.727005,0.257072,-0.304319,174.560078,-86.685074,-175.260179
01921,381809,11.386215,-0.141490,0.144464,0.019899,0.122997,0.193309,-0.729947,0.262198,-0.306065,176.383310,-86.764889,-177.076165
01922,381909,11.518250,0.036607,-0.164512,-0.049340,0.160677,0.250100,-0.729908,0.258332,-0.308767,178.838182,-86.863719,-179.564333
01923,382009,11.465932,0.684926,-0.370430,-0.139693,0.156234,0.289112,-0.727428,0.257272,-0.308317,-178.185526,-86.953222,177.373691
01924,382109,11.613994,1.290809,-0.225212,-0.224842,0.135303,0.304357,-0.733361,0.261450,-0.310115,-174.938661,-87.021136,173.992116
01925,382209,12.075150,1.638805,0.286488,-0.259036,0.129543,0.297825,-0.728434,0.262222,-0.307064,-171.651712,-87.075982,170.550945
01926,382309,12.822510,1.678587,1.152144,-0.222322,0.170167,0.273770,-0.729898,0.263813,-0.308488,-168.402780,-87.145991,167.169069
01927,382409,13.765252,1.289735,2.147957,-0.122880,0.294875,0.238003,-0.729860,0.264408,-0.310462,-164.966818,-87.280280,163.657268
01928,382509,14.827139,0.608113,2.545224,-0.005256,0.508556,0.189482,-0.728290,0.265075,-0.314434,-160.807880,-87.528314,159.489772
01929,382609,15.662525,-0.539857,1.949304,0.094276,0.727540,0.165729,-0.727170,0.266867,-0.320855,-154.635033,-87.879982,153.364801
01930,382709,15.505206,-1.216672,0.759337,0.150897,0.851005,0.176499,-0.724045,0.265686,-0.328427,-144.668413,-88.252555,143.477858
01931,382809,14.407132,-1.517376,-0.644598,0.115847,0.868528,0.202290,-0.725414,0.268514,-0.334798,-129.410083,-88.541810,128.278878
01932,382909,13.512489,-1.871035,-2.095027,0.050456,0.804130,0.229660,-0.723786,0.270322,-0.341719,-110.234151,-88.659844,109.125099
01933,383009,12.776817,-1.869219,-3.273008,0.056002,0.662558,0.259760,-0.725651,0.274154,-0.348039,-93.351060,-88.592196,92.268188
01934,383109,11.766523,-1.783088,-4.130301,0.117193,0.437074,0.293575,-0.725109,0.278228,-0.349835,-83.806516,-88.418198,82.786481
01935,383209,10.440800,-1.173366,-4.414627,0.189514,0.169002,0.294076,-0.721596,0.277249,-0.351384,-81.134970,-88.239278,80.221331
01936,383309,9.405327,-0.680297,-3.750822,0.244992,-0.087951,0.253634,-0.724605,0.281210,-0.349682,-83.155656,-88.103030,82.382385
01937,383409,8.634575,-0.501106,-2.861718,0.312561,-0.279582,0.194367,-0.727626,0.284150,-0.347532,-87.914285,-88.005275,87.321840
01938,383509,8.221274,-0.502863,-2.258820,0.363191,-0.373159,0.127296,-0.726678,0.283018,-0.345083,-93.689712,-87.930194,93.308015
01939,383609,7.761137,-0.659893,-1.996091,0.394123,-0.387122,0.060008,-0.728666,0.285541,-0.344957,-99.361462,-87.871731,99.208433
01940,383709,7.504812,-0.858630,-1.818276,0.399639,-0.366054,0.003543,-0.732728,0.283916,-0.341036,-104.579754,-87.827189,104.658443
01941,383809,7.714418,-1.128436,-1.595629,0.405889,-0.280075,-0.023365,-0.734718,0.280484,-0.341714,-108.468509,-87.795351,108.781683
01942,383909,8.289723,-1.172727,-1.365299,0.398350,-0.170079,-0.034699,-0.735763,0.278885,-0.339291,-110.787936,-87.782313,111.330182
01943,384009,9.093497,-0.794851,-1.165874,0.375893,-0.093194,-0.056522,-0.737757,0.277920,-0.339343,-112.164537,-87.793860,112.922285
01944,384109,9.841555,-0.501295,-0.785955,0.346014,-0.038817,-0.086563,-0.742723,0.276553,-0.340420,-113.001900,-87.832067,113.957601
01945,384209,10.333736,-0.206286,-0.525800,0.331911,0.013156,-0.104582,-0.742752,0.270526,-0.339725,-113.255933,-87.891083,114.401059
01946,384309,10.494154,0.211023,-0.664869,0.331242,0.059075,-0.132794,-0.744252,0.272518,-0.339124,-113.032149,-87.975304,114.365975
01947,384409,10.286706,0.724678,-1.070491,0.321523,0.061042,-0.158987,-0.745256,0.268050,-0.339353,-112.946179,-88.073788,114.463197
01948,384509,9.724177,1.139300,-1.427702,0.289230,0.018705,-0.187192,-0.745235,0.264137,-0.341056,-113.780839,-88.177481,115.462994
01949,384609,9.069404,1.469501,-1.464773,0.223250,-0.050853,-0.204381,-0.746720,0.264184,-0.341556,-116.102284,-88.272394,117.912379
01950,384709,8.667762,1.724834,-1.087888,0.130776,-0.098567,-0.232531,-0.748758,0.259636,-0.339787,-119.862560,-88.364617,121.748051
01951,384809,8.417203,1.648590,-0.538514,0.040968,-0.093351,-0.256861,-0.752227,0.259241,-0.340812,-124.308172,-88.461996,126.217632
01952,384909,8.274663,1.345098,-0.185296,-0.034910,-0.070402,-0.253036,-0.752768,0.256163,-0.338966,-128.908053,-88.555418,130.797823
01953,385009,8.152230,0.913510,0.010471,-0.103268,-0.056414,-0.230383,-0.752242,0.256228,-0.340465,-133.523990,-88.634483,135.354709
01954,385109,8.078422,0.314949,0.126260,-0.162731,-0.045208,-0.198323,-0.751746,0.254725,-0.340541,-137.908562,-88.696299,139.645953
01955,385209,8.111970,-0.208517,0.109047,-0.214104,-0.036539,-0.164354,-0.754756,0.253229,-0.339619,-141.882347,-88.741913,143.496783
01956,385309,8.133559,-0.600577,-0.013759,-0.254270,-0.047118,-0.124646,-0.755783,0.251678,-0.338196,-145.434014,-88.763395,146.902341
01957,385409,8.175227,-0.778273,-0.133585,-0.290530,-0.069625,-0.093267,-0.755314,0.251100,-0.336722,-148.709428,-88.759810,150.010808
01958,385509,8.308050,-0.871792,-0.075727,-0.321879,-0.064861,-0.068848,-0.758809,0.251630,-0.336197,-151.350172,-88.748132,152.466519
01959,385609,8.369497,-0.755126,-0.021714,-0.312806,-0.042929,-0.052509,-0.759311,0.254603,-0.335545,-153.298572,-88.741105,154.234944
01960,385709,8.362653,-0.603224,0.017474,-0.302159,-0.029683,-0.041147,-0.760322,0.251605,-0.335198,-154.805059,-88.736888,155.567469
01961,385809,8.383425,-0.468513,0.047064,-0.305049,-0.035388,-0.030286,-0.760309,0.253622,-0.335597,-156.105495,-88.726397,156.692253
01962,385909,8.489289,-0.364461,0.219064,-0.335295,-0.055676,-0.029317,-0.764302,0.254658,-0.335047,-157.577973,-88.704404,157.971805
01963,386009,8.651462,-0.292856,0.269701,-0.387029,-0.073366,-0.027587,-0.763361,0.254497,-0.332048,-159.150067,-88.671876,159.321372
01964,386109,8.785755,-0.328556,0.303062,-0.407132,-0.075763,-0.023874,-0.765279,0.254722,-0.336047,-160.597306,-88.636530,160.534556
01965,386209,8.856702,-0.313294,0.196901,-0.392927,-0.071348,-0.019206,-0.765318,0.253629,-0.334099,-161.831834,-88.602067,161.543135
01966,386309,8.868406,-0.434703,0.138940,-0.363850,-0.078100,-0.017500,-0.767845,0.254070,-0.332075,-163.003242,-88.563122,162.505266
01967,386409,8.883989,-0.716048,0.299914,-0.314892,-0.091318,-0.016395,-0.767859,0.256513,-0.330948,-164.146814,-88.516266,163.467645
01968,386509,8.831492,-0.985744,0.512413,-0.275574,-0.094706,-0.011465,-0.767887,0.256441,-0.329449,-165.119255,-88.466352,164.281411
01969,386609,8.659481,-1.257564,0.697555,-0.249583,-0.114052,-0.003535,-0.771377,0.255002,-0.329526,-165.958006,-88.404247,164.976383
01970,386709,8.503095,-1.418229,0.877881,-0.230481,-0.133464,0.002768,-0.773351,0.255081,-0.330527,-166.694934,-88.330238,165.580489
01971,386809,8.402014,-1.527468,0.942153,-0.192715,-0.134958,0.003203,-0.776403,0.255458,-0.327003,-167.350902,-88.255147,166.125301
01972,386909,8.387552,-1.501145,0.878228,-0.142505,-0.122573,0.004821,-0.776884,0.255016,-0.328028,-167.852532,-88.186639,166.544531
01973,387009,8.564393,-1.375841,0.710590,-0.083410,-0.106827,0.003741,-0.778446,0.253376,-0.324606,-168.249017,-88.126995,166.892478
01974,387109,8.942305,-1.235146,0.678557,-0.036624,-0.088398,-0.009033,-0.781941,0.254404,-0.324057,-168.747068,-88.079081,167.368901
01975,387209,9.434365,-1.011638,0.718828,-0.014346,-0.059317,-0.024634,-0.779485,0.250307,-0.322760,-169.374389,-88.049082,167.987469
01976,387309,9.911023,-0.887158,0.712216,-0.000643,-0.034815,-0.044139,-0.781958,0.249896,-0.323786,-170.224027,-88.034623,168.836363
01977,387409,10.378434,-0.708879,0.689836,0.021366,-0.025907,-0.062424,-0.786449,0.250940,-0.323236,-171.325467,-88.026402,169.949843
01978,387509,10.871219,-0.489708,0.560403,0.048048,-0.026849,-0.089926,-0.785939,0.246994,-0.324439,-172.855487,-88.018948,171.507468
01979,387609,11.078870,-0.435795,0.259734,0.096227,-0.037379,-0.115630,-0.788390,0.248625,-0.326363,-174.782974,-88.005470,173.490437
01980,387709,11.089080,-0.528011,-0.052915,0.156443,-0.076821,-0.139014,-0.789462,0.242493,-0.323169,-177.061184,-87.967885,175.858906
01981,387809,11.047974,-0.783446,-0.217385,0.221532,-0.126005,-0.161673,-0.789407,0.242139,-0.326194,-179.577836,-87.899054,178.503379
01982,387909,11.074369,-1.338987,-0.119551,0.275367,-0.158578,-0.165867,-0.795451,0.235613,-0.323527,178.058661,-87.807532,-178.974380
01983,388009,11.470238,-1.707840,0.280598,0.291465,-0.164580,-0.150424,-0.795445,0.234142,-0.324103,176.131168,-87.709568,-176.879063
01984,388109,12.293299,-1.592934,1.114745,0.259789,-0.120197,-0.134542,-0.799415,0.232261,-0.325205,174.511329,-87.635232,-175.109664
01985,388209,13.268408,-1.139500,2.185455,0.183784,0.001056,-0.127290,-0.801464,0.231649,-0.322232,172.845678,-87.628421,-173.337925
01986,388309,14.329456,-0.379493,3.267092,0.097594,0.185443,-0.131340,-0.800382,0.227889,-0.327434,170.673807,-87.723458,-171.109018
01987,388409,15.281104,0.650993,3.578991,-0.001756,0.444424,-0.146899,-0.803309,0.226112,-0.331035,167.163529,-87.957947,-167.597981
01988,388509,15.234256,1.209096,2.687093,-0.042880,0.722880,-0.154633,-0.801242,0.226273,-0.335033,160.967036,-88.333070,-161.423600
01989,388609,14.706135,1.620196,0.997622,-0.035064,0.864758,-0.187277,-0.805555,0.222816,-0.344733,148.865330,-88.739078,-149.338911
01990,388709,14.375730,1.879614,-0.794560,0.028031,0.900788,-0.211441,-0.799901,0.222190,-0.354279,126.028255,-89.043549,-126.482487
01991,388809,13.874041,1.815714,-2.787051,0.082520,0.849783,-0.236039,-0.799843,0.217875,-0.358006,94.754275,-89.087702,-95.158105
01992,388909,12.803181,1.601596,-4.321035,0.094169,0.680738,-0.253401,-0.800172,0.219312,-0.366952,73.418323,-88.899047,-73.765871
01993,389009,10.945672,1.369975,-5.457008,0.004231,0.389207,-0.273729,-0.800656,0.216877,-0.368079,66.085912,-88.673364,-66.430309
01994,389109,9.085892,1.118233,-6.063118,-0.150319,-0.069391,-0.245804,-0.801587,0.217062,-0.371578,69.706064,-88.556887,-70.138596
01995,389209,8.183544,0.915328,-4.993829,-0.365122,-0.498713,-0.196706,-0.802668,0.216362,-0.367105,81.444863,-88.517856,-82.091408
01996,389309,8.069692,0.948937,-2.920132,-0.512113,-0.698022,-0.168114,-0.806779,0.218580,-0.359982,96.250645,-88.428043,-97.196873
01997,389409,8.060796,1.271825,-1.504100,-0.558390,-0.718147,-0.158342,-0.807871,0.216860,-0.355061,109.086891,-88.247424,-110.359511
01998,389509,8.294443,1.726215,-0.815673,-0.485332,-0.639416,-0.184294,-0.809428,0.217712,-0.351511,117.783407,-88.003510,-119.339877
01999,389609,8.879243,2.156957,-0.467719,-0.342652,-0.482180,-0.199484,-0.811539,0.218925,-0.344939,122.481734,-87.765234,-124.238893
02000,389709,9.564081,2.109599,-0.575786,-0.216581,-0.341199,-0.195788,-0.812055,0.214425,-0.344668,124.803377,-87.562996,-126.687725
02001,389809,10.173241,1.622218,-0.883148,-0.159505,-0.240501,-0.179814,-0.811565,0.214891,-0.344142,125.892221,-87.398743,-127.870186
02002,389909,10.299639,0.882835,-1.325324,-0.165582,-0.161127,-0.136989,-0.814629,0.214247,-0.340170,126.386964,-87.280419,-128.461531
02003,390009,10.261857,0.183273,-1.757396,-0.183019,-0.092762,-0.103473,-0.814599,0.215814,-0.341593,126.421879,-87.200666,-128.602560
02004,390109,10.055975,-0.633058,-2.202024,-0.234892,-0.072421,-0.036059,-0.811103,0.215285,-0.342118,126.697256,-87.158864,-129.014089
02005,390209,9.609097,-1.348868,-2.316602,-0.292401,-0.117391,0.064805,-0.812135,0.216201,-0.340068,128.041754,-87.147076,-130.529032
02006,390309,9.171019,-1.649863,-2.155485,-0.343090,-0.203550,0.174143,-0.815174,0.219591,-0.336892,130.910570,-87.149513,-133.599232
02007,390409,8.815983,-1.475749,-1.534161,-0.360902,-0.266481,0.248607,-0.817189,0.222540,-0.335241,134.882871,-87.149557,-137.784468
02008,390509,8.567639,-0.958238,-0.889968,-0.332922,-0.290638,0.281923,-0.817276,0.225787,-0.330065,139.320732,-87.137196,-142.419792
02009,390609,8.361415,-0.311234,-0.523098,-0.277109,-0.283919,0.273145,-0.817767,0.229282,-0.329887,143.598488,-87.107194,-146.862867
02010,390709,8.141946,0.295460,-0.293775,-0.200907,-0.249522,0.244723,-0.817309,0.233140,-0.327185,147.331944,-87.068693,-150.717358
02011,390809,7.852035,0.789745,-0.264242,-0.120591,-0.225901,0.191903,-0.820392,0.232448,-0.322213,150.363387,-87.014636,-153.822992
02012,390909,7.610998,1.117951,-0.250989,-0.059192,-0.216411,0.126741,-0.823378,0.233492,-0.322163,152.642267,-86.940181,-156.139985
02013,391009,7.469477,1.187728,-0.235923,-0.011666,-0.216242,0.076221,-0.822884,0.236449,-0.321511,154.358622,-86.848686,-157.866551
02014,391109,7.423672,1.248082,-0.356312,0.033533,-0.214383,0.046371,-0.825890,0.232487,-0.321215,155.719078,-86.748462,-159.210902
02015,391209,7.488280,1.226876,-0.664896,0.055108,-0.196810,0.025140,-0.826447,0.235316,-0.317564,156.751363,-86.651002,-160.214304
02016,391309,7.484986,1.032239,-0.760927,0.063569,-0.197680,0.035313,-0.829457,0.234318,-0.316617,157.823144,-86.554283,-161.252528
02017,391409,7.694129,0.942446,-0.690284,0.039070,-0.211405,0.046848,-0.830495,0.231248,-0.314770,158.968238,-86.451509,-162.378384
02018,391509,7.871946,0.815732,-0.676659,0.018864,-0.228912,0.061525,-0.830938,0.231401,-0.317769,160.214663,-86.340852,-163.617512
02019,391609,8.096371,0.786638,-0.636967,0.024701,-0.229980,0.062415,-0.833030,0.232662,-0.312196,161.401119,-86.228155,-164.793358
02020,391709,8.282561,0.852740,-0.596003,0.048796,-0.217424,0.058124,-0.832997,0.230268,-0.314322,162.465664,-86.120063,-165.833342
02021,391809,8.412711,0.799776,-0.596639,0.082385,-0.207444,0.043929,-0.834562,0.227133,-0.310976,163.356498,-86.013880,-166.680055
02022,391909,8.500421,0.666291,-0.460461,0.124939,-0.214649,0.035249,-0.836053,0.229150,-0.310875,164.174976,-85.901492,-167.429909
02023,392009,8.599881,0.577527,-0.281085,0.176547,-0.228245,0.025001,-0.837587,0.227582,-0.308952,164.931195,-85.779322,-168.087806
02024,392109,8.709800,0.579708,-0.071537,0.221930,-0.244152,0.012341,-0.836133,0.225968,-0.307029,165.610580,-85.645916,-168.642691
02025,392209,8.850369,0.387129,0.149181,0.253146,-0.248683,0.014669,-0.839638,0.225975,-0.306030,166.295191,-85.509843,-169.184978
02026,392309,8.863219,0.457655,0.252031,0.272817,-0.243881,0.036941,-0.841638,0.226979,-0.305480,167.100768,-85.378865,-169.837408
02027,392409,8.780881,0.694168,0.283530,0.266246,-0.226624,0.063668,-0.844654,0.227452,-0.303956,168.017574,-85.260091,-170.605339
02028,392509,8.653552,1.011812,0.378064,0.237140,-0.197243,0.081640,-0.844658,0.224961,-0.304083,168.957151,-85.158881,-171.412987
02029,392609,8.509378,1.327039,0.561702,0.198521,-0.144259,0.092495,-0.842689,0.222390,-0.303210,169.847269,-85.087607,-172.193323
02030,392709,8.448087,1.534493,0.673991,0.156720,-0.093434,0.092826,-0.845666,0.223459,-0.303660,170.636918,-85.044117,-172.896943
02031,392809,8.435271,1.638989,0.587622,0.110085,-0.051422,0.083636,-0.843151,0.221498,-0.305260,171.285313,-85.022832,-173.485653
02032,392909,8.556464,1.572847,0.444842,0.080617,-0.016223,0.068432,-0.844176,0.221442,-0.303761,171.779682,-85.019717,-173.936731
02033,393009,8.803915,1.437469,0.179876,0.072544,0.006187,0.052898,-0.847680,0.221947,-0.302737,172.147343,-85.027789,-174.265280
02034,393109,9.082763,1.191021,-0.079999,0.067655,-0.005494,0.049133,-0.846134,0.219577,-0.305863,172.498630,-85.028767,-174.580216
02035,393209,9.391174,0.996625,-0.113210,0.062008,-0.027991,0.050416,-0.847102,0.220163,-0.307337,172.873500,-85.016890,-174.922085
02036,393309,9.782429,0.666669,0.074845,0.050877,-0.033952,0.078567,-0.845592,0.218195,-0.308438,173.428030,-85.003316,-175.450708
02037,393409,10.215398,0.577586,0.193747,0.050067,-0.014967,0.108570,-0.844116,0.218621,-0.307412,174.161477,-85.001911,-176.159406
02038,393509,10.662144,0.486064,0.187977,0.041739,0.008322,0.141269,-0.844042,0.218315,-0.311436,175.089871,-85.014666,-177.068575
02039,393609,11.073496,0.490105,0.086515,0.006726,0.022681,0.177574,-0.845007,0.220396,-0.312834,176.234920,-85.035777,-178.215334
02040,393709,11.478022,0.626931,-0.039845,-0.059522,0.023628,0.213389,-0.845026,0.220348,-0.311835,177.587903,-85.056376,-179.608872
02041,393809,11.843374,0.933091,-0.073249,-0.121691,0.023110,0.242893,-0.844995,0.221915,-0.313258,179.111959,-85.074149,178.790158
02042,393909,12.324632,1.101025,0.167003,-0.166484,0.056302,0.271017,-0.842031,0.223788,-0.311656,-179.188849,-85.107088,176.987699
02043,394009,12.863794,1.277316,0.501708,-0.180884,0.137152,0.282279,-0.843946,0.225507,-0.315579,-177.374815,-85.181420,175.061834
02044,394109,13.412506,1.245280,0.946528,-0.138467,0.256500,0.275005,-0.843399,0.227114,-0.318001,-175.464259,-85.318960,173.063788
02045,394209,14.098677,0.730172,1.441641,-0.062242,0.409742,0.273190,-0.840284,0.229871,-0.324371,-173.277099,-85.538031,170.832575
02046,394309,14.723915,0.173347,1.583668,0.034529,0.604571,0.269571,-0.839645,0.231221,-0.331817,-170.591171,-85.860237,168.157619
02047,394409,15.124519,-0.622467,0.897431,0.118149,0.795642,0.269393,-0.838514,0.234034,-0.338687,-167.046703,-86.278610,164.671399
02048,394509,14.894654,-1.304514,-0.401532,0.127100,0.875067,0.291776,-0.833883,0.233850,-0.346708,-162.177903,-86.718994,159.865251
02049,394609,14.040648,-1.558525,-1.532667,0.094979,0.817781,0.330831,-0.835710,0.238276,-0.355002,-155.752866,-87.089870,153.484155
02050,394709,13.466042,-1.554674,-2.233820,0.086725,0.748465,0.348629,-0.829586,0.242528,-0.362294,-147.877129,-87.375235,145.647827
02051,394809,12.822815,-1.377793,-3.271916,0.105353,0.663627,0.356551,-0.826997,0.245719,-0.367139,-138.985453,-87.560536,136.806750
02052,394909,11.765118,-1.016800,-4.095218,0.156330,0.470372,0.345486,-0.826404,0.251907,-0.371332,-131.055426,-87.612458,128.958187
02053,395009,10.688887,-0.513808,-4.394560,0.209321,0.235092,0.297252,-0.829344,0.253071,-0.373781,-125.919499,-87.564001,123.936582
02054,395109,9.619977,-0.202032,-3.987997,0.271532,0.030059,0.219806,-0.826795,0.254671,-0.376703,-123.782318,-87.471531,121.951943
02055,395209,8.871253,-0.127151,-3.290388,0.343527,-0.084908,0.135830,-0.824836,0.257034,-0.374576,-123.531563,-87.380823,121.896777
02056,395309,8.504156,-0.256530,-2.622365,0.375299,-0.104425,0.061357,-0.827803,0.258625,-0.375500,-123.974547,-87.319365,122.554312
02057,395409,8.429797,-0.405606,-2.193004,0.316869,-0.041739,0.008860,-0.827798,0.256157,-0.376127,-124.159903,-87.302760,122.920441
02058,395509,8.552734,-0.683471,-1.976849,0.205520,0.021202,-0.018214,-0.828310,0.253650,-0.375755,-123.958221,-87.319186,122.835243
02059,395609,8.830409,-1.015824,-1.958965,0.105506,0.051341,-0.027354,-0.828318,0.254124,-0.375229,-123.565635,-87.349521,122.501580
02060,395709,9.277290,-1.432177,-2.019815,0.065375,0.044686,-0.019338,-0.829271,0.252766,-0.377805,-123.202656,-87.373793,122.174563
02061,395809,10.044498,-1.458377,-1.980448,0.061319,0.027531,-0.015779,-0.827787,0.251722,-0.377356,-122.992651,-87.390888,121.998374
02062,395909,10.564244,-1.266813,-1.787792,0.100761,0.046186,-0.015714,-0.827693,0.252460,-0.382328,-122.558190,-87.413672,121.620138
02063,396009,10.859168,-1.010807,-1.511049,0.158258,0.068825,-0.011396,-0.828744,0.247872,-0.380058,-121.808316,-87.441078,120.959163
02064,396109,10.777960,-0.478062,-1.271869,0.196212,0.087407,-0.012877,-0.831178,0.248554,-0.383032,-120.824782,-87.474283,120.086084
02065,396209,10.385688,0.188799,-1.076129,0.189397,0.090858,-0.024764,-0.831196,0.243548,-0.382787,-119.859569,-87.513703,119.227449
02066,396309,9.824750,0.905477,-0.866075,0.146346,0.075444,-0.061204,-0.832173,0.244110,-0.383761,-119.309886,-87.566431,118.760048
02067,396409,9.177258,1.307421,-0.640166,0.100186,0.071512,-0.109724,-0.832145,0.244182,-0.385260,-119.137894,-87.642210,118.644197
02068,396509,8.557432,1.341902,-0.463622,0.056322,0.084327,-0.160570,-0.829706,0.241033,-0.382913,-119.177894,-87.747020,118.715339
02069,396609,7.952566,0.966338,-0.197106,0.012297,0.104186,-0.182661,-0.832645,0.237737,-0.386091,-119.148747,-87.868441,118.692021
02070,396709,7.425092,0.564584,-0.116041,-0.025647,0.109732,-0.170471,-0.834096,0.236387,-0.388666,-118.963306,-87.985309,118.490544
02071,396809,6.980518,0.299686,-0.183048,-0.106538,0.083041,-0.154439,-0.836062,0.235494,-0.390217,-119.070762,-88.086725,118.535771
02072,396909,6.875028,0.039681,-0.011751,-0.168079,0.054151,-0.139150,-0.832035,0.233060,-0.392842,-119.541996,-88.172395,118.909690
02073,397009,6.849719,-0.227274,0.153355,-0.203022,0.034617,-0.127526,-0.835550,0.233043,-0.391344,-120.282770,-88.246578,119.533238
02074,397109,7.027550,-0.258199,0.099843,-0.237091,0.014195,-0.116400,-0.832093,0.231421,-0.389919,-121.331683,-88.308982,120.445520
02075,397209,7.101696,-0.258070,-0.165310,-0.261746,-0.009084,-0.106050,-0.834556,0.231533,-0.391419,-122.751804,-88.358676,121.715011
02076,397309,7.127669,-0.247941,-0.472437,-0.261163,-0.049483,-0.100051,-0.833103,0.229419,-0.389522,-124.867820,-88.391471,123.680992
02077,397409,7.193897,-0.284693,-0.623136,-0.251526,-0.106910,-0.100497,-0.834641,0.225859,-0.387701,-128.008196,-88.402331,126.677240
02078,397509,7.453322,-0.360405,-0.573393,-0.235128,-0.165646,-0.104888,-0.837139,0.226373,-0.387176,-132.132015,-88.388104,130.666722
02079,397609,7.807740,-0.450634,-0.377289,-0.235924,-0.225332,-0.106382,-0.840674,0.225810,-0.384704,-137.006114,-88.341733,135.406402
02080,397709,8.151716,-0.667464,-0.217686,-0.235330,-0.274686,-0.085957,-0.839259,0.222604,-0.380857,-141.865131,-88.254930,140.131503
02081,397809,8.651206,-0.763177,-0.026523,-0.250500,-0.317635,-0.056178,-0.838795,0.224493,-0.378756,-146.236561,-88.127168,144.360363
02082,397909,9.085002,-0.724949,0.176076,-0.250579,-0.319630,-0.031872,-0.842869,0.221350,-0.374412,-149.714488,-87.982245,147.695501
02083,398009,9.293225,-0.692914,0.299783,-0.235762,-0.296541,-0.014430,-0.841870,0.222829,-0.374335,-152.322350,-87.838281,150.168802
02084,398109,9.276668,-0.757218,0.326934,-0.222692,-0.285310,-0.004849,-0.843440,0.222161,-0.370362,-154.409840,-87.694051,152.129079
02085,398209,9.214844,-0.933259,0.496145,-0.216159,-0.280043,0.001850,-0.845984,0.223053,-0.367314,-156.142642,-87.548505,153.738324
02086,398309,9.089870,-1.120787,0.729055,-0.198336,-0.265131,0.006441,-0.843522,0.222941,-0.365813,-157.551105,-87.408020,155.033330
02087,398409,8.939353,-1.232318,0.972868,-0.182221,-0.235996,0.003443,-0.848538,0.223920,-0.363765,-158.716847,-87.282437,156.094757
02088,398509,8.808285,-1.246998,1.085070,-0.159494,-0.198387,-0.008044,-0.848609,0.220762,-0.360419,-159.744451,-87.178433,157.031044
02089,398609,8.738593,-1.181753,1.116613,-0.133927,-0.150433,-0.022349,-0.850110,0.222257,-0.359843,-160.660117,-87.102321,157.870013
02090,398709,8.832282,-1.048482,1.107565,-0.103749,-0.094638,-0.039629,-0.850097,0.224274,-0.360241,-161.498384,-87.059045,158.648861
02091,398809,9.133370,-0.908237,1.017757,-0.078666,-0.036636,-0.056307,-0.852094,0.221814,-0.360369,-162.278786,-87.049786,159.384192
02092,398909,9.512029,-0.792337,0.865378,-0.059402,0.006003,-0.067555,-0.851679,0.216631,-0.356625,-163.024138,-87.065279,160.095489
02093,399009,9.869749,-0.729781,0.744158,-0.038695,0.024488,-0.073830,-0.853135,0.217250,-0.358599,-163.774585,-87.091484,160.823768
02094,399109,10.222811,-0.757760,0.640194,-0.005039,0.031247,-0.076451,-0.853677,0.218632,-0.356023,-164.526952,-87.121348,161.573271
02095,399209,10.539592,-0.823995,0.446858,0.023515,0.040262,-0.078143,-0.854594,0.216373,-0.360649,-165.270698,-87.155963,162.330514
02096,399309,10.733200,-0.886061,0.196460,0.057927,0.039133,-0.087882,-0.853611,0.214340,-0.360250,-166.126246,-87.190805,163.219427
02097,399409,10.724458,-1.059722,-0.053838,0.124402,0.004721,-0.101141,-0.856116,0.211366,-0.359904,-167.207559,-87.207470,164.372503
02098,399509,10.769842,-1.260003,-0.232343,0.210410,-0.036833,-0.120492,-0.860111,0.210907,-0.359431,-168.572927,-87.201974,165.859326
02099,399609,10.915453,-1.444552,-0.283455,0.285572,-0.042057,-0.143983,-0.860121,0.205427,-0.359710,-170.169513,-87.194145,167.620790
02100,399709,11.304815,-1.587898,-0.061189,0.341670,-0.043814,-0.147699,-0.860667,0.204318,-0.357262,-171.768586,-87.183260,169.416962
02101,399809,12.066597,-1.352544,0.653710,0.363199,-0.042056,-0.142027,-0.864076,0.201601,-0.361914,-173.272804,-87.170584,171.130556
02102,399909,13.190403,-0.919104,1.843750,0.357409,-0.000275,-0.132356,-0.866634,0.199977,-0.358492,-174.609026,-87.179072,172.672647
02103,400009,14.422338,-0.341200,2.902930,0.326270,0.106364,-0.123736,-0.866092,0.198595,-0.361068,-175.781170,-87.246415,174.032563
02104,400109,15.252080,0.263648,3.086542,0.275044,0.272382,-0.113994,-0.865987,0.194898,-0.367268,-176.817488,-87.407085,175.226992
02105,400209,15.453199,0.777721,2.305964,0.245773,0.462220,-0.119721,-0.865455,0.193491,-0.369344,-178.009656,-87.675493,176.560414
02106,400309,15.059066,1.226840,1.124229,0.228566,0.660611,-0.154424,-0.867363,0.193740,-0.373842,179.895664,-88.056204,178.786775
02107,400409,14.513434,1.436129,-0.425429,0.232521,0.782374,-0.204824,-0.867243,0.188597,-0.381119,175.502813,-88.500434,-176.685977
02108,400509,13.679128,1.540931,-2.065222,0.206289,0.794590,-0.259493,-0.865582,0.188508,-0.390141,165.730345,-88.927523,-166.793771
02109,400609,12.072764,1.193115,-3.459588,0.185051,0.654627,-0.298314,-0.861490,0.185745,-0.396289,146.817825,-89.206249,-147.773699
02110,400709,10.264724,0.495932,-4.314427,0.152131,0.398835,-0.295811,-0.861939,0.181911,-0.399492,125.832542,-89.255224,-126.700309
02111,400809,9.102588,0.009767,-4.616504,0.071869,0.083477,-0.259607,-0.863913,0.181991,-0.400492,117.268460,-89.152849,-118.095147
02112,400909,8.107771,-0.092745,-4.259236,-0.015429,-0.197828,-0.207236,-0.863964,0.179379,-0.398120,119.856417,-88.993905,-120.693208
02113,401009,7.578548,0.363594,-3.608870,-0.069347,-0.397991,-0.169867,-0.867026,0.174774,-0.394851,126.850614,-88.786458,-127.729381
02114,401109,7.364163,1.092110,-2.938150,-0.123862,-0.474727,-0.143419,-0.868104,0.175570,-0.390302,133.409815,-88.547592,-134.362286
02115,401209,7.292315,1.642191,-2.332122,-0.158225,-0.482688,-0.127090,-0.870189,0.175859,-0.385279,138.381354,-88.297798,-139.427377
02116,401309,7.665851,1.918047,-1.668715,-0.186332,-0.412407,-0.108742,-0.871241,0.176228,-0.382255,141.542917,-88.076466,-142.698351
02117,401409,8.611203,1.957087,-1.172233,-0.211983,-0.279541,-0.063736,-0.872276,0.175151,-0.380307,143.363422,-87.926962,-144.642548
02118,401509,9.767541,1.864088,-1.131467,-0.234744,-0.142242,0.003918,-0.872827,0.171551,-0.377986,144.557541,-87.862140,-145.973145
02119,401609,10.635620,1.440090,-1.298668,-0.269934,-0.026520,0.049445,-0.871874,0.172909,-0.375411,145.233540,-87.865760,-146.805486
02120,401709,11.022969,0.772217,-1.658478,-0.294380,0.064624,0.091375,-0.870385,0.175353,-0.374783,145.641208,-87.925705,-147.383322
02121,401809,11.017531,0.061689,-2.269648,-0.309574,0.076113,0.144939,-0.870335,0.176968,-0.377206,146.697219,-88.007917,-148.618594
02122,401909,10.789462,-0.476257,-2.593377,-0.325348,0.020358,0.201914,-0.871359,0.177410,-0.375682,149.173291,-88.078996,-151.283729
02123,402009,10.348746,-0.871692,-2.394883,-0.354103,-0.046010,0.246741,-0.869385,0.182786,-0.373902,153.063134,-88.124019,-155.379788
02124,402109,9.901401,-1.028331,-1.893633,-0.402171,-0.135561,0.272922,-0.868929,0.185149,-0.371276,158.126354,-88.117747,-160.677344
02125,402209,9.563482,-0.812092,-1.074647,-0.420975,-0.176689,0.273631,-0.869915,0.190645,-0.370997,163.317380,-88.073830,-166.113617
02126,402309,9.143211,-0.486904,-0.632400,-0.383013,-0.170653,0.263378,-0.870495,0.191433,-0.366448,168.065907,-88.016331,-171.085522
02127,402409,8.709099,-0.158333,-0.404333,-0.295280,-0.165781,0.244972,-0.871511,0.196359,-0.364695,172.257735,-87.946747,-175.450273
02128,402509,8.468662,0.231258,-0.284124,-0.188597,-0.150834,0.211805,-0.872567,0.199196,-0.361044,175.682673,-87.873649,-178.986656
02129,402609,8.195612,0.449553,0.025134,-0.126694,-0.118183,0.170118,-0.872106,0.204050,-0.358291,178.265938,-87.811341,178.354561
02130,402709,7.849341,0.430548,0.291366,-0.063768,-0.078383,0.141605,-0.875115,0.203053,-0.357343,-179.676704,-87.767654,176.258057
02131,402809,7.533654,0.326089,0.442565,-0.045213,-0.038524,0.127153,-0.872136,0.202981,-0.356842,-177.877687,-87.744298,174.430681
02132,402909,7.269200,0.381708,0.170810,-0.048460,-0.010578,0.120216,-0.874644,0.203969,-0.355793,-176.192266,-87.734985,172.715100
02133,403009,7.076683,0.289040,-0.087479,-0.052408,-0.003761,0.125166,-0.876164,0.204916,-0.354243,-174.444017,-87.727316,170.934365
02134,403109,7.066652,0.231979,-0.276311,-0.053989,0.006080,0.137125,-0.874666,0.206886,-0.354141,-172.521357,-87.722222,168.978164
02135,403209,7.092335,0.050650,-0.388889,-0.056523,0.008190,0.147367,-0.877159,0.205929,-0.354192,-170.460965,-87.714761,166.882659
02136,403309,7.088862,0.040732,-0.387559,-0.049302,-0.011843,0.150395,-0.875683,0.205857,-0.353192,-168.427791,-87.692724,164.818513
02137,403409,7.171285,0.116860,-0.636633,-0.039095,-0.056724,0.140968,-0.876658,0.207416,-0.354116,-166.704516,-87.644035,163.070322
02138,403509,7.312321,0.044085,-0.767916,-0.000371,-0.127640,0.123091,-0.877699,0.208308,-0.351567,-165.508950,-87.556566,161.872422
02139,403609,7.640611,-0.043203,-0.688961,0.055141,-0.190845,0.109767,-0.880762,0.208163,-0.347569,-164.747129,-87.435212,161.140424
02140,403709,7.962516,-0.063148,-0.497633,0.115099,-0.243531,0.100314,-0.883281,0.208130,-0.346070,-164.304120,-87.285884,160.761891
02141,403809,8.246446,0.001860,-0.225421,0.158631,-0.286327,0.095559,-0.882849,0.207455,-0.342597,-164.066249,-87.113611,160.613662
02142,403909,8.417883,0.067289,0.094443,0.197223,-0.308087,0.097556,-0.885388,0.205879,-0.340175,-163.872616,-86.929023,160.531847
02143,404009,8.406566,0.262928,0.239421,0.219789,-0.310699,0.094272,-0.883929,0.206756,-0.338124,-163.721145,-86.743524,160.505190
02144,404109,8.358043,0.434644,0.378301,0.239280,-0.311376,0.094786,-0.883507,0.206057,-0.334151,-163.565558,-86.557581,160.485583
02145,404209,8.417742,0.532482,0.594493,0.259153,-0.300328,0.088592,-0.886048,0.203485,-0.331780,-163.433214,-86.378732,160.500659
02146,404309,8.566681,0.496494,0.873666,0.265151,-0.242625,0.089092,-0.887599,0.203364,-0.328782,-163.155295,-86.231494,160.373296
02147,404409,8.679797,0.559971,0.978274,0.254287,-0.158641,0.085868,-0.887142,0.200768,-0.326909,-162.716480,-86.130773,160.078414
02148,404509,8.925169,0.459151,0.960606,0.235513,-0.067992,0.085412,-0.890129,0.201813,-0.326859,-162.081042,-86.079481,159.575639
02149,404609,9.301920,0.447520,0.673123,0.217168,0.009262,0.088725,-0.887642,0.199780,-0.326960,-161.240548,-86.069191,158.856765
02150,404709,9.586496,0.584832,0.346673,0.192145,0.041503,0.089568,-0.886203,0.199612,-0.323961,-160.322001,-86.075448,158.045272
02151,404809,9.798220,0.592743,0.250042,0.166170,0.037604,0.092820,-0.889653,0.199764,-0.325961,-159.401843,-86.078088,157.217240
02152,404909,9.997838,0.690241,0.214890,0.155612,0.026731,0.104310,-0.889130,0.198333,-0.327537,-158.430850,-86.071628,156.332176
02153,405009,10.371751,0.621509,0.196092,0.142241,0.032695,0.117162,-0.886664,0.199716,-0.325960,-157.352985,-86.064494,155.332290
02154,405109,10.768456,0.635946,0.100702,0.106962,0.037576,0.136375,-0.886660,0.202207,-0.325834,-156.137050,-86.054227,154.173722
02155,405209,11.171893,0.703853,-0.119129,0.029366,0.045995,0.162851,-0.886163,0.201701,-0.325859,-154.744229,-86.040245,152.793251
02156,405309,11.539921,0.936534,-0.266309,-0.057924,0.041213,0.194800,-0.887652,0.204714,-0.325707,-153.194799,-86.013341,151.205606
02157,405409,11.847148,1.265213,-0.259876,-0.149605,0.044089,0.218917,-0.887143,0.205229,-0.326181,-151.535958,-85.978432,149.455540
02158,405509,12.158443,1.393047,0.056278,-0.202739,0.059059,0.230192,-0.886678,0.207615,-0.324054,-149.798880,-85.944253,147.596420
02159,405609,12.835181,1.252087,0.667447,-0.171589,0.111493,0.226660,-0.888101,0.211295,-0.327376,-147.876287,-85.932697,145.569135
02160,405709,13.830330,0.638738,1.477581,-0.054089,0.227928,0.214616,-0.885104,0.210774,-0.327900,-145.449284,-85.975273,143.103701
02161,405809,15.106568,-0.284618,1.819367,0.100331,0.397103,0.204067,-0.884507,0.213996,-0.332746,-142.100628,-86.090865,139.803337
02162,405909,16.217257,-1.201639,1.279812,0.201063,0.569492,0.206519,-0.883915,0.214727,-0.337718,-137.485692,-86.264953,135.292313
02163,406009,16.471552,-2.201453,0.281163,0.211062,0.660816,0.257875,-0.881860,0.218826,-0.340513,-131.517703,-86.426332,129.432131
02164,406109,15.831186,-2.710880,-0.954575,0.167294,0.683322,0.323776,-0.880190,0.223720,-0.349280,-124.560187,-86.522806,122.556296
02165,406209,15.110036,-2.847513,-2.521309,0.126783,0.625057,0.392992,-0.877587,0.229426,-0.354498,-117.530465,-86.515690,115.585232
02166,406309,14.297149,-2.360905,-3.887135,0.115199,0.475528,0.463864,-0.878511,0.233596,-0.357794,-111.681298,-86.388396,109.789851
02167,406409,13.032344,-1.477183,-4.436355,0.115568,0.264942,0.491167,-0.874028,0.238483,-0.357038,-107.947374,-86.176008,106.113288
02168,406509,11.522222,-0.640170,-4.239783,0.135640,0.036086,0.447982,-0.876467,0.247089,-0.358607,-106.480112,-85.937930,104.719305
02169,406609,10.421018,-0.326393,-3.651046,0.170382,-0.141757,0.358490,-0.876007,0.251445,-0.355879,-106.646668,-85.718886,104.983023
02170,406709,9.414958,-0.403335,-3.136340,0.227825,-0.260828,0.259915,-0.879026,0.255382,-0.353677,-107.806072,-85.533355,106.275554
02171,406809,8.395477,-0.711599,-2.758143,0.277694,-0.324565,0.162515,-0.881597,0.257197,-0.349078,-109.492091,-85.386611,108.125308
02172,406909,7.977523,-0.885731,-2.327604,0.304591,-0.321239,0.068447,-0.881171,0.257993,-0.345029,-111.267064,-85.286688,110.080095
02173,407009,7.475214,-1.293526,-1.906339,0.337245,-0.229603,-0.001982,-0.882664,0.259013,-0.344978,-112.554037,-85.239574,111.564201
02174,407109,7.132082,-1.825750,-1.903542,0.374626,-0.158563,-0.058626,-0.884161,0.257542,-0.345055,-113.503193,-85.235844,112.730886
02175,407209,7.542884,-1.902430,-1.848300,0.374528,-0.131834,-0.111030,-0.886227,0.257879,-0.341032,-114.432995,-85.264157,113.878096
02176,407309,8.637171,-1.683844,-1.342817,0.355119,-0.118825,-0.175622,-0.887255,0.255830,-0.339634,-115.498665,-85.327489,115.150419
02177,407409,9.662346,-1.417099,-0.855828,0.340115,-0.050488,-0.214380,-0.885785,0.252769,-0.338787,-116.292092,-85.426183,116.140851
02178,407509,10.163542,-0.966616,-0.851530,0.338288,0.032466,-0.220761,-0.886251,0.249884,-0.340939,-116.604301,-85.548536,116.647373
02179,407609,10.106296,-0.265094,-1.232184,0.342113,0.055200,-0.219502,-0.889262,0.247890,-0.340041,-116.779768,-85.675925,117.018853
02180,407709,9.690439,0.472511,-1.622560,0.329919,0.024445,-0.233530,-0.890265,0.243920,-0.340245,-117.242797,-85.802321,117.671601
02181,407809,9.085368,0.982518,-1.662733,0.292394,-0.013488,-0.248319,-0.891263,0.242939,-0.340296,-118.087897,-85.925584,118.685724
02182,407909,8.559786,1.215073,-1.377550,0.208937,-0.021121,-0.259218,-0.891756,0.240480,-0.340923,-119.138921,-86.051027,119.858152
02183,408009,8.024913,1.243137,-0.951030,0.103935,-0.005430,-0.265810,-0.891808,0.237370,-0.338577,-120.236123,-86.182663,121.016352
02184,408109,7.588156,1.159395,-0.593182,0.013893,0.022928,-0.277271,-0.891310,0.237363,-0.338576,-121.303587,-86.326767,122.092835
02185,408209,7.265057,0.846668,-0.350577,-0.061763,0.030755,-0.286495,-0.892329,0.234839,-0.337704,-122.487112,-86.476336,123.241982
02186,408309,7.162581,0.409107,-0.098358,-0.130307,0.035491,-0.279256,-0.895782,0.238454,-0.339027,-123.736284,-86.622360,124.417358
02187,408409,7.183498,-0.064736,0.075622,-0.199771,0.048302,-0.253497,-0.894809,0.235401,-0.338179,-124.879063,-86.758826,125.446128
02188,408509,7.401956,-0.448248,0.064753,-0.250166,0.063133,-0.219652,-0.896820,0.235883,-0.337155,-125.810301,-86.883292,126.233987
02189,408609,7.524671,-0.685233,-0.170675,-0.288252,0.069300,-0.188913,-0.897809,0.234926,-0.337706,-126.580235,-86.994965,126.838385
02190,408709,7.639869,-0.798679,-0.480077,-0.299638,0.034243,-0.171373,-0.894835,0.236823,-0.336604,-127.603684,-87.085983,127.690059
02191,408809,7.876911,-0.879165,-0.526227,-0.305445,-0.017828,-0.164845,-0.894353,0.238262,-0.335527,-129.112650,-87.154554,129.024488
02192,408909,8.169776,-1.009001,-0.517850,-0.307734,-0.060004,-0.143392,-0.897857,0.239266,-0.334478,-130.903258,-87.196206,130.639539
02193,409009,8.470995,-1.000727,-0.503443,-0.308803,-0.091972,-0.114758,-0.895906,0.241605,-0.331852,-132.792334,-87.210829,132.352541
02194,409109,8.727624,-0.909634,-0.390303,-0.322316,-0.117628,-0.084194,-0.900409,0.241129,-0.330879,-134.668614,-87.199875,134.044991
02195,409209,8.817106,-0.771062,-0.236771,-0.337096,-0.141021,-0.060537,-0.900476,0.239466,-0.327456,-136.525676,-87.167174,135.709765
02196,409309,8.921459,-0.707927,0.018728,-0.338579,-0.155476,-0.050964,-0.900015,0.244818,-0.324678,-138.369906,-87.122039,137.360910
02197,409409,9.024405,-0.681053,0.233578,-0.318391,-0.170123,-0.058946,-0.899536,0.244762,-0.323678,-140.320757,-87.070822,139.130475
02198,409509,9.091177,-0.727067,0.467162,-0.291797,-0.190902,-0.072961,-0.901590,0.246618,-0.320078,-142.451987,-87.012157,141.096018
02199,409609,9.156186,-0.781453,0.556888,-0.262760,-0.210917,-0.090130,-0.902630,0.248008,-0.317503,-144.760214,-86.946219,143.255591
02200,409709,9.187069,-0.898879,0.652564,-0.228031,-0.197184,-0.105006,-0.905145,0.249969,-0.315903,-147.003167,-86.887119,145.369865
02201,409809,9.161724,-1.022964,0.628120,-0.185558,-0.169719,-0.111491,-0.906231,0.251736,-0.310804,-149.048943,-86.839134,147.311167
02202,409909,9.097302,-1.189826,0.602760,-0.136422,-0.152434,-0.116093,-0.906252,0.250193,-0.309880,-150.959833,-86.797415,149.145678
02203,410009,9.017718,-1.339912,0.787812,-0.097244,-0.146687,-0.121995,-0.909724,0.253761,-0.310203,-152.824431,-86.756870,150.956407
02204,410109,9.033866,-1.398050,0.972439,-0.063227,-0.124640,-0.127738,-0.907824,0.253488,-0.305205,-154.579307,-86.725928,152.676851
02205,410209,9.182324,-1.381162,1.011786,-0.035562,-0.075074,-0.128635,-0.910292,0.256067,-0.306078,-156.092832,-86.718247,154.171486
02206,410309,9.379864,-1.303102,0.906707,-0.021122,-0.018886,-0.126443,-0.911836,0.253977,-0.303681,-157.353912,-86.737592,155.421568
02207,410409,9.664320,-1.157396,0.701410,-0.014807,0.021393,-0.119520,-0.914288,0.255110,-0.305630,-158.410473,-86.775387,156.470415
02208,410509,10.024851,-1.016105,0.520931,-0.002216,0.055848,-0.112480,-0.911785,0.256589,-0.306053,-159.290988,-86.829141,157.350137
02209,410609,10.360816,-0.988200,0.388069,0.023096,0.082731,-0.106099,-0.914773,0.257135,-0.306029,-160.027071,-86.895377,158.099702
02210,410709,10.666670,-0.935375,0.236825,0.041678,0.117434,-0.101701,-0.915766,0.259143,-0.305927,-160.615356,-86.979016,158.711882
02211,410809,10.940110,-0.887688,0.036097,0.050822,0.139485,-0.104871,-0.915704,0.262277,-0.308774,-161.186346,-87.074857,159.311954
02212,410909,10.972455,-0.777831,-0.218407,0.061476,0.131469,-0.117022,-0.915179,0.262341,-0.310273,-161.953224,-87.168174,160.114233
02213,411009,10.890705,-0.838912,-0.341527,0.101485,0.110713,-0.143995,-0.916153,0.263900,-0.311197,-163.131042,-87.254089,161.350839
02214,411109,10.712753,-1.100540,-0.328486,0.188916,0.090361,-0.162230,-0.920181,0.260878,-0.309351,-164.618102,-87.330282,162.947117
02215,411209,10.726727,-1.464021,-0.443228,0.264670,0.048174,-0.167944,-0.922128,0.260033,-0.311902,-166.345392,-87.381747,164.827273
02216,411309,11.194776,-1.664358,-0.172250,0.301847,0.014097,-0.160402,-0.920679,0.260885,-0.309352,-168.115708,-87.410542,166.771791
02217,411409,12.092889,-1.568167,0.691961,0.327018,-0.009687,-0.145776,-0.922091,0.260129,-0.313901,-169.779954,-87.421707,168.624568
02218,411509,13.382786,-1.164696,2.035321,0.322473,0.052283,-0.140200,-0.925061,0.260723,-0.314876,-171.270777,-87.465103,170.301128
02219,411609,14.451079,-0.659424,2.995494,0.281869,0.231570,-0.120131,-0.925499,0.262869,-0.317773,-172.262642,-87.606941,171.454882
02220,411709,15.318714,0.260384,2.579577,0.208226,0.435173,-0.097359,-0.924469,0.261455,-0.319849,-172.731418,-87.862130,172.042743
02221,411809,15.594684,1.159674,1.284930,0.149649,0.660124,-0.099581,-0.924832,0.264291,-0.326719,-172.939166,-88.245241,172.335699
02222,411909,15.098080,1.610105,-0.572194,0.162592,0.807586,-0.121150,-0.925642,0.264290,-0.336741,-173.388832,-88.713652,172.877969
02223,412009,14.197322,1.731586,-2.858741,0.161837,0.797646,-0.153397,-0.925010,0.267110,-0.343611,-175.728904,-89.177718,175.310370
02224,412109,12.794666,1.641551,-4.338339,0.097336,0.641236,-0.198577,-0.923863,0.268476,-0.351557,173.362196,-89.544903,-173.725177
02225,412209,11.065375,1.619486,-4.620904,-0.053502,0.415255,-0.244619,-0.923795,0.265182,-0.355733,137.800672,-89.711700,-138.194529
02226,412309,9.483035,1.176698,-4.499961,-0.175107,0.139879,-0.260052,-0.925769,0.270219,-0.355979,111.089314,-89.631637,-111.584009
02227,412409,8.871047,1.103196,-3.454612,-0.316969,-0.094740,-0.238792,-0.923785,0.270662,-0.355453,111.022505,-89.483882,-111.699770
02228,412509,8.528433,1.358260,-2.116017,-0.430549,-0.179707,-0.211865,-0.923346,0.268517,-0.352556,115.259281,-89.331098,-116.184455
02229,412609,8.094059,1.602953,-1.685419,-0.486576,-0.235664,-0.186624,-0.925830,0.272542,-0.352354,120.268039,-89.172852,-121.473468
02230,412709,7.910666,1.916534,-1.556044,-0.448149,-0.273697,-0.173660,-0.925395,0.273362,-0.348804,124.904252,-89.003863,-126.368126
02231,412809,8.271333,2.283485,-1.477955,-0.358349,-0.240211,-0.175206,-0.926960,0.275186,-0.344705,127.417793,-88.841022,-129.088571
02232,412909,9.218923,2.210747,-1.655581,-0.282497,-0.176412,-0.173017,-0.928980,0.275643,-0.343180,128.114183,-88.700194,-129.948166
02233,413009,10.105573,1.670186,-1.748164,-0.245626,-0.108747,-0.163350,-0.928986,0.277114,-0.342604,127.592853,-88.587474,-129.568643
02234,413109,10.445919,0.934964,-1.861301,-0.263812,-0.033784,-0.137293,-0.926993,0.277581,-0.342578,126.158799,-88.512309,-128.286526
02235,413209,10.443909,0.078961,-2.000106,-0.312520,0.004052,-0.092115,-0.927473,0.277637,-0.343578,124.718775,-88.470005,-127.026319
02236,413309,10.324454,-0.544710,-2.159871,-0.363860,-0.002763,-0.017404,-0.929532,0.281960,-0.339351,124.322674,-88.460231,-126.839806
02237,413409,9.973724,-0.986486,-2.091271,-0.404920,-0.030698,0.066380,-0.930035,0.284435,-0.338725,125.421043,-88.480728,-128.171805
02238,413509,9.513397,-1.097308,-1.738455,-0.419067,-0.065573,0.146284,-0.925081,0.289740,-0.336445,128.229033,-88.524692,-131.222073
02239,413609,9.168285,-1.150041,-1.358615,-0.444020,-0.128975,0.204594,-0.925627,0.294087,-0.333217,133.164578,-88.564854,-136.414797
02240,413709,8.764479,-1.012552,-0.625178,-0.449192,-0.155740,0.241028,-0.926146,0.298009,-0.331515,139.397167,-88.595362,-142.907821
02241,413809,8.479979,-0.634320,-0.316900,-0.412140,-0.147864,0.250503,-0.926657,0.300958,-0.330363,145.930663,-88.614680,-149.680521
02242,413909,8.254002,-0.419953,-0.013099,-0.353847,-0.118554,0.243225,-0.926190,0.309798,-0.327406,152.115827,-88.627877,-156.071321
02243,414009,7.973209,-0.228657,0.240787,-0.268239,-0.056310,0.224828,-0.926186,0.311791,-0.327305,157.420356,-88.653412,-161.532116
02244,414109,7.577958,0.121051,0.243364,-0.183434,-0.007197,0.197030,-0.926706,0.315214,-0.325628,161.905404,-88.688665,-166.124540
02245,414209,7.202588,0.427803,0.141755,-0.100210,0.002844,0.165952,-0.927218,0.317665,-0.324502,165.824589,-88.716595,-170.103209
02246,414309,6.924297,0.599271,-0.143176,-0.031498,-0.023035,0.146464,-0.926715,0.320646,-0.324349,169.561462,-88.721571,-173.860128
02247,414409,6.818747,0.767938,-0.465122,-0.008409,-0.066426,0.137178,-0.927781,0.322961,-0.320224,173.218871,-88.695727,-177.524359
02248,414509,6.803461,0.962010,-0.604582,0.002341,-0.112530,0.123754,-0.927252,0.325018,-0.321621,176.466275,-88.637944,179.227606
