PacketCounter,SampleTimeFine,Acc_X,Acc_Y,Acc_Z,Gyr_X,Gyr_Y,Gyr_Z,Mag_X,Mag_Y,Mag_Z,Roll,Pitch,Yaw
00400,128188,9.784980,0.231763,1.276015,-0.026803,-0.028446,-0.016332,-0.432665,0.004112,-0.364987,13.831163,-82.743308,-13.724583
00401,128288,9.732872,0.376342,1.218289,-0.023839,-0.016486,-0.021693,-0.431190,0.003541,-0.364012,13.936810,-82.750049,-13.844744
00402,128388,9.716202,0.442514,1.193345,-0.010734,-0.021341,-0.024693,-0.432721,0.003967,-0.361988,14.068751,-82.759028,-13.983837
00403,128488,9.723214,0.526503,1.184567,-0.003354,-0.037153,-0.021069,-0.431719,0.001982,-0.362589,14.207172,-82.777244,-14.125191
00404,128588,9.803603,0.501374,1.188348,0.001761,-0.046031,-0.014932,-0.431683,0.001580,-0.364614,14.332453,-82.801202,-14.250337
00405,128688,9.773274,0.382643,1.171309,-0.007561,-0.047740,-0.011374,-0.430729,-0.001521,-0.362767,14.439505,-82.826577,-14.362486
00406,128788,9.734894,0.264761,1.210137,-0.018992,-0.047014,-0.006832,-0.427752,0.002369,-0.361563,14.519693,-82.852168,-14.454158
00407,128888,9.731444,0.154470,1.255314,-0.029591,-0.038841,-0.004166,-0.431211,0.001998,-0.363089,14.572813,-82.873585,-14.524670
00408,128988,9.671166,0.193168,1.230817,-0.021952,-0.038061,-0.005911,-0.430738,0.003911,-0.361488,14.637272,-82.894295,-14.602201
00409,129088,9.649116,0.248761,1.184232,-0.012306,-0.041318,-0.009805,-0.429774,0.001332,-0.360115,14.728688,-82.916225,-14.701327
00410,129188,9.667138,0.323583,1.167960,0.003772,-0.059537,-0.014009,-0.426745,0.002876,-0.362037,14.870280,-82.947600,-14.841724
00411,129288,9.713641,0.350261,1.206520,0.014889,-0.075007,-0.019021,-0.424804,0.000232,-0.359664,15.060688,-82.986730,-15.024880
00412,129388,9.783277,0.312685,1.220326,0.022135,-0.077932,-0.024629,-0.428760,0.000866,-0.361140,15.286191,-83.026539,-15.239200
00413,129488,9.794952,0.244849,1.228930,0.026923,-0.061367,-0.024965,-0.428824,0.001196,-0.357615,15.497431,-83.057032,-15.436372
00414,129588,9.783052,0.142427,1.200890,0.025297,-0.035597,-0.026290,-0.425830,-0.000820,-0.358216,15.682300,-83.073010,-15.607914
00415,129688,9.743749,0.146812,1.171328,0.020784,-0.014339,-0.026380,-0.427304,0.000248,-0.359165,15.838051,-83.077189,-15.752730
00416,129788,9.709848,0.221309,1.127047,0.018210,-0.008411,-0.026306,-0.425303,-0.000258,-0.359690,15.984252,-83.078070,-15.889414
00417,129888,9.733565,0.278239,1.101977,0.015547,-0.020490,-0.024794,-0.424823,-0.000314,-0.358690,16.137833,-83.085801,-16.035070
00418,129988,9.751499,0.251389,1.115656,0.014217,-0.031906,-0.022708,-0.421327,-0.000345,-0.359189,16.296494,-83.100102,-16.186609
00419,130088,9.712169,0.271271,1.087633,0.016571,-0.045619,-0.017867,-0.424818,-0.002781,-0.359317,16.453414,-83.122677,-16.335031
00420,130188,9.698708,0.242728,1.066781,0.021270,-0.052551,-0.019533,-0.426826,-0.000805,-0.358217,16.630926,-83.148746,-16.501478
00421,130288,9.674035,0.237627,1.056697,0.030286,-0.048017,-0.024809,-0.423372,-0.003423,-0.356843,16.832642,-83.171400,-16.687094
00422,130388,9.627005,0.267377,1.013637,0.038156,-0.041291,-0.039491,-0.421861,-0.004893,-0.357918,17.097926,-83.187837,-16.932182
00423,130488,9.633751,0.292752,1.022181,0.049096,-0.042136,-0.044606,-0.423391,-0.003970,-0.355869,17.395301,-83.203735,-17.203271
00424,130588,9.636681,0.317731,1.021626,0.055980,-0.056252,-0.043087,-0.421351,-0.003383,-0.358342,17.711589,-83.227443,-17.489423
00425,130688,9.658439,0.306862,1.045320,0.061506,-0.070197,-0.040831,-0.419370,-0.004933,-0.357918,18.043570,-83.258965,-17.788174
00426,130788,9.629627,0.272030,1.083865,0.068865,-0.081574,-0.035065,-0.418380,-0.002980,-0.357316,18.373340,-83.297508,-18.080435
00427,130888,9.588534,0.226268,1.103117,0.067414,-0.084281,-0.027095,-0.420342,-0.006838,-0.359519,18.672828,-83.338779,-18.343023
00428,130988,9.528403,0.193748,1.125683,0.063790,-0.075743,-0.024051,-0.418399,-0.003028,-0.356316,18.945503,-83.375822,-18.580692
00429,131088,9.496227,0.244142,1.101934,0.057198,-0.065599,-0.020739,-0.417386,-0.003992,-0.357366,19.184967,-83.407860,-18.788714
00430,131188,9.540892,0.410338,1.088509,0.048229,-0.071219,-0.023506,-0.414416,-0.004088,-0.356366,19.443767,-83.442292,-19.021362
00431,131288,9.671060,0.691197,1.009043,0.061232,-0.074597,-0.030648,-0.409959,-0.003235,-0.354814,19.752447,-83.477025,-19.296695
00432,131388,9.736042,0.807417,1.013110,0.066567,-0.084396,-0.034209,-0.409472,-0.004263,-0.354365,20.101695,-83.516137,-19.609754
00433,131488,9.757011,0.717021,1.006004,0.061915,-0.116004,-0.030751,-0.409976,-0.002286,-0.353764,20.492350,-83.572674,-19.967133
00434,131588,9.864198,0.656252,1.070560,0.055004,-0.137615,-0.022507,-0.412435,-0.000182,-0.355162,20.885919,-83.642163,-20.331382
00435,131688,9.836389,0.491252,1.158595,0.048466,-0.151017,-0.012740,-0.410445,-0.001708,-0.355238,21.262008,-83.720521,-20.681759
00436,131788,9.722629,0.354996,1.234071,0.043027,-0.137020,-0.006343,-0.412405,0.000887,-0.356611,21.585329,-83.792478,-20.982145
00437,131888,9.581025,0.238871,1.158331,0.030553,-0.097457,-0.003629,-0.410892,0.005870,-0.356856,21.816562,-83.843767,-21.197069
00438,131988,9.435314,0.286640,0.988308,0.004311,-0.050472,0.008759,-0.409377,0.007389,-0.357779,21.880875,-83.872645,-21.259214
00439,132088,9.389747,0.500032,0.909732,-0.014199,-0.033933,0.021792,-0.407839,0.010949,-0.359600,21.837381,-83.895500,-21.223601
00440,132188,9.453613,0.745889,0.912165,-0.020561,-0.040981,0.034656,-0.407330,0.016920,-0.359295,21.740180,-83.924821,-21.137649
00441,132288,9.534833,0.947413,0.952712,-0.021461,-0.072958,0.046552,-0.410358,0.015874,-0.357348,21.646544,-83.973637,-21.055777
00442,132388,9.648393,0.996667,0.925739,-0.021429,-0.128721,0.048094,-0.415294,0.020534,-0.359120,21.657000,-84.052432,-21.078571
00443,132488,9.860141,0.944824,0.988813,-0.015666,-0.178354,0.040836,-0.415308,0.022977,-0.357993,21.812348,-84.156050,-21.243693
00444,132588,10.121012,0.788768,1.075729,-0.006958,-0.198389,0.027010,-0.418360,0.023852,-0.354445,22.095023,-84.267257,-21.531738
00445,132688,10.183607,0.548904,1.070191,0.000450,-0.171338,0.011079,-0.425343,0.024437,-0.353922,22.419030,-84.360478,-21.856999
00446,132788,10.030016,0.161967,0.989657,0.003201,-0.115972,-0.008775,-0.431354,0.026428,-0.351823,22.736762,-84.419862,-22.174340
00447,132888,9.773423,-0.094518,0.873668,-0.005736,-0.059823,-0.016924,-0.435398,0.024354,-0.348927,22.969979,-84.447661,-22.411884
00448,132988,9.597905,-0.180996,0.856260,-0.021433,-0.037643,-0.014688,-0.438835,0.026025,-0.351350,23.131690,-84.464214,-22.586627
00449,133088,9.530954,-0.113673,0.879623,-0.031238,-0.048634,-0.008122,-0.441839,0.028017,-0.350250,23.277950,-84.488019,-22.751494
00450,133188,9.533274,0.064854,0.912182,-0.026443,-0.081879,0.002002,-0.448337,0.031037,-0.348600,23.451275,-84.531575,-22.940787
00451,133288,9.664753,0.236343,0.959307,-0.002726,-0.121802,0.010726,-0.447286,0.030667,-0.351624,23.689376,-84.598015,-23.181481
00452,133388,9.829491,0.363134,0.997970,0.021570,-0.151094,0.012421,-0.446718,0.033817,-0.354970,24.010851,-84.680065,-23.491908
00453,133488,9.829572,0.413930,1.001672,0.051639,-0.155776,0.008461,-0.447744,0.037722,-0.352768,24.394072,-84.763426,-23.847003
00454,133588,9.909429,0.411708,1.018629,0.056262,-0.131125,-0.000581,-0.448239,0.039723,-0.352667,24.778300,-84.831536,-24.200408
00455,133688,9.785163,0.400386,0.997937,0.048679,-0.086705,-0.005341,-0.450679,0.041876,-0.355065,25.074718,-84.875195,-24.469980
00456,133788,9.679426,0.444152,0.916875,0.022721,-0.050798,-0.002444,-0.450110,0.045524,-0.358385,25.245478,-84.900816,-24.628310
00457,133888,9.639676,0.574816,0.794762,-0.006723,-0.035162,-0.002540,-0.452097,0.048545,-0.358234,25.358594,-84.918265,-24.745698
00458,133988,9.645129,0.706472,0.709734,-0.031164,-0.047944,0.000758,-0.452066,0.050112,-0.359657,25.475325,-84.943106,-24.880765
00459,134088,9.705676,0.667800,0.666474,-0.037147,-0.077989,0.002681,-0.455494,0.057263,-0.361801,25.663781,-84.983916,-25.091266
00460,134188,9.726594,0.600094,0.658050,-0.032565,-0.112510,0.010277,-0.453450,0.060341,-0.364147,25.912892,-85.044358,-25.359999
00461,134288,9.757635,0.453308,0.682803,-0.024771,-0.142222,0.017255,-0.453369,0.069478,-0.367189,26.218961,-85.121741,-25.681391
00462,134388,9.730427,0.331699,0.721450,-0.017519,-0.162658,0.019904,-0.454872,0.074934,-0.365910,26.585435,-85.210130,-26.059195
00463,134488,9.716475,0.309110,0.718830,-0.009498,-0.162185,0.021002,-0.450814,0.079523,-0.369179,26.962032,-85.298358,-26.442498
00464,134588,9.657363,0.360692,0.693853,-0.005488,-0.150771,0.020449,-0.453239,0.085188,-0.371899,27.321673,-85.380418,-26.806439
00465,134688,9.667093,0.479916,0.730116,-0.019534,-0.143385,0.029024,-0.452722,0.090685,-0.372119,27.606790,-85.460809,-27.103649
00466,134788,9.830591,0.710850,0.736316,-0.040606,-0.151702,0.036979,-0.453650,0.097322,-0.374788,27.867601,-85.547395,-27.388553
00467,134888,9.969351,0.843651,0.731080,-0.048168,-0.165893,0.036837,-0.450124,0.103816,-0.375956,28.186833,-85.640966,-27.736358
00468,134988,9.969278,0.780725,0.707467,-0.045241,-0.174272,0.032174,-0.449072,0.109401,-0.378176,28.585244,-85.737287,-28.161840
00469,135088,9.911760,0.553872,0.685408,-0.042346,-0.171313,0.030199,-0.446074,0.114336,-0.377921,29.006860,-85.831327,-28.608873
00470,135188,9.840752,0.281471,0.633976,-0.038741,-0.168715,0.028612,-0.446987,0.119527,-0.381665,29.451164,-85.923380,-29.076532
00471,135288,9.790728,0.082449,0.572059,-0.038549,-0.162572,0.027112,-0.444982,0.126471,-0.381309,29.901532,-86.011710,-29.550110
00472,135388,9.743451,0.035939,0.518086,-0.040711,-0.152790,0.026501,-0.440963,0.130466,-0.382604,30.333821,-86.094791,-30.006764
00473,135488,9.608573,0.104247,0.465942,-0.043212,-0.147732,0.031160,-0.436481,0.134356,-0.381900,30.727007,-86.176536,-30.425619
00474,135588,9.596607,0.348857,0.426484,-0.051516,-0.152427,0.038748,-0.439433,0.139956,-0.383120,31.097521,-86.262647,-30.826482
00475,135688,9.690417,0.641114,0.369235,-0.059398,-0.168252,0.050717,-0.432471,0.143285,-0.381941,31.464933,-86.359895,-31.228716
00476,135788,9.778942,0.748943,0.326496,-0.068365,-0.190440,0.055609,-0.427914,0.148365,-0.385184,31.919446,-86.469238,-31.723322
00477,135888,9.881178,0.692118,0.375996,-0.079892,-0.200141,0.057455,-0.423963,0.150198,-0.383082,32.433329,-86.583573,-32.283963
00478,135988,9.944643,0.532695,0.466743,-0.087158,-0.192482,0.057548,-0.418948,0.153679,-0.384402,32.938328,-86.693924,-32.839810
00479,136088,9.869785,0.353178,0.512952,-0.095490,-0.183761,0.057366,-0.416026,0.157923,-0.380174,33.427161,-86.799743,-33.384187
00480,136188,9.782682,0.236911,0.502090,-0.100603,-0.180033,0.054853,-0.409083,0.161203,-0.377995,33.947915,-86.902711,-33.963414
00481,136288,9.697337,0.233031,0.506578,-0.095039,-0.173342,0.049558,-0.404645,0.161510,-0.375469,34.515471,-87.000493,-34.586265
00482,136388,9.692008,0.291043,0.463975,-0.088720,-0.158272,0.044312,-0.397179,0.163858,-0.374840,35.077076,-87.089134,-35.199481
00483,136488,9.731084,0.478801,0.393092,-0.088662,-0.151160,0.040902,-0.393275,0.165073,-0.370264,35.659841,-87.172988,-35.833803
00484,136588,9.798420,0.648933,0.374272,-0.106734,-0.156800,0.038947,-0.385394,0.167197,-0.365137,36.328777,-87.258420,-36.564718
00485,136688,9.869613,0.711757,0.283366,-0.125196,-0.158357,0.045141,-0.379508,0.167360,-0.360111,36.983448,-87.346246,-37.291889
00486,136788,9.806720,0.638911,0.254264,-0.148917,-0.158706,0.050471,-0.371602,0.168061,-0.356560,37.621211,-87.435672,-38.015685
00487,136888,9.720076,0.530360,0.217474,-0.174008,-0.168100,0.055300,-0.367197,0.170763,-0.351907,38.321272,-87.530647,-38.816179
00488,136988,9.766956,0.422015,0.215624,-0.198269,-0.173418,0.062359,-0.359437,0.167615,-0.341036,39.038102,-87.630088,-39.647311
00489,137088,9.712917,0.424628,0.288663,-0.214091,-0.182761,0.069519,-0.355567,0.165270,-0.335139,39.820725,-87.735790,-40.553302
00490,137188,9.724506,0.428201,0.414915,-0.222761,-0.189069,0.076273,-0.351752,0.163777,-0.326192,40.665455,-87.846193,-41.526352
00491,137288,9.774705,0.544120,0.349268,-0.210766,-0.179564,0.084888,-0.345444,0.157784,-0.317973,41.410909,-87.955163,-42.393114
00492,137388,9.807123,0.664735,0.191090,-0.198296,-0.163794,0.084529,-0.345636,0.154313,-0.308129,42.080710,-88.056824,-43.176971
00493,137488,9.853302,0.680022,0.113222,-0.190090,-0.156592,0.077363,-0.343391,0.146198,-0.296014,42.843165,-88.152294,-44.048784
00494,137588,9.837657,0.548308,0.111539,-0.187102,-0.157922,0.068446,-0.344033,0.138396,-0.289398,43.834914,-88.244345,-45.148245
00495,137688,9.782065,0.372726,0.114043,-0.193430,-0.177265,0.064775,-0.346726,0.133943,-0.279106,45.260838,-88.342072,-46.685647
00496,137788,9.766388,0.254849,0.161159,-0.209921,-0.213647,0.064794,-0.351370,0.126654,-0.271467,47.424644,-88.452730,-48.970593
00497,137888,9.871352,0.202615,0.242627,-0.223178,-0.230210,0.062311,-0.356581,0.117211,-0.260430,50.244734,-88.565695,-51.919526
00498,137988,9.975817,0.163777,0.250348,-0.221656,-0.231284,0.059363,-0.360761,0.112309,-0.250664,53.612223,-88.673417,-55.415005
00499,138088,9.977140,0.205241,0.236374,-0.208997,-0.222531,0.056817,-0.368845,0.105195,-0.245524,57.414157,-88.771627,-59.337640
00500,138188,9.878144,0.217393,0.200313,-0.192151,-0.214861,0.055758,-0.375453,0.099006,-0.239333,61.691034,-88.860686,-63.725529
00501,138288,9.738722,0.181883,0.176452,-0.181945,-0.210463,0.052890,-0.381069,0.094770,-0.232541,66.583047,-88.939651,-68.722695
00502,138388,9.694883,0.142878,0.152962,-0.165203,-0.205506,0.049050,-0.386630,0.090678,-0.228748,72.111588,-89.006534,-74.346780
00503,138488,9.736772,-0.016804,0.137831,-0.148606,-0.197464,0.048271,-0.391250,0.086925,-0.221929,78.113438,-89.061370,-80.434631
00504,138588,9.731221,-0.098105,0.069642,-0.135810,-0.190121,0.051160,-0.397826,0.082302,-0.217162,84.508471,-89.105847,-86.908298
00505,138688,9.722530,-0.144297,0.027417,-0.126819,-0.193493,0.055594,-0.404412,0.078154,-0.211870,91.616249,-89.140502,-94.089572
00506,138788,9.804542,-0.078549,0.054466,-0.125242,-0.203066,0.065889,-0.404938,0.077592,-0.210396,99.632073,-89.165773,-102.178033
00507,138888,9.893536,0.081677,0.110046,-0.124855,-0.211245,0.073577,-0.404970,0.075527,-0.208998,108.378190,-89.176495,-110.996606
00508,138988,9.903044,0.246526,0.127488,-0.124082,-0.216073,0.075098,-0.409020,0.075421,-0.205500,117.339390,-89.167147,-120.029843
00509,139088,9.873779,0.374462,0.119045,-0.115263,-0.209835,0.070086,-0.408603,0.071733,-0.201680,125.593850,-89.137743,-128.351256
00510,139188,9.866802,0.373417,0.111923,-0.108708,-0.209224,0.059943,-0.408183,0.074498,-0.197029,132.890877,-89.087664,-135.711456
00511,139288,9.848098,0.304146,-0.025536,-0.103569,-0.203224,0.050399,-0.412637,0.075139,-0.198504,138.958973,-89.023345,-141.839734
00512,139388,9.913964,0.210569,-0.105047,-0.098491,-0.201342,0.043346,-0.409685,0.075494,-0.196479,144.011603,-88.947891,-146.949607
00513,139488,9.890434,0.138186,-0.114156,-0.094480,-0.206625,0.042762,-0.412227,0.077880,-0.193353,148.422878,-88.862549,-151.415842
00514,139588,9.843755,0.061720,-0.110889,-0.089122,-0.219901,0.042485,-0.410256,0.081264,-0.191676,152.356599,-88.764556,-155.401495
00515,139688,9.801218,0.023128,-0.096888,-0.082304,-0.231183,0.039651,-0.412762,0.083248,-0.190575,155.749367,-88.654998,-158.842308
00516,139788,9.772811,-0.018330,-0.060244,-0.074478,-0.244223,0.043000,-0.410776,0.084687,-0.189999,158.800066,-88.535145,-161.936628
00517,139888,9.787075,0.001887,-0.015182,-0.070496,-0.252174,0.050041,-0.410282,0.087644,-0.189346,161.572304,-88.408715,-164.750278
00518,139988,9.787019,0.059079,-0.026003,-0.068265,-0.255061,0.059707,-0.410836,0.087508,-0.186347,164.122404,-88.279030,-167.340596
00519,140088,9.738445,0.129489,-0.094807,-0.074322,-0.254025,0.067298,-0.412848,0.091951,-0.184620,166.431468,-88.147997,-169.693411
00520,140188,9.726520,0.234895,-0.151600,-0.092198,-0.243481,0.073194,-0.411857,0.094403,-0.183993,168.480068,-88.020925,-171.796040
00521,140288,9.718780,0.386395,-0.246903,-0.111594,-0.232425,0.077906,-0.408966,0.096581,-0.178367,170.307896,-87.898282,-173.689037
00522,140388,9.672702,0.547085,-0.277360,-0.127942,-0.225190,0.076460,-0.411937,0.096179,-0.179393,171.882445,-87.777664,-175.338101
00523,140488,9.636082,0.655199,-0.291848,-0.131777,-0.229556,0.071040,-0.415933,0.100678,-0.178166,173.218051,-87.652626,-176.750373
00524,140588,9.681309,0.690971,-0.258614,-0.126672,-0.236017,0.059962,-0.415489,0.101522,-0.175116,174.277471,-87.522081,-177.883421
00525,140688,9.780195,0.570439,-0.215209,-0.118582,-0.239390,0.046068,-0.416968,0.105057,-0.175439,175.059649,-87.388146,-178.734433
00526,140788,9.887226,0.324686,-0.189716,-0.113687,-0.233432,0.032812,-0.417459,0.109051,-0.175236,175.600896,-87.256601,-179.341536
00527,140888,10.009157,0.084238,-0.174282,-0.112935,-0.223758,0.032031,-0.419446,0.112072,-0.175084,176.073664,-87.130345,-179.879716
00528,140988,10.028960,-0.090407,-0.187459,-0.114939,-0.210486,0.037934,-0.419460,0.114515,-0.173957,176.559039,-87.011721,179.568272
00529,141088,10.037230,-0.148083,-0.208511,-0.115935,-0.203572,0.046775,-0.418930,0.122029,-0.174576,177.094372,-86.897126,178.965602
00530,141188,9.988815,-0.133377,-0.236230,-0.119603,-0.199486,0.058347,-0.419398,0.128562,-0.175245,177.703819,-86.784894,178.286534
00531,141288,9.883843,-0.022356,-0.273868,-0.120441,-0.200987,0.071736,-0.418887,0.136027,-0.174864,178.401832,-86.671677,177.518199
00532,141388,9.738672,0.166031,-0.332667,-0.123278,-0.210374,0.082175,-0.419398,0.138976,-0.173712,179.150474,-86.552693,176.697425
00533,141488,9.655820,0.328468,-0.357151,-0.116398,-0.220522,0.081277,-0.424913,0.144922,-0.170910,179.841986,-86.427316,175.937729
00534,141588,9.634928,0.349791,-0.385321,-0.104836,-0.224450,0.080672,-0.422929,0.150820,-0.169605,-179.515456,-86.299181,175.233613
00535,141688,9.691074,0.309734,-0.418193,-0.088749,-0.221205,0.075017,-0.423447,0.160198,-0.167123,-178.957272,-86.172511,174.623187
00536,141788,9.836090,0.235802,-0.414801,-0.069703,-0.217295,0.067478,-0.423852,0.165904,-0.171342,-178.487705,-86.047851,174.112426
00537,141888,9.999051,0.143600,-0.411520,-0.058280,-0.203473,0.060535,-0.427267,0.180528,-0.173105,-178.093846,-85.930999,173.684043
00538,141988,10.076518,0.126656,-0.407436,-0.056992,-0.184262,0.057470,-0.427713,0.189102,-0.174673,-177.740306,-85.825053,173.296761
00539,142088,10.132717,0.159019,-0.422375,-0.059672,-0.171153,0.056697,-0.434157,0.196228,-0.175319,-177.408105,-85.726499,172.929284
00540,142188,10.061317,0.156087,-0.363415,-0.073158,-0.164053,0.061247,-0.438126,0.205260,-0.174863,-177.062643,-85.631768,172.540710
00541,142288,9.987586,0.136667,-0.401348,-0.082847,-0.159548,0.067512,-0.440599,0.210305,-0.175110,-176.690525,-85.539277,172.119782
00542,142388,9.887597,0.169061,-0.401621,-0.071877,-0.156503,0.073321,-0.446098,0.214804,-0.173383,-176.285319,-85.448146,171.671913
00543,142488,9.717460,0.189470,-0.394746,-0.049749,-0.157674,0.073784,-0.452019,0.220500,-0.175605,-175.881833,-85.356122,171.238428
00544,142588,9.602175,0.145763,-0.518812,-0.025928,-0.155607,0.062845,-0.455053,0.226382,-0.172302,-175.555556,-85.265554,170.896048
00545,142688,9.537977,0.085654,-0.630247,0.002774,-0.152570,0.041136,-0.459110,0.232705,-0.167475,-175.370815,-85.177592,170.712155
00546,142788,9.535545,0.004959,-0.646138,0.022349,-0.147120,0.023882,-0.465065,0.235339,-0.168349,-175.293223,-85.093523,170.647028
00547,142888,9.683100,-0.034223,-0.561114,0.036656,-0.153920,0.021612,-0.471593,0.237291,-0.165251,-175.228341,-85.005695,170.602879
00548,142988,9.839347,-0.048917,-0.555573,0.040314,-0.150018,0.029965,-0.474125,0.239701,-0.162625,-175.107378,-84.919713,170.504528
00549,143088,9.857279,-0.011176,-0.665330,0.037220,-0.143813,0.045276,-0.481138,0.238719,-0.160679,-174.891621,-84.836498,170.309210
00550,143188,9.803382,-0.012129,-0.791189,0.029136,-0.146846,0.064407,-0.486151,0.242189,-0.158504,-174.569888,-84.750467,170.002798
00551,143288,9.759630,-0.028756,-0.807460,0.026067,-0.160484,0.079135,-0.489735,0.239014,-0.153659,-174.178572,-84.655662,169.624694
00552,143388,9.682676,0.021818,-0.723097,0.035997,-0.181680,0.086041,-0.493196,0.243602,-0.154431,-173.767561,-84.548135,169.232457
00553,143488,9.526782,0.219508,-0.591320,0.047049,-0.206244,0.079908,-0.498250,0.244485,-0.150383,-173.418481,-84.426802,168.908723
00554,143588,9.328576,0.527769,-0.509137,0.056073,-0.227089,0.049511,-0.502751,0.245006,-0.149360,-173.266703,-84.295537,168.788367
00555,143688,9.264853,0.802278,-0.550821,0.064438,-0.234953,0.009739,-0.505789,0.248396,-0.146184,-173.343799,-84.162491,168.902829
00556,143788,9.458865,0.849460,-0.751381,0.069356,-0.214031,-0.028234,-0.509781,0.249930,-0.145609,-173.608860,-84.043818,169.209101
00557,143888,9.865626,0.655033,-0.936222,0.071346,-0.171080,-0.051225,-0.513811,0.250371,-0.143086,-173.961233,-83.950876,169.604359
00558,143988,10.339014,0.305873,-1.048386,0.066425,-0.127745,-0.052714,-0.517282,0.248980,-0.144163,-174.290438,-83.882474,169.973535
00559,144088,10.566380,-0.061558,-1.085295,0.055720,-0.109338,-0.031003,-0.522308,0.244478,-0.142394,-174.494387,-83.823164,170.210605
00560,144188,10.474076,-0.314013,-1.055558,0.029145,-0.118474,-0.003197,-0.527826,0.243971,-0.140422,-174.568321,-83.757058,170.301606
00561,144288,10.261617,-0.384026,-0.972399,0.008284,-0.137320,0.024638,-0.531863,0.240924,-0.138077,-174.517712,-83.678688,170.255303
00562,144388,9.963530,-0.327870,-0.903898,0.001217,-0.136412,0.048038,-0.539442,0.237788,-0.132733,-174.352521,-83.599534,170.089630
00563,144488,9.620659,-0.067114,-0.914201,0.001631,-0.130783,0.061791,-0.543983,0.231262,-0.130566,-174.119118,-83.522743,169.855525
00564,144588,9.290496,0.262626,-1.027568,0.005067,-0.129741,0.058815,-0.548475,0.226351,-0.130821,-173.903708,-83.446617,169.641472
00565,144688,9.168908,0.477717,-1.154178,0.013994,-0.131222,0.042623,-0.551515,0.218829,-0.129204,-173.768787,-83.370553,169.513551
00566,144788,9.332245,0.554884,-1.155387,0.027462,-0.128996,0.024579,-0.558600,0.213194,-0.123988,-173.715962,-83.296848,169.476026
00567,144888,9.688682,0.411016,-1.167257,0.037469,-0.116311,0.013466,-0.562575,0.208821,-0.125217,-173.705404,-83.231054,169.486822
00568,144988,9.961009,0.210324,-1.100403,0.043161,-0.095906,0.013018,-0.569045,0.201499,-0.126600,-173.683219,-83.176910,169.489190
00569,145088,10.066270,0.092193,-0.978351,0.034924,-0.090049,0.019192,-0.570043,0.200518,-0.126651,-173.633736,-83.125727,169.459309
00570,145188,10.014698,0.051929,-0.887132,0.024685,-0.090943,0.023503,-0.575028,0.198106,-0.126780,-173.570976,-83.073783,169.410139
00571,145288,9.863365,0.080315,-0.888195,0.007389,-0.094248,0.029723,-0.575950,0.198314,-0.130779,-173.491797,-83.019574,169.334437
00572,145388,9.641039,0.228943,-1.004989,-0.013399,-0.101491,0.031898,-0.579463,0.193838,-0.130008,-173.419701,-82.961100,169.253858
00573,145488,9.509936,0.354565,-1.083231,-0.032601,-0.106254,0.032765,-0.583952,0.195878,-0.129409,-173.358717,-82.899852,169.173374
00574,145588,9.477013,0.395875,-1.131537,-0.049978,-0.112087,0.033264,-0.586888,0.194575,-0.132484,-173.310061,-82.835242,169.095261
00575,145688,9.555889,0.339401,-1.204356,-0.068446,-0.115636,0.037421,-0.588355,0.194173,-0.134010,-173.256622,-82.768321,169.001644
00576,145788,9.727039,0.257765,-1.157586,-0.078043,-0.128867,0.037090,-0.592238,0.194002,-0.139534,-173.218710,-82.693887,168.918116
00577,145888,9.936462,0.092706,-0.996541,-0.065998,-0.139533,0.034611,-0.597242,0.197497,-0.137859,-173.191711,-82.613570,168.852533
00578,145988,10.042894,-0.175248,-0.784541,-0.037458,-0.134913,0.032085,-0.596189,0.198124,-0.140831,-173.157797,-82.536095,168.796456
00579,146088,10.137139,-0.394767,-0.644798,-0.003993,-0.119218,0.039874,-0.600642,0.199264,-0.142282,-173.063669,-82.467065,168.698979
00580,146188,10.193213,-0.487082,-0.611163,0.019733,-0.088664,0.045225,-0.604143,0.196804,-0.141910,-172.918322,-82.415073,168.563541
00581,146288,10.237397,-0.330149,-0.791514,0.023012,-0.056394,0.041630,-0.607587,0.199945,-0.143758,-172.770615,-82.381684,168.427607
00582,146388,10.190579,-0.001538,-1.104496,-0.005311,-0.027578,0.034032,-0.611032,0.197131,-0.146410,-172.656772,-82.365199,168.309459
00583,146488,10.062703,0.392690,-1.376980,-0.049363,-0.016718,0.017474,-0.610499,0.196223,-0.148460,-172.633098,-82.356072,168.256812
00584,146588,9.802146,0.606622,-1.422431,-0.090452,-0.020099,-0.003578,-0.615470,0.196825,-0.148936,-172.724457,-82.346548,168.296465
00585,146688,9.640448,0.634726,-1.267241,-0.122873,-0.013243,-0.017149,-0.617957,0.193401,-0.149615,-172.888468,-82.341885,168.390672
00586,146788,9.597652,0.438305,-1.042208,-0.148343,0.010704,-0.017956,-0.619395,0.189109,-0.153342,-173.058259,-82.350882,168.475979
00587,146888,9.674667,0.134653,-0.845808,-0.105515,0.093665,0.000869,-0.621316,0.187340,-0.157443,-173.081173,-82.405784,168.437850
00588,146988,9.568874,0.014397,-0.957201,-0.110677,0.077868,-0.006387,-0.625769,0.183522,-0.159647,-173.146296,-82.452227,168.439325
00589,147088,9.745119,0.014388,-1.128184,-0.144738,-0.022817,0.014797,-0.629229,0.177695,-0.161952,-173.192128,-82.439953,168.401653
00590,147188,9.953568,-0.370027,-0.634843,-0.142753,0.020148,0.023034,-0.628699,0.174794,-0.164104,-173.179053,-82.451624,168.305712
00591,147288,10.083548,-0.413500,-0.642729,-0.149155,0.096656,0.022185,-0.629625,0.172511,-0.168229,-173.132842,-82.506928,168.172664
00592,147388,9.777477,-0.391468,-0.926477,-0.179393,0.127883,0.022496,-0.633043,0.169770,-0.172381,-173.084335,-82.579980,168.019855
00593,147488,9.761136,-0.403743,-0.943212,-0.194243,0.139239,0.031786,-0.635978,0.168467,-0.175457,-172.994819,-82.658840,167.817149
00594,147588,9.729655,-0.377223,-0.970102,-0.197948,0.164356,0.038776,-0.632879,0.167712,-0.181504,-172.858574,-82.751450,167.565242
00595,147688,9.521327,-0.393157,-0.899311,-0.197762,0.174374,0.044561,-0.634352,0.164320,-0.183182,-172.684775,-82.849266,167.275652
00596,147788,9.365885,-0.388667,-0.872482,-0.211784,0.176127,0.055053,-0.638729,0.166649,-0.188580,-172.463034,-82.947190,166.929725
00597,147888,9.293472,-0.353535,-0.809453,-0.239072,0.187167,0.057956,-0.638169,0.165315,-0.192155,-172.228118,-83.051010,166.554854
00598,147988,9.353253,-0.333397,-0.864592,-0.239169,0.188152,0.056770,-0.636156,0.166328,-0.193103,-171.988633,-83.155303,166.175417
00599,148088,9.401523,-0.336492,-0.952524,-0.208480,0.171910,0.054326,-0.637603,0.166970,-0.195577,-171.744654,-83.250390,165.809250
00600,148188,9.432609,-0.507444,-0.953920,-0.185848,0.126865,0.039204,-0.636531,0.167646,-0.199550,-171.584468,-83.321040,165.540582
00601,148288,9.572607,-0.769853,-0.862616,-0.160681,0.087274,0.025342,-0.637507,0.168706,-0.200499,-171.501372,-83.370355,165.364089
00602,148388,9.611229,-0.991694,-0.583429,-0.139985,0.069626,0.015060,-0.635981,0.170748,-0.201896,-171.467037,-83.410549,165.248650
00603,148488,9.552955,-1.108624,-0.445927,-0.129077,0.057889,0.012690,-0.636979,0.169767,-0.201947,-171.444889,-83.444326,165.151792
00604,148588,9.588159,-1.176878,-0.472406,-0.110065,0.070868,0.020291,-0.634450,0.170322,-0.203920,-171.362614,-83.484828,165.005401
00605,148688,10.061511,-1.086738,-0.669241,-0.123902,0.094654,0.021827,-0.636007,0.171672,-0.200346,-171.259868,-83.538661,164.830454
00606,148788,10.023516,-1.290725,-0.882875,-0.088827,0.069722,0.033978,-0.639964,0.171808,-0.201847,-171.091962,-83.577253,164.610190
00607,148888,10.040036,-1.226214,-0.865702,-0.067377,0.051958,0.047909,-0.639469,0.175263,-0.201169,-170.852370,-83.604445,164.330185
00608,148988,9.998984,-1.041442,-0.678952,-0.048119,0.064942,0.059540,-0.640943,0.176331,-0.202118,-170.528705,-83.637759,163.976714
00609,149088,9.888962,-0.800237,-0.693450,-0.018507,0.068814,0.069719,-0.641927,0.177866,-0.202542,-170.128569,-83.672046,163.563405
00610,149188,9.922074,-0.577448,-0.544676,0.018252,0.074216,0.075360,-0.639929,0.175865,-0.203143,-169.668578,-83.708500,163.111101
00611,149288,9.982747,-0.483368,-0.403299,0.062009,0.095123,0.065625,-0.643440,0.178340,-0.201517,-169.207319,-83.757399,162.682787
00612,149388,10.077836,-0.406948,-0.334180,0.084527,0.116658,0.037558,-0.642925,0.177384,-0.202568,-168.849233,-83.821191,162.371283
00613,149488,10.289502,-0.307504,-0.413433,0.086654,0.115636,0.009646,-0.643906,0.180413,-0.202915,-168.630171,-83.887411,162.200874
00614,149588,10.440836,-0.312256,-0.281144,0.086092,0.097536,-0.009092,-0.645855,0.179070,-0.205491,-168.525711,-83.945603,162.145414
00615,149688,10.274310,-0.391390,-0.003770,0.076655,0.101793,-0.013706,-0.645833,0.175655,-0.207169,-168.444785,-84.006790,162.108193
00616,149788,10.179933,-0.297371,-0.090642,0.057886,0.076504,-0.021667,-0.646840,0.175148,-0.206694,-168.444101,-84.054767,162.140843
00617,149888,10.128005,-0.174175,-0.085159,0.057344,0.049351,-0.025475,-0.646841,0.174152,-0.206745,-168.494554,-84.088014,162.224591
00618,149988,10.009530,-0.170530,0.014280,0.065417,0.052917,-0.027878,-0.643778,0.174297,-0.210743,-168.550153,-84.123613,162.318158
00619,150088,9.886882,-0.294567,-0.000970,0.069462,0.052083,-0.029907,-0.645793,0.172288,-0.209845,-168.616131,-84.159043,162.424482
00620,150188,9.763260,-0.417377,-0.017150,0.070836,0.038203,-0.033326,-0.649254,0.170920,-0.211422,-168.716157,-84.187115,162.565820
00621,150288,9.608023,-0.526422,-0.040130,0.067967,0.031297,-0.037645,-0.647252,0.170913,-0.211921,-168.850019,-84.211823,162.739512
00622,150388,9.493950,-0.676651,-0.040664,0.072319,0.024821,-0.036202,-0.648765,0.171387,-0.210896,-168.981031,-84.232750,162.912844
00623,150488,9.433516,-0.816775,-0.180142,0.067381,0.012498,-0.029719,-0.649283,0.170350,-0.209948,-169.092239,-84.246042,163.063428
00624,150588,9.375960,-0.898532,-0.306953,0.075829,-0.000686,-0.012194,-0.652775,0.167914,-0.210076,-169.114481,-84.250027,163.129465
00625,150688,9.197086,-0.873568,-0.259068,0.102663,-0.027307,0.006892,-0.651742,0.167496,-0.212101,-169.042659,-84.236995,163.116423
00626,150788,8.975112,-0.764850,-0.249053,0.134992,-0.071420,0.014541,-0.655753,0.168484,-0.210552,-168.957049,-84.198345,163.108145
00627,150888,8.884292,-0.602639,-0.202531,0.166744,-0.115690,0.013565,-0.653774,0.165937,-0.210178,-168.906332,-84.134947,163.153233
00628,150988,8.931455,-0.484758,-0.158162,0.183330,-0.146503,0.004036,-0.654773,0.164458,-0.210254,-168.929984,-84.055319,163.282650
00629,151088,8.951000,-0.470880,-0.202628,0.191704,-0.167023,-0.013495,-0.659294,0.163935,-0.208282,-169.061046,-83.966094,163.524915
00630,151188,8.942930,-0.535903,-0.196055,0.194364,-0.197968,-0.031644,-0.661288,0.162970,-0.208334,-169.310564,-83.861364,163.887885
00631,151288,8.969478,-0.625143,-0.121413,0.191893,-0.228545,-0.047041,-0.657315,0.161886,-0.207883,-169.658704,-83.740871,164.348714
00632,151388,9.102869,-0.675672,0.018239,0.185079,-0.245826,-0.055800,-0.661322,0.159908,-0.206987,-170.054353,-83.611263,164.853529
00633,151488,9.293550,-0.639681,0.139355,0.179035,-0.237374,-0.055328,-0.660893,0.157241,-0.203615,-170.425693,-83.486098,165.330525
00634,151588,9.493242,-0.550844,0.169641,0.181888,-0.212006,-0.050461,-0.661872,0.156806,-0.204640,-170.735381,-83.374592,165.747222
00635,151688,9.580893,-0.481330,0.079974,0.199163,-0.186300,-0.048773,-0.667372,0.155849,-0.203693,-170.995445,-83.277327,166.124013
00636,151788,9.649050,-0.456280,-0.012443,0.227166,-0.181101,-0.046987,-0.665915,0.155231,-0.201719,-171.217999,-83.182745,166.479264
00637,151888,9.720918,-0.500041,-0.044649,0.256796,-0.183079,-0.046287,-0.665445,0.155150,-0.200219,-171.413622,-83.086909,166.824562
00638,151988,9.765328,-0.558457,-0.049382,0.286678,-0.186477,-0.046869,-0.666943,0.153181,-0.200321,-171.589512,-82.989143,167.167301
00639,152088,9.776992,-0.606369,-0.015907,0.306958,-0.190125,-0.052400,-0.667950,0.152176,-0.199872,-171.773920,-82.889722,167.530410
00640,152188,9.774992,-0.678545,0.058647,0.314810,-0.199687,-0.057435,-0.668978,0.150127,-0.198475,-171.974486,-82.785227,167.914422
00641,152288,9.817849,-0.664746,0.158956,0.317964,-0.199799,-0.057449,-0.669962,0.146703,-0.199653,-172.164664,-82.680612,168.289877
00642,152388,9.860986,-0.640416,0.242124,0.319724,-0.187953,-0.057136,-0.673015,0.147080,-0.196130,-172.337287,-82.582661,168.648737
00643,152488,9.770361,-0.582967,0.255987,0.318615,-0.172638,-0.058641,-0.672009,0.147088,-0.196629,-172.501222,-82.493504,168.998274
00644,152588,9.653307,-0.521906,0.251520,0.324824,-0.163854,-0.059130,-0.674034,0.144557,-0.195257,-172.652667,-82.409365,169.338871
00645,152688,9.583127,-0.421304,0.245683,0.332225,-0.162246,-0.064332,-0.677996,0.147159,-0.196131,-172.815445,-82.326510,169.695250
00646,152788,9.541543,-0.342194,0.271742,0.347267,-0.162271,-0.074565,-0.678526,0.144604,-0.194759,-173.006758,-82.244337,170.089189
00647,152888,9.561600,-0.317668,0.309033,0.364531,-0.145135,-0.089931,-0.679553,0.143053,-0.193336,-173.237288,-82.172896,170.532764
00648,152988,9.569079,-0.345511,0.256262,0.373592,-0.122934,-0.106585,-0.679058,0.141550,-0.193412,-173.514649,-82.115044,171.028921
00649,153088,9.633138,-0.374893,0.203570,0.375518,-0.116700,-0.116860,-0.683057,0.139098,-0.193040,-173.824437,-82.061158,171.558996
00650,153188,9.686283,-0.391462,0.118007,0.381025,-0.114479,-0.120711,-0.682552,0.137620,-0.193616,-174.140044,-82.008478,172.098198
00651,153288,9.753052,-0.388449,0.149957,0.380623,-0.122210,-0.123944,-0.684557,0.135634,-0.193219,-174.466196,-81.951267,172.647885
00652,153388,9.836145,-0.325378,0.207457,0.387361,-0.122489,-0.121332,-0.685097,0.133054,-0.191347,-174.771899,-81.893453,173.180892
00653,153488,9.739923,-0.274895,0.122094,0.398789,-0.102248,-0.124888,-0.685552,0.131190,-0.193948,-175.072508,-81.847085,173.715432
00654,153588,9.630605,-0.297789,0.115929,0.391726,-0.096513,-0.133348,-0.687093,0.131093,-0.191449,-175.404170,-81.804084,174.277309
00655,153688,9.776209,-0.331390,0.177063,0.371545,-0.093223,-0.140846,-0.686619,0.128048,-0.190602,-175.771311,-81.762920,174.863403
00656,153788,10.030374,-0.386727,0.385133,0.355651,-0.077765,-0.143502,-0.688606,0.125612,-0.191229,-176.149150,-81.730290,175.451155
00657,153888,10.253720,-0.383591,0.427662,0.337282,-0.071419,-0.140980,-0.691580,0.123715,-0.192331,-176.522235,-81.700788,176.023508
00658,153988,10.478501,-0.305648,0.521456,0.323825,-0.081647,-0.137149,-0.690085,0.123691,-0.192331,-176.886740,-81.664935,176.579439
00659,154088,10.780951,-0.254424,0.646993,0.315917,-0.074243,-0.132992,-0.693108,0.120179,-0.191010,-177.234283,-81.632869,177.113686
00660,154188,11.040783,-0.317730,0.759524,0.293339,-0.033744,-0.130832,-0.692077,0.118765,-0.193085,-177.576522,-81.623644,177.629519
00661,154288,11.224391,-0.302755,0.799765,0.280414,0.028226,-0.132574,-0.693092,0.118732,-0.192086,-177.923556,-81.649676,178.142693
00662,154388,11.316298,-0.258433,0.802800,0.286153,0.112723,-0.140785,-0.695041,0.117390,-0.194662,-178.292736,-81.723972,178.681498
00663,154488,11.382465,-0.313718,0.700430,0.290164,0.178224,-0.150511,-0.695513,0.116474,-0.196212,-178.700913,-81.835577,179.261888
00664,154588,11.514396,-0.419834,0.589752,0.297676,0.212809,-0.153164,-0.694989,0.115043,-0.197788,-179.127135,-81.966579,179.864668
00665,154688,11.843251,-0.396742,0.480600,0.301483,0.225498,-0.147616,-0.696442,0.112696,-0.200414,-179.544855,-82.104339,-179.539145
00666,154788,12.137524,-0.430681,0.269702,0.290931,0.220485,-0.144098,-0.697405,0.110317,-0.202541,-179.971705,-82.238739,-178.940050
00667,154888,12.501013,-0.492502,0.030193,0.262767,0.213109,-0.135824,-0.698888,0.111362,-0.202990,179.602964,-82.368428,-178.358966
00668,154988,12.704874,-0.654056,-0.293648,0.236014,0.225722,-0.117073,-0.697840,0.109497,-0.206090,179.225879,-82.504986,-177.842201
00669,155088,12.793696,-0.721613,-0.736257,0.211781,0.237126,-0.097672,-0.699770,0.108203,-0.209666,178.903634,-82.647875,-177.394908
00670,155188,12.601731,-0.721654,-1.214107,0.208902,0.225797,-0.075498,-0.702164,0.109978,-0.214588,178.666552,-82.784245,-177.035274
00671,155288,12.301725,-0.687493,-1.653752,0.206394,0.191902,-0.064800,-0.702685,0.107945,-0.213691,178.470617,-82.901117,-176.718657
00672,155388,11.798556,-0.593384,-1.943512,0.200044,0.131770,-0.051811,-0.704668,0.108000,-0.214191,178.332011,-82.983544,-176.463540
00673,155488,11.376096,-0.340064,-2.061183,0.181851,0.062982,-0.042706,-0.705137,0.108579,-0.215665,178.231590,-83.026551,-176.257429
00674,155588,11.027046,0.001236,-1.956196,0.150875,0.002693,-0.039786,-0.706578,0.107252,-0.218741,178.134610,-83.034933,-176.072678
00675,155688,10.645468,0.354739,-1.753737,0.106507,-0.039153,-0.044894,-0.707096,0.106714,-0.217767,177.994539,-83.019112,-175.870130
00676,155788,10.206766,0.674888,-1.509124,0.051697,-0.071222,-0.051117,-0.709546,0.108843,-0.219665,177.800086,-82.984649,-175.644429
00677,155888,9.727288,0.916372,-1.229255,-0.005017,-0.078146,-0.057905,-0.709112,0.109164,-0.216141,177.544525,-82.945900,-175.389895
00678,155988,9.149276,1.121101,-1.101620,-0.082146,-0.045123,-0.060162,-0.711047,0.110337,-0.219089,177.229204,-82.925786,-175.119673
00679,156088,8.426117,1.227850,-1.155029,-0.178106,0.011633,-0.062724,-0.711529,0.108898,-0.220165,176.833838,-82.937800,-174.824209
00680,156188,7.745280,1.210460,-1.324102,-0.271774,0.081001,-0.058004,-0.713505,0.107981,-0.221216,176.384845,-82.989292,-174.528825
00681,156288,7.300925,1.048811,-1.706829,-0.338442,0.165052,-0.050163,-0.711502,0.108472,-0.221690,175.900661,-83.088707,-174.236531
00682,156388,7.116181,0.841116,-2.245911,-0.376832,0.192169,-0.032691,-0.713955,0.108608,-0.223690,175.456203,-83.203898,-174.006476
00683,156488,7.094060,0.814061,-2.614147,-0.400567,0.156580,-0.016586,-0.711886,0.109766,-0.227637,175.079276,-83.299113,-173.858173
00684,156588,7.355518,0.841346,-2.753208,-0.408185,0.102698,-0.004766,-0.712358,0.108849,-0.229187,174.772170,-83.363845,-173.784590
00685,156688,7.843338,0.886203,-2.685384,-0.399832,0.061153,0.001271,-0.714359,0.109853,-0.228637,174.515103,-83.404944,-173.756574
00686,156788,8.386669,0.782777,-2.645551,-0.375196,0.019141,0.015339,-0.717327,0.110945,-0.229587,174.360249,-83.422655,-173.817244
00687,156888,8.917585,0.606825,-2.636335,-0.336147,-0.032110,0.036492,-0.714875,0.110311,-0.227613,174.357063,-83.412153,-174.008066
00688,156988,9.508856,0.502299,-2.453232,-0.288940,-0.080670,0.045430,-0.714843,0.112376,-0.229011,174.447575,-83.374279,-174.265990
00689,157088,10.098390,0.503506,-2.137382,-0.236054,-0.095606,0.053990,-0.714340,0.114859,-0.228884,174.614828,-83.328159,-174.570688
00690,157188,10.428658,0.495811,-1.820738,-0.192476,-0.072962,0.054559,-0.716869,0.114305,-0.226910,174.796468,-83.294788,-174.864757
00691,157288,10.708935,0.472336,-1.756733,-0.154119,-0.054770,0.057449,-0.715877,0.117254,-0.226258,175.003890,-83.271747,-175.162673
00692,157388,10.519388,0.413379,-1.717787,-0.136186,-0.094983,0.063494,-0.716915,0.114682,-0.224386,175.264816,-83.225820,-175.504140
00693,157488,10.376029,0.449302,-1.458023,-0.142607,-0.115633,0.060493,-0.715913,0.117656,-0.224233,175.511188,-83.167729,-175.834690
00694,157588,10.137918,0.404297,-1.044812,-0.152671,-0.108090,0.058147,-0.718382,0.119737,-0.225132,175.733074,-83.113667,-176.146425
00695,157688,9.755806,0.456743,-0.720698,-0.167820,-0.096851,0.065052,-0.717917,0.127082,-0.222252,175.970699,-83.066172,-176.482791
00696,157788,9.367116,0.624826,-0.462912,-0.197474,-0.090294,0.072517,-0.718910,0.123634,-0.222930,176.220010,-83.022572,-176.848082
00697,157888,9.028627,0.767388,-0.291319,-0.233460,-0.082916,0.079536,-0.719936,0.127539,-0.220727,176.475028,-82.983292,-177.239934
00698,157988,8.709754,0.810168,-0.194341,-0.254772,-0.063196,0.085765,-0.719919,0.132047,-0.220999,176.737517,-82.955332,-177.651650
00699,158088,8.512446,0.865153,-0.230288,-0.265422,-0.050136,0.086766,-0.717943,0.133462,-0.219922,176.992286,-82.934688,-178.061762
00700,158188,8.349777,0.712876,-0.269925,-0.261125,-0.035189,0.085146,-0.720421,0.135519,-0.220321,177.236510,-82.922367,-178.458786
00701,158288,8.311538,0.545478,-0.299350,-0.253202,-0.018344,0.083261,-0.720435,0.137962,-0.219195,177.471904,-82.919465,-178.842347
00702,158388,8.427094,0.326249,-0.290869,-0.240170,0.001580,0.081214,-0.718958,0.138388,-0.218169,177.701416,-82.927764,-179.212452
00703,158488,8.606793,0.158185,-0.310544,-0.229614,0.021263,0.087238,-0.719902,0.142012,-0.220490,177.962416,-82.947304,-179.608177
00704,158588,8.679890,0.162257,-0.343583,-0.224808,0.033685,0.095419,-0.719386,0.141056,-0.221541,178.264310,-82.973907,179.957689
00705,158688,8.681931,0.309108,-0.407094,-0.234279,0.025778,0.101402,-0.722882,0.146544,-0.220263,178.592237,-82.995808,179.491885
00706,158788,8.605497,0.531090,-0.491103,-0.236833,0.016155,0.098731,-0.723886,0.147532,-0.219712,178.909225,-83.011861,179.035647
00707,158888,8.448001,0.681799,-0.469939,-0.256897,-0.008050,0.091655,-0.720876,0.149027,-0.220635,179.184423,-83.013710,178.609935
00708,158988,8.503485,0.790152,-0.415086,-0.263687,-0.010539,0.083756,-0.719365,0.153013,-0.220931,179.418630,-83.013872,178.221600
00709,159088,8.532913,0.814723,-0.216140,-0.266486,-0.009906,0.080271,-0.723387,0.152980,-0.218933,179.634476,-83.014235,177.850143
00710,159188,8.540592,0.839263,-0.265304,-0.269469,-0.041438,0.083190,-0.724862,0.153550,-0.219908,179.861967,-82.996403,177.465221
00711,159288,8.690060,0.821406,-0.219749,-0.255780,-0.076897,0.084328,-0.724334,0.155109,-0.221331,-179.899936,-82.958109,177.077486
00712,159388,8.889137,0.760500,-0.131720,-0.233195,-0.085982,0.086178,-0.724350,0.156556,-0.220255,-179.644507,-82.914456,176.685288
00713,159488,8.979054,0.679070,-0.117304,-0.219786,-0.088676,0.083661,-0.721833,0.160550,-0.221051,-179.397418,-82.869118,176.309196
00714,159588,9.061672,0.631524,-0.041269,-0.204900,-0.083236,0.080857,-0.724851,0.160027,-0.219578,-179.158455,-82.826785,175.949849
00715,159688,9.203055,0.657780,0.038352,-0.185536,-0.060531,0.074695,-0.725793,0.164149,-0.221874,-178.938160,-82.797415,175.620470
00716,159788,9.327842,0.702821,0.030216,-0.168324,-0.036559,0.066303,-0.723326,0.161571,-0.221000,-178.746055,-82.781800,175.329425
00717,159888,9.438610,0.716215,0.045702,-0.148569,-0.021850,0.054978,-0.725351,0.163997,-0.218875,-178.593506,-82.774730,175.089649
00718,159988,9.536825,0.659197,0.072856,-0.127617,-0.012431,0.045162,-0.723355,0.165958,-0.218773,-178.472841,-82.773207,174.894107
00719,160088,9.583781,0.628275,0.106798,-0.102348,-0.002023,0.036803,-0.726304,0.167597,-0.220696,-178.374497,-82.777814,174.735653
00720,160188,9.665045,0.546843,0.154052,-0.067495,0.025737,0.032237,-0.724262,0.169180,-0.223119,-178.273128,-82.798449,174.594281
00721,160288,9.846930,0.417368,0.226674,-0.039137,0.086544,0.036785,-0.727234,0.168279,-0.224170,-178.125227,-82.853879,174.422395
00722,160388,10.026335,0.291495,0.158841,-0.028392,0.153632,0.051562,-0.726196,0.170851,-0.226042,-177.889339,-82.947448,174.168076
00723,160488,10.174838,0.284716,0.015122,-0.038015,0.206542,0.074207,-0.724631,0.173985,-0.229388,-177.535634,-83.070701,173.789565
00724,160588,10.312009,0.423070,-0.207198,-0.070642,0.241583,0.104203,-0.726604,0.175061,-0.230337,-177.035252,-83.212904,173.244602
00725,160688,10.434713,0.651509,-0.457007,-0.130209,0.260975,0.133195,-0.726595,0.179545,-0.230108,-176.399142,-83.364630,172.528781
00726,160788,10.549618,0.954516,-0.602586,-0.211116,0.254589,0.159490,-0.722030,0.179193,-0.234631,-175.649397,-83.510662,171.652134
00727,160888,10.842531,1.390200,-0.524991,-0.296235,0.236100,0.176606,-0.723037,0.183146,-0.233428,-174.833602,-83.643976,170.660188
00728,160988,11.391641,1.758920,-0.186200,-0.366045,0.232100,0.179460,-0.722460,0.186320,-0.237274,-174.008287,-83.773321,169.618675
00729,161088,12.095933,1.876640,0.196319,-0.375395,0.253277,0.164414,-0.722981,0.188747,-0.235648,-173.216769,-83.914172,168.606034
00730,161188,12.980140,1.748962,0.797293,-0.302191,0.310923,0.140664,-0.719859,0.191030,-0.242543,-172.428624,-84.088147,167.639256
00731,161288,14.121159,1.215061,1.254018,-0.177729,0.447488,0.106264,-0.717809,0.197098,-0.244736,-171.595219,-84.341103,166.699040
00732,161388,15.071895,0.340090,1.057636,-0.036917,0.615602,0.064650,-0.718222,0.197820,-0.249209,-170.680046,-84.691595,165.758236
00733,161488,15.529892,-0.495315,0.510964,0.074429,0.699226,0.038898,-0.714132,0.199517,-0.254630,-169.635462,-85.090322,164.752149
00734,161588,15.199488,-0.984430,0.058364,0.095284,0.719927,0.047339,-0.715006,0.205800,-0.260323,-168.306250,-85.497859,163.473095
00735,161688,14.449613,-1.121465,-0.547674,0.000812,0.753764,0.077248,-0.710875,0.209586,-0.267641,-166.478368,-85.917505,161.640443
00736,161788,13.900435,-0.977839,-1.648899,-0.096073,0.754896,0.112875,-0.708297,0.212254,-0.272011,-163.983395,-86.326988,159.084509
00737,161888,13.156563,-0.670999,-2.784137,-0.105728,0.649895,0.141984,-0.710108,0.220193,-0.280627,-160.937783,-86.665009,155.972459
00738,161988,11.873666,-0.505958,-3.488590,-0.054856,0.454865,0.148653,-0.707103,0.224155,-0.280923,-157.915103,-86.886156,152.913475
00739,162088,11.001037,-0.169309,-3.600574,0.006249,0.249198,0.122313,-0.706574,0.225714,-0.282346,-155.635351,-86.996387,150.634032
00740,162188,9.397224,-0.296818,-3.462838,0.096745,0.032651,0.090928,-0.706034,0.233750,-0.283438,-154.510074,-86.997679,149.562697
00741,162288,8.346314,-0.363950,-3.093407,0.164028,-0.184528,0.059075,-0.704540,0.233228,-0.283463,-154.675617,-86.893637,149.822574
00742,162388,7.549249,-0.550383,-2.494069,0.198309,-0.315475,0.024196,-0.706534,0.237720,-0.282736,-155.683662,-86.729489,150.945962
00743,162488,6.824289,-0.871962,-1.753543,0.245760,-0.352601,-0.000344,-0.704118,0.237986,-0.278711,-156.917311,-86.550111,152.322766
00744,162588,6.444609,-1.009634,-1.095762,0.265605,-0.289295,-0.032638,-0.707551,0.242147,-0.281008,-158.067828,-86.409528,153.627902
00745,162688,6.344486,-1.311916,-0.832533,0.315476,-0.154081,-0.057640,-0.707093,0.245507,-0.278331,-158.875200,-86.344781,154.617984
00746,162788,6.607710,-1.522156,-1.022888,0.372549,-0.007578,-0.075371,-0.706088,0.245515,-0.278830,-159.310152,-86.361237,155.267685
00747,162888,7.284792,-1.571826,-1.371614,0.389907,0.125560,-0.088976,-0.707059,0.243610,-0.280432,-159.433423,-86.451443,155.615020
00748,162988,8.077807,-1.534304,-1.341718,0.360085,0.211719,-0.085039,-0.706491,0.246262,-0.283803,-159.262611,-86.586877,155.650571
00749,163088,8.716618,-1.483213,-1.110350,0.327212,0.257395,-0.066806,-0.707936,0.242943,-0.286980,-158.769570,-86.742860,155.344478
00750,163188,9.267503,-1.204932,-1.109643,0.327585,0.293026,-0.039336,-0.704926,0.244438,-0.287903,-157.824771,-86.911614,154.586201
00751,163288,9.696837,-0.721133,-1.446565,0.373282,0.295839,-0.029417,-0.707330,0.246189,-0.292325,-156.640456,-87.078694,153.614419
00752,163388,9.948051,-0.115517,-1.884397,0.403304,0.273282,-0.020145,-0.702260,0.244358,-0.297424,-155.321141,-87.230491,152.524831
00753,163488,10.233196,0.501005,-2.114202,0.392403,0.213494,-0.020132,-0.703744,0.244904,-0.297899,-154.196794,-87.349952,151.624301
00754,163588,10.471531,0.943943,-1.990771,0.356464,0.144446,-0.034475,-0.704729,0.245940,-0.298348,-153.565537,-87.436712,151.196830
00755,163688,10.297848,0.952807,-1.578171,0.289695,0.094964,-0.062238,-0.709150,0.249644,-0.301170,-153.560016,-87.504959,151.357435
00756,163788,9.983173,0.689438,-1.208225,0.227688,0.048924,-0.085316,-0.701657,0.245611,-0.302871,-154.149066,-87.555233,152.077594
00757,163888,9.661927,0.446346,-0.827812,0.155034,-0.003843,-0.094013,-0.704121,0.245225,-0.304396,-155.219930,-87.579787,153.238312
00758,163988,9.283017,0.164748,-0.517746,0.103974,-0.043057,-0.092739,-0.703616,0.243747,-0.304972,-156.540890,-87.582446,154.620052
00759,164088,8.906843,-0.009467,-0.224801,0.044980,-0.056851,-0.096783,-0.706651,0.249130,-0.301694,-158.019099,-87.577242,156.125350
00760,164188,8.634665,-0.125231,-0.118149,-0.021526,-0.045940,-0.101969,-0.704171,0.248070,-0.301245,-159.541924,-87.577239,157.637165
00761,164288,8.265563,-0.222509,-0.097575,-0.070536,-0.047321,-0.111546,-0.707095,0.248286,-0.304744,-161.220078,-87.576507,159.276339
00762,164388,8.223596,-0.277099,-0.051570,-0.110028,-0.067142,-0.124658,-0.704665,0.250569,-0.301118,-163.165319,-87.565027,161.160199
00763,164488,8.204701,-0.294245,-0.100355,-0.107733,-0.080468,-0.135860,-0.707113,0.248736,-0.303720,-165.279138,-87.545080,163.214125
00764,164588,8.137697,-0.310699,-0.236891,-0.079532,-0.091073,-0.147628,-0.703692,0.248014,-0.300245,-167.522499,-87.517442,165.413919
00765,164688,8.060574,-0.409288,-0.429873,-0.050111,-0.101648,-0.150850,-0.703694,0.247017,-0.300296,-169.762201,-87.480475,167.626976
00766,164788,8.124982,-0.536155,-0.395998,-0.030286,-0.119530,-0.145856,-0.706155,0.248126,-0.301745,-171.891110,-87.429218,169.740573
00767,164888,8.277558,-0.601192,-0.204531,-0.017995,-0.135597,-0.135324,-0.703128,0.248673,-0.303718,-173.817125,-87.364742,171.658209
00768,164988,8.448088,-0.648497,-0.026818,-0.016502,-0.149187,-0.118525,-0.706124,0.249692,-0.303168,-175.457159,-87.288906,173.290515
00769,165088,8.636644,-0.632386,0.091206,-0.027558,-0.171769,-0.105945,-0.707170,0.248093,-0.300746,-176.878824,-87.197654,174.697970
00770,165188,8.801283,-0.667280,0.292051,-0.037491,-0.184058,-0.093231,-0.704691,0.246535,-0.300322,-178.075705,-87.097523,175.874777
00771,165288,8.822451,-0.716546,0.489887,-0.042279,-0.175555,-0.075810,-0.704699,0.247009,-0.299797,-179.002692,-87.000954,176.778686
00772,165388,8.675496,-0.802437,0.449909,-0.045988,-0.162808,-0.057159,-0.706676,0.245096,-0.300898,-179.674884,-86.910937,177.425389
00773,165488,8.535213,-0.897727,0.404256,-0.048910,-0.159116,-0.040520,-0.707219,0.246478,-0.298323,179.861513,-86.822690,177.861570
00774,165588,8.404714,-0.988736,0.368260,-0.050154,-0.154683,-0.030833,-0.705180,0.246567,-0.300822,179.519769,-86.736853,178.175024
00775,165688,8.304971,-1.022098,0.360036,-0.047204,-0.144770,-0.027679,-0.705744,0.245908,-0.297349,179.227386,-86.656623,178.440755
00776,165788,8.283998,-0.972089,0.280716,-0.046229,-0.132101,-0.024109,-0.706692,0.247041,-0.299797,178.981861,-86.583609,178.660129
00777,165888,8.421683,-0.923256,0.303252,-0.034360,-0.113125,-0.021825,-0.706191,0.248527,-0.299721,178.771522,-86.521442,178.851083
00778,165988,8.733079,-0.824314,0.324188,-0.016528,-0.096489,-0.023283,-0.707724,0.247957,-0.297747,178.561913,-86.468747,179.051555
00779,166088,9.121593,-0.617305,0.406799,0.003952,-0.079134,-0.039077,-0.706706,0.244027,-0.299450,178.221277,-86.425689,179.395076
00780,166188,9.539112,-0.526898,0.474926,0.012461,-0.063637,-0.054017,-0.707661,0.246630,-0.301322,177.753354,-86.391071,179.871033
00781,166288,10.039891,-0.497934,0.549196,0.005273,-0.041728,-0.073758,-0.708179,0.245594,-0.300374,177.103437,-86.368219,-179.474764
00782,166388,10.594408,-0.499379,0.533491,-0.009102,-0.004756,-0.093758,-0.709134,0.243239,-0.303000,176.253339,-86.365335,-178.628222
00783,166488,11.040445,-0.430704,0.486549,-0.021615,0.027456,-0.105775,-0.710129,0.243753,-0.302975,175.266155,-86.379509,-177.651510
00784,166588,11.296637,-0.360121,0.245688,-0.021561,0.046773,-0.120005,-0.710121,0.242781,-0.303525,174.125329,-86.402806,-176.520841
00785,166688,11.301074,-0.403745,-0.066708,0.013278,0.031619,-0.139413,-0.711558,0.243945,-0.306474,172.831382,-86.414683,-175.216773
00786,166788,11.226683,-0.524079,-0.269677,0.068710,-0.002104,-0.162537,-0.710556,0.241961,-0.307075,171.398571,-86.403631,-173.741749
00787,166888,11.171200,-0.785366,-0.270907,0.124843,-0.021631,-0.191417,-0.709063,0.241439,-0.307100,169.781952,-86.376360,-172.050294
00788,166988,11.342149,-1.152859,-0.061073,0.175277,-0.025972,-0.215823,-0.716515,0.236647,-0.308856,168.015165,-86.340821,-170.179357
00789,167088,11.825292,-1.290306,0.389998,0.198462,-0.028489,-0.222458,-0.716541,0.238070,-0.307280,166.247589,-86.299412,-168.294238
00790,167188,12.667760,-1.205559,1.283262,0.179386,0.017754,-0.226042,-0.716002,0.234694,-0.309957,164.372430,-86.279375,-166.312202
00791,167288,13.679957,-0.880936,2.313699,0.124079,0.154795,-0.217185,-0.719423,0.235417,-0.313431,162.194775,-86.331626,-164.058841
00792,167388,14.578689,-0.341041,2.859357,0.035586,0.376553,-0.191954,-0.716873,0.232058,-0.317107,159.412468,-86.502488,-161.250740
00793,167488,15.108707,0.390198,2.381815,-0.053733,0.630364,-0.161710,-0.714306,0.233207,-0.321054,155.535612,-86.804061,-157.398210
00794,167588,15.148169,1.142018,1.120001,-0.098085,0.833393,-0.138269,-0.716670,0.231591,-0.328153,149.935853,-87.195880,-151.847190
00795,167688,14.794816,1.804836,-0.368757,-0.097527,0.926294,-0.138053,-0.715029,0.235915,-0.335447,141.855370,-87.594891,-143.814473
00796,167788,14.087333,2.244342,-1.874403,-0.103522,0.915830,-0.167570,-0.713402,0.237723,-0.342367,130.712928,-87.911713,-132.723028
00797,167888,13.039481,2.304591,-3.230319,-0.111258,0.809830,-0.229808,-0.710279,0.235047,-0.350016,117.508916,-88.065624,-119.574855
00798,167988,11.330677,1.507700,-4.363915,-0.135332,0.545499,-0.279414,-0.712192,0.237763,-0.353888,107.059711,-88.036890,-109.197324
00799,168088,9.940336,0.546805,-4.819799,-0.195249,0.197263,-0.288032,-0.714176,0.237320,-0.354414,102.603283,-87.906776,-104.850140
00800,168188,8.847049,-0.075653,-3.865607,-0.241267,-0.101712,-0.237362,-0.714669,0.240317,-0.354261,103.111986,-87.761683,-105.497624
00801,168288,8.041494,-0.070419,-2.652101,-0.244373,-0.298149,-0.185789,-0.717194,0.241755,-0.352187,106.348230,-87.615744,-108.876707
00802,168388,7.503731,0.203921,-1.937200,-0.224702,-0.409668,-0.147366,-0.719778,0.241554,-0.347189,110.732904,-87.461535,-113.394356
00803,168488,7.151636,0.560426,-1.717229,-0.173018,-0.455038,-0.124326,-0.722779,0.245041,-0.346013,115.234558,-87.294692,-118.000019
00804,168588,7.224980,1.067123,-1.452745,-0.125683,-0.441609,-0.106620,-0.722374,0.244792,-0.341015,119.177843,-87.125285,-122.020133
00805,168688,7.690256,1.499701,-1.127600,-0.099156,-0.359785,-0.075951,-0.723893,0.246737,-0.339414,122.110067,-86.983432,-125.013176
00806,168788,8.324134,1.750126,-1.012301,-0.070007,-0.239498,-0.048304,-0.724916,0.247178,-0.337890,123.912258,-86.886121,-126.858171
00807,168888,8.854279,1.675978,-1.323488,-0.058235,-0.143146,-0.034875,-0.725412,0.248681,-0.337813,124.881494,-86.823904,-127.862335
00808,168988,9.217880,1.307882,-1.817827,-0.064778,-0.101736,-0.017795,-0.727943,0.246631,-0.335917,125.569496,-86.782489,-128.588626
00809,169088,9.527532,0.736829,-2.136381,-0.078331,-0.085784,0.016485,-0.727968,0.248054,-0.334341,126.308163,-86.761768,-129.373457
00810,169188,9.692412,0.151257,-2.125981,-0.112389,-0.100078,0.063637,-0.729963,0.246591,-0.334418,127.421871,-86.756989,-130.553476
00811,169288,9.745946,-0.257713,-1.934740,-0.148955,-0.116642,0.115625,-0.730515,0.247451,-0.331368,128.972706,-86.768177,-132.192297
00812,169388,9.667731,-0.572603,-1.752486,-0.176502,-0.141693,0.170210,-0.732503,0.250472,-0.331217,131.076495,-86.791119,-134.400719
00813,169488,9.398440,-0.660177,-1.433140,-0.204665,-0.188283,0.220445,-0.732016,0.254401,-0.330014,133.896578,-86.811907,-137.342662
00814,169588,9.307362,-0.420265,-0.830430,-0.220418,-0.224704,0.238328,-0.733550,0.258290,-0.327312,137.129908,-86.816294,-140.707491
00815,169688,9.435078,0.232584,-0.555894,-0.196100,-0.242694,0.224645,-0.736575,0.258740,-0.325288,140.384827,-86.797157,-144.080011
00816,169788,8.929601,0.414796,-0.265187,-0.111599,-0.189906,0.220025,-0.739628,0.259117,-0.321765,143.280206,-86.790118,-147.043979
00817,169888,8.775237,0.952977,-0.459451,-0.037480,-0.149472,0.203414,-0.740619,0.262122,-0.321613,145.826556,-86.788548,-149.615848
00818,169988,8.562382,1.384872,-0.754812,0.013581,-0.172027,0.160037,-0.743668,0.264492,-0.317988,148.139938,-86.756443,-151.925119
00819,170088,8.355897,1.514901,-0.555010,0.050456,-0.193741,0.110082,-0.742111,0.263142,-0.321563,150.100067,-86.694103,-153.859506
00820,170188,8.230454,1.423768,-0.357068,0.079166,-0.175886,0.079364,-0.742756,0.264259,-0.313490,151.656217,-86.628750,-155.372875
00821,170288,8.143110,1.270179,-0.313975,0.078068,-0.178583,0.069693,-0.745237,0.264821,-0.313965,153.081147,-86.557170,-156.755532
00822,170388,8.169787,1.149513,-0.218124,0.038371,-0.186628,0.070598,-0.746713,0.264395,-0.314991,154.464990,-86.479679,-158.119921
00823,170488,8.318189,1.044843,-0.096061,-0.012648,-0.162146,0.079749,-0.746761,0.263776,-0.312517,155.743889,-86.415215,-159.408557
00824,170588,8.330001,1.025191,-0.074847,-0.042844,-0.137129,0.087584,-0.749293,0.266186,-0.309891,156.935957,-86.363976,-160.627610
00825,170688,8.485202,1.042253,-0.152844,-0.067679,-0.094305,0.082822,-0.750804,0.267159,-0.308842,157.897104,-86.332911,-161.629587
00826,170788,8.482708,0.853584,-0.213346,-0.069325,-0.060046,0.084851,-0.750328,0.265608,-0.307918,158.746996,-86.319512,-162.521050
00827,170888,8.503646,0.749790,-0.235107,-0.064051,-0.052823,0.087714,-0.751306,0.265173,-0.308943,159.594586,-86.309721,-163.407191
00828,170988,8.573672,0.681520,-0.168017,-0.051144,-0.069233,0.082192,-0.753384,0.263992,-0.304497,160.447027,-86.289174,-164.290800
00829,171088,8.622574,0.588942,-0.136726,-0.041997,-0.094508,0.077644,-0.751352,0.265551,-0.306419,161.327908,-86.253237,-165.197685
00830,171188,8.679591,0.508635,-0.072926,-0.038973,-0.127544,0.081793,-0.752328,0.266612,-0.307368,162.314302,-86.199115,-166.208623
00831,171288,8.635105,0.544356,-0.016734,-0.034076,-0.155750,0.088988,-0.752836,0.266097,-0.306894,163.402021,-86.129583,-167.318376
00832,171388,8.566018,0.655647,0.048738,-0.023736,-0.171772,0.095149,-0.756350,0.266579,-0.305370,164.541084,-86.050788,-168.473753
00833,171488,8.513758,0.826023,0.112394,-0.008426,-0.170596,0.100334,-0.756889,0.264497,-0.303473,165.681672,-85.971873,-169.621977
00834,171588,8.432032,0.986954,0.177453,-0.002836,-0.146427,0.096317,-0.753407,0.266909,-0.302845,166.705078,-85.904383,-170.649619
00835,171688,8.343834,1.117282,0.205161,0.005078,-0.120444,0.093742,-0.756462,0.265791,-0.299398,167.635336,-85.849869,-171.579405
00836,171788,8.372578,1.191519,0.281673,0.008039,-0.097270,0.088160,-0.755429,0.265872,-0.301397,168.463648,-85.806685,-172.405334
00837,171888,8.457433,1.113091,0.273884,-0.004072,-0.059590,0.085608,-0.755444,0.262360,-0.301075,169.193530,-85.783609,-173.139562
00838,171988,8.647734,0.935208,0.241996,-0.012624,-0.028779,0.081555,-0.753505,0.263679,-0.297999,169.837226,-85.776850,-173.792299
00839,172088,9.069430,0.778471,0.138240,-0.018981,-0.021382,0.082950,-0.755986,0.263742,-0.298500,170.476028,-85.773887,-174.443786
00840,172188,9.456849,0.668829,0.218927,-0.013494,-0.024934,0.084044,-0.757002,0.263212,-0.297526,171.129367,-85.768501,-175.106702
00841,172288,9.941836,0.618444,0.395458,-0.006841,-0.020718,0.083459,-0.757465,0.262320,-0.299576,171.775395,-85.764936,-175.758471
00842,172388,10.289401,0.469922,0.661119,0.023112,0.007829,0.084115,-0.757994,0.260761,-0.298153,172.413122,-85.777133,-176.384703
00843,172488,10.621418,0.379678,0.674130,0.049271,0.080143,0.094655,-0.756461,0.261332,-0.300126,173.082862,-85.830716,-177.027980
00844,172588,10.881473,0.341194,0.411880,0.052620,0.156897,0.119963,-0.759463,0.259362,-0.299729,173.906805,-85.929056,-177.823874
00845,172688,10.902083,0.451502,0.125584,0.017778,0.205614,0.152129,-0.758943,0.260897,-0.300652,174.979434,-86.056030,-178.888960
00846,172788,10.804878,0.677628,-0.106785,-0.041870,0.211879,0.181813,-0.758371,0.261081,-0.304650,176.338602,-86.186280,179.724667
00847,172888,10.820636,0.897651,-0.228508,-0.114433,0.199733,0.206787,-0.757881,0.261548,-0.304125,177.976953,-86.307803,178.017053
00848,172988,10.917745,1.261154,-0.176169,-0.191431,0.171335,0.223853,-0.758330,0.263171,-0.306548,179.839046,-86.409786,176.041254
00849,173088,11.393329,1.599791,0.199760,-0.239793,0.165825,0.216593,-0.756862,0.264071,-0.304997,-178.287791,-86.504551,174.026816
00850,173188,12.194519,1.728483,0.701097,-0.217627,0.209149,0.196351,-0.758816,0.264697,-0.306972,-176.465213,-86.620632,172.076004
00851,173288,13.148825,1.559541,1.277086,-0.128416,0.295246,0.171655,-0.756728,0.266401,-0.311893,-174.624816,-86.783277,170.158825
00852,173388,14.231550,1.141769,1.791422,-0.004940,0.438859,0.148043,-0.757713,0.267438,-0.312342,-172.566460,-87.025463,168.094601
00853,173488,15.283132,0.507664,1.755808,0.095292,0.657521,0.111886,-0.754123,0.268145,-0.317814,-170.062309,-87.390124,165.642125
00854,173588,15.819417,-0.637823,1.194833,0.137405,0.881984,0.107150,-0.751979,0.269994,-0.325734,-166.013200,-87.873991,161.668372
00855,173688,14.994443,-1.298983,-0.182931,0.119533,0.947571,0.132223,-0.749346,0.271811,-0.333154,-158.733464,-88.371428,154.453321
00856,173788,13.979743,-1.739815,-1.221290,0.045394,0.865732,0.173348,-0.747716,0.275113,-0.339998,-145.928801,-88.769002,141.670799
00857,173888,13.541779,-1.818482,-1.931039,0.072157,0.795142,0.202837,-0.747567,0.280457,-0.347241,-124.901133,-89.017776,120.680703
00858,173988,13.292366,-1.523666,-2.761802,0.118919,0.693849,0.214081,-0.742473,0.281165,-0.353212,-99.901531,-89.058093,95.745847
00859,174088,12.255892,-1.352441,-3.317282,0.217970,0.530744,0.234437,-0.743392,0.283366,-0.357109,-82.189787,-88.928550,78.156346
00860,174188,10.872972,-0.807978,-3.649572,0.304637,0.315624,0.216435,-0.744852,0.286950,-0.358431,-74.381765,-88.770481,70.521361
00861,174288,9.670030,-0.397720,-3.421221,0.389207,0.101912,0.153379,-0.743359,0.291386,-0.357702,-72.713488,-88.669995,69.075743
00862,174388,8.728765,-0.262978,-2.722118,0.476079,-0.083150,0.081817,-0.745344,0.290445,-0.358253,-74.900003,-88.638625,71.535730
00863,174488,8.151731,-0.159313,-2.114860,0.531716,-0.203491,0.017598,-0.745314,0.291514,-0.359702,-79.464505,-88.655119,76.406258
00864,174588,7.589516,-0.257244,-1.575508,0.518655,-0.240638,-0.015951,-0.748794,0.290099,-0.360279,-84.961178,-88.683416,82.201675
00865,174688,7.160477,-0.396502,-1.336462,0.421841,-0.235546,-0.038310,-0.750321,0.287559,-0.358907,-90.583113,-88.711219,88.066836
00866,174788,7.043779,-0.668017,-1.269693,0.324458,-0.209636,-0.047502,-0.752313,0.288089,-0.358882,-95.814535,-88.732338,93.485518
00867,174888,7.217416,-1.014825,-1.300838,0.267171,-0.150580,-0.042877,-0.755846,0.288024,-0.356385,-99.672916,-88.745686,97.497958
00868,174988,7.696196,-1.224954,-1.453917,0.257183,-0.091064,-0.029610,-0.758328,0.287589,-0.356910,-101.999192,-88.753134,99.972188
00869,175088,8.230684,-1.359133,-1.646740,0.254556,-0.054899,-0.012723,-0.756883,0.285950,-0.354487,-103.320181,-88.753896,101.439381
00870,175188,8.664178,-1.296557,-1.666193,0.267640,-0.054685,0.006228,-0.759842,0.281610,-0.356716,-104.505521,-88.743389,102.778393
00871,175288,9.225255,-0.994611,-1.381080,0.291780,-0.044290,0.016545,-0.760870,0.279561,-0.355319,-105.326740,-88.728146,103.767034
00872,175388,9.713448,-0.523299,-1.030177,0.337924,-0.000604,0.012124,-0.761859,0.278604,-0.355869,-105.055590,-88.721779,103.689484
00873,175488,9.993169,0.104748,-0.922142,0.363166,0.044783,-0.002047,-0.764316,0.276747,-0.357971,-103.733537,-88.729719,102.575239
00874,175588,10.091432,0.785535,-0.738267,0.342521,0.074440,-0.021085,-0.767818,0.273291,-0.357650,-101.757139,-88.751360,100.794666
00875,175688,9.887252,1.350334,-0.389464,0.279742,0.092277,-0.049111,-0.765308,0.273798,-0.358624,-99.406986,-88.789225,98.604296
00876,175788,9.565134,1.598718,-0.203690,0.206581,0.073154,-0.086978,-0.769265,0.268477,-0.360903,-97.628268,-88.845266,96.943596
00877,175888,9.282420,1.569870,-0.177343,0.148262,0.029216,-0.129904,-0.772785,0.265470,-0.359558,-97.172668,-88.921827,96.572884
00878,175988,8.963160,1.194402,-0.281418,0.114486,-0.012888,-0.164555,-0.769790,0.263952,-0.360133,-98.202926,-89.014918,97.668928
00879,176088,8.385702,0.670845,-0.241248,0.083299,-0.058742,-0.180503,-0.772823,0.265374,-0.357558,-101.242770,-89.111871,100.756924
00880,176188,8.239620,0.255419,-0.290470,0.006576,-0.107697,-0.167068,-0.771791,0.259500,-0.360362,-106.841831,-89.190538,106.360379
00881,176288,8.389715,-0.009661,-0.159762,-0.083648,-0.131523,-0.154481,-0.775314,0.259957,-0.358338,-114.352096,-89.247689,113.823422
00882,176388,8.456920,-0.299493,-0.014153,-0.142946,-0.129691,-0.136748,-0.776352,0.257385,-0.356466,-122.441970,-89.282034,121.832065
00883,176488,8.538999,-0.514099,0.071375,-0.181004,-0.102721,-0.119482,-0.775394,0.256277,-0.354518,-129.677298,-89.303427,128.964240
00884,176588,8.648200,-0.603549,0.097486,-0.197568,-0.064508,-0.109700,-0.778363,0.257369,-0.355467,-135.635982,-89.325262,134.810156
00885,176688,8.592523,-0.578991,0.097950,-0.184822,-0.032125,-0.107349,-0.780377,0.255359,-0.354570,-140.799647,-89.353148,139.868273
00886,176788,8.553291,-0.572351,0.076719,-0.161778,-0.009982,-0.104665,-0.780365,0.251920,-0.355747,-145.584441,-89.385103,144.560670
00887,176888,8.550627,-0.484526,0.004504,-0.158280,-0.005806,-0.105497,-0.781353,0.250963,-0.356299,-150.770571,-89.414732,149.656402
00888,176988,8.537789,-0.412725,0.044456,-0.143194,-0.024648,-0.110129,-0.780845,0.251478,-0.356773,-157.122133,-89.430310,155.926249
00889,177088,8.595792,-0.293045,-0.024435,-0.143789,-0.068882,-0.120028,-0.785353,0.252971,-0.355198,-164.973828,-89.415778,163.695962
00890,177188,8.663242,-0.242751,0.019547,-0.134105,-0.116809,-0.133168,-0.784872,0.248954,-0.354902,-173.317841,-89.364735,171.963614
00891,177288,8.795962,-0.229981,0.219769,-0.123625,-0.155129,-0.144044,-0.786385,0.248929,-0.353903,179.213544,-89.280450,179.361920
00892,177388,8.917048,-0.289374,0.615536,-0.104077,-0.164783,-0.152442,-0.785969,0.249701,-0.349353,173.100187,-89.180647,-174.583804
00893,177488,9.011148,-0.430262,0.927494,-0.092032,-0.157006,-0.153468,-0.789932,0.246349,-0.351032,168.264165,-89.077943,-169.799955
00894,177588,8.972323,-0.639784,1.099121,-0.084944,-0.146997,-0.146128,-0.789990,0.245208,-0.348084,164.558571,-88.976764,-166.142500
00895,177688,8.791511,-0.906414,1.044326,-0.076562,-0.132852,-0.131041,-0.788988,0.243223,-0.348685,161.820036,-88.882594,-163.447358
00896,177788,8.611207,-0.962083,0.868488,-0.071912,-0.114721,-0.125819,-0.792967,0.241318,-0.349288,159.472207,-88.797133,-161.140257
00897,177888,8.580946,-0.882582,0.737702,-0.056160,-0.080090,-0.125213,-0.794987,0.241277,-0.347789,157.117399,-88.728438,-158.817084
00898,177988,8.665363,-0.715967,0.655258,-0.042908,-0.035634,-0.127582,-0.795480,0.238818,-0.348416,154.493155,-88.680348,-156.216760
00899,178088,8.916608,-0.553844,0.699730,-0.035206,0.001703,-0.127291,-0.799482,0.239829,-0.347367,151.643302,-88.648694,-153.386310
00900,178188,9.238138,-0.432286,0.722607,-0.037107,0.034315,-0.125932,-0.797436,0.238946,-0.350415,148.553378,-88.630291,-150.316784
00901,178288,9.607052,-0.396688,0.715415,-0.043673,0.037896,-0.123705,-0.801436,0.235497,-0.350095,145.545204,-88.610490,-147.332772
00902,178388,10.058653,-0.414727,0.738680,-0.038817,0.033255,-0.120820,-0.799890,0.233625,-0.353195,142.750102,-88.585926,-144.559085
00903,178488,10.528865,-0.453511,0.786870,-0.018995,0.048588,-0.123531,-0.802938,0.231037,-0.350324,139.794790,-88.563910,-141.613752
00904,178588,10.938908,-0.514945,0.831696,0.008165,0.075078,-0.131748,-0.803843,0.230297,-0.355373,136.407295,-88.546068,-138.220509
00905,178688,11.186078,-0.545905,0.847493,0.046912,0.101344,-0.138659,-0.805833,0.226865,-0.356051,132.601165,-88.530659,-134.386264
00906,178788,11.242508,-0.603619,0.796389,0.103122,0.108068,-0.143991,-0.807364,0.227291,-0.354027,128.733239,-88.508969,-130.457955
00907,178888,11.121331,-0.729896,0.753748,0.154015,0.105885,-0.143200,-0.808355,0.224840,-0.354655,125.071034,-88.480315,-126.706225
00908,178988,11.133955,-0.912946,0.777128,0.195992,0.121683,-0.139417,-0.810766,0.222605,-0.359281,121.340233,-88.452183,-122.861768
00909,179088,11.180489,-1.054412,0.937891,0.220580,0.154698,-0.137945,-0.810766,0.222605,-0.359281,117.177849,-88.427069,-118.571430
00910,179188,11.418785,-0.980471,1.167391,0.240603,0.201751,-0.144096,-0.812194,0.218337,-0.363508,112.242407,-88.400882,-113.496212
00911,179288,11.746110,-0.664954,1.583008,0.248342,0.266449,-0.155343,-0.812142,0.215990,-0.366634,106.197623,-88.367519,-107.306708
00912,179388,12.267907,-0.290724,1.946555,0.217494,0.317520,-0.168553,-0.815577,0.214197,-0.369735,99.417224,-88.313968,-100.398835
00913,179488,12.926859,0.448926,2.324507,0.158108,0.383897,-0.174813,-0.816991,0.212445,-0.374336,91.866927,-88.235993,-92.754532
00914,179588,13.759131,1.193936,2.165438,0.074487,0.500380,-0.184600,-0.814440,0.209585,-0.377986,83.011818,-88.117202,-83.852300
00915,179688,14.651483,1.878174,1.383798,0.010319,0.647143,-0.199654,-0.816796,0.207494,-0.385611,73.145081,-87.927749,-73.973852
00916,179788,14.977932,2.283836,0.076761,-0.014151,0.803247,-0.197321,-0.814190,0.204778,-0.392260,63.121779,-87.649851,-63.951304
00917,179888,14.669188,2.276727,-1.516990,-0.012203,0.851272,-0.194377,-0.814033,0.204191,-0.400807,54.900848,-87.301655,-55.729489
00918,179988,13.466365,1.874413,-3.166548,-0.006793,0.761580,-0.197959,-0.811910,0.204497,-0.407804,49.408473,-86.943186,-50.234143
00919,180088,11.564406,1.226945,-4.661158,-0.035400,0.505439,-0.195894,-0.812830,0.205702,-0.411752,46.856683,-86.665530,-47.698720
00920,180188,9.965935,0.524380,-5.325023,-0.146867,0.117228,-0.167585,-0.811753,0.204408,-0.416326,47.043241,-86.548909,-47.969906
00921,180288,8.803236,0.347422,-4.603812,-0.263562,-0.253853,-0.134187,-0.817831,0.205234,-0.410779,49.551288,-86.587799,-50.633733
00922,180388,8.223769,0.729106,-3.362282,-0.266813,-0.530156,-0.110982,-0.817859,0.205162,-0.409280,54.157166,-86.725136,-55.400571
00923,180488,8.025983,1.182579,-2.393206,-0.196363,-0.696287,-0.107401,-0.820421,0.206504,-0.405206,60.663843,-86.888090,-62.030000
00924,180588,8.119025,1.442366,-1.329934,-0.116784,-0.739793,-0.112939,-0.823069,0.206632,-0.396685,68.302427,-87.012232,-69.746361
00925,180688,8.729429,1.663937,0.021103,-0.129577,-0.628281,-0.098520,-0.826107,0.205064,-0.394263,75.186101,-87.071149,-76.713512
00926,180788,9.481811,1.915379,0.763433,-0.162858,-0.397258,-0.077472,-0.829674,0.206896,-0.389664,79.624732,-87.077081,-81.251336
00927,180888,9.746784,1.918136,0.602666,-0.171795,-0.143310,-0.042838,-0.830187,0.203890,-0.389317,81.183587,-87.066146,-82.910761
00928,180988,9.770520,1.587728,-0.064578,-0.188354,0.084525,-0.015474,-0.828705,0.202348,-0.388893,80.168478,-87.049099,-82.002346
00929,181088,9.726544,1.115134,-0.633043,-0.229025,0.244616,0.009180,-0.830149,0.204485,-0.391291,77.356052,-87.026464,-79.317525
00930,181188,9.661854,0.504897,-1.170665,-0.299920,0.324397,0.048565,-0.829074,0.201696,-0.395941,73.594319,-87.006299,-75.722731
00931,181288,9.411168,-0.041381,-1.720648,-0.387975,0.285848,0.108514,-0.829576,0.204669,-0.395289,70.019210,-87.013784,-72.365311
00932,181388,9.016327,-0.501642,-2.028588,-0.471102,0.137338,0.184782,-0.828535,0.209234,-0.397059,67.583118,-87.083651,-70.196227
00933,181488,8.776009,-0.554033,-1.998551,-0.507687,-0.058530,0.242481,-0.830550,0.212183,-0.395408,66.832214,-87.224383,-69.735597
00934,181588,8.693597,-0.220626,-1.496651,-0.471759,-0.175521,0.270513,-0.828046,0.214160,-0.395805,67.248820,-87.406021,-70.423215
00935,181688,8.594612,0.249299,-0.959635,-0.382338,-0.212620,0.260398,-0.831075,0.217575,-0.393129,68.321955,-87.589919,-71.716605
00936,181788,8.432456,0.737092,-0.500585,-0.254761,-0.212756,0.224128,-0.829643,0.219376,-0.389529,69.851568,-87.753099,-73.393529
00937,181888,8.278775,1.046118,-0.111406,-0.132467,-0.192902,0.172720,-0.832159,0.220838,-0.387954,71.660825,-87.882643,-75.280012
00938,181988,8.160971,1.144243,0.159690,-0.062938,-0.155015,0.130329,-0.834173,0.218828,-0.387057,73.350882,-87.980208,-77.007217
00939,182088,8.032315,1.079714,0.269480,-0.028979,-0.119034,0.108554,-0.834234,0.221649,-0.383405,74.737859,-88.058367,-78.411601
00940,182188,7.978204,1.017282,0.293867,-0.031165,-0.091602,0.102465,-0.836161,0.221849,-0.386904,75.797552,-88.128074,-79.489711
00941,182288,7.957402,0.978175,0.183909,-0.053589,-0.061158,0.104447,-0.837181,0.223786,-0.385304,76.379057,-88.194142,-80.102201
00942,182388,7.957297,0.883258,0.066888,-0.083111,-0.038330,0.109837,-0.835251,0.220122,-0.382482,76.546013,-88.260001,-80.316845
00943,182488,7.992940,0.720773,-0.007402,-0.089786,-0.021085,0.120194,-0.839689,0.224275,-0.384280,76.347577,-88.329302,-80.169755
00944,182588,8.082020,0.648071,0.013962,-0.084319,-0.003919,0.127859,-0.839170,0.225810,-0.385203,75.757613,-88.400451,-79.627850
00945,182688,8.204773,0.582686,0.122709,-0.061698,0.026844,0.130502,-0.839726,0.224677,-0.382255,74.476326,-88.468269,-78.381417
00946,182788,8.259154,0.608130,0.157899,-0.048253,0.049849,0.129961,-0.839626,0.223447,-0.387829,72.597899,-88.531081,-76.529971
00947,182888,8.252800,0.577134,0.150182,-0.043964,0.039567,0.131368,-0.838167,0.224324,-0.385779,70.773007,-88.594899,-74.729674
00948,182988,8.313668,0.602277,0.154905,-0.044579,-0.005297,0.140376,-0.837138,0.226871,-0.387151,69.729705,-88.671095,-73.711596
00949,183088,8.486173,0.605903,0.096180,-0.044628,-0.063577,0.151104,-0.839636,0.228381,-0.386575,69.898348,-88.764380,-73.905829
00950,183188,8.559097,0.605692,0.087013,-0.030329,-0.111597,0.163728,-0.838674,0.229764,-0.384500,71.295631,-88.873555,-75.320763
00951,183288,8.567966,0.689046,0.095731,-0.002564,-0.149774,0.172809,-0.841675,0.228293,-0.384077,74.113647,-88.993069,-78.140711
00952,183388,8.502081,0.739087,0.179701,0.032976,-0.183072,0.173167,-0.838672,0.230761,-0.384449,78.902380,-89.113540,-82.911174
00953,183488,8.447289,0.858802,0.333148,0.067401,-0.215393,0.163865,-0.842180,0.229273,-0.383527,86.546090,-89.221943,-90.517041
00954,183588,8.461117,0.989954,0.630346,0.092547,-0.229311,0.145510,-0.840206,0.229691,-0.382501,96.980176,-89.300965,-100.898937
00955,183688,8.559978,1.118549,0.862802,0.118095,-0.220031,0.123789,-0.843238,0.231113,-0.379927,108.742851,-89.341712,-112.594745
00956,183788,8.647112,1.140010,0.986660,0.140953,-0.186808,0.103471,-0.840788,0.229483,-0.378003,119.482311,-89.351671,-123.254118
00957,183888,8.818720,1.120385,1.036144,0.153426,-0.150513,0.093767,-0.843756,0.230575,-0.378953,128.465456,-89.347654,-132.149912
00958,183988,9.105012,1.049508,1.055793,0.152310,-0.109191,0.090097,-0.843776,0.229530,-0.378004,135.586522,-89.343850,-139.184156
00959,184088,9.328197,0.984446,0.924361,0.140477,-0.077405,0.090051,-0.842755,0.228092,-0.379579,141.540882,-89.344588,-145.058401
00960,184188,9.519641,0.874916,0.773536,0.110945,-0.077464,0.096777,-0.846731,0.227681,-0.380106,147.710067,-89.340436,-151.164410
00961,184288,9.418893,0.766530,0.606746,0.105148,-0.103791,0.111303,-0.844247,0.229610,-0.379503,154.919419,-89.318897,-158.313996
00962,184388,9.905079,0.716652,0.814452,0.078923,-0.120959,0.118187,-0.845717,0.227713,-0.381105,162.120301,-89.279324,-165.470185
00963,184488,10.277291,0.546790,1.046987,0.094817,-0.055559,0.135169,-0.844221,0.228188,-0.381079,168.653818,-89.268385,-171.949888
00964,184588,10.645286,0.495395,1.042385,0.103314,-0.005655,0.156214,-0.844717,0.229690,-0.381003,175.673080,-89.277882,-178.910509
00965,184688,10.991407,0.632195,0.947199,0.109832,0.043545,0.173033,-0.844661,0.229835,-0.384001,-176.323014,-89.304087,173.147913
00966,184788,11.259131,0.539008,0.850961,0.072246,0.084668,0.189710,-0.846126,0.230429,-0.385476,-166.660635,-89.336878,163.526259
00967,184888,11.291839,0.681492,0.816597,0.025692,0.105266,0.212645,-0.843568,0.232053,-0.388898,-154.858662,-89.354699,151.738249
00968,184988,11.410954,0.925134,0.907106,-0.022945,0.126226,0.219582,-0.845539,0.233627,-0.389822,-142.027867,-89.351532,138.893501
00969,185088,11.783127,1.147324,1.057460,-0.038991,0.154944,0.222940,-0.842005,0.228734,-0.393074,-128.746738,-89.326014,125.589161
00970,185188,12.227385,1.237497,1.294357,-0.001200,0.197415,0.216937,-0.841439,0.235846,-0.395717,-115.381514,-89.281634,112.222281
00971,185288,12.737325,1.145352,1.791250,0.074516,0.286269,0.212620,-0.840891,0.237951,-0.398114,-100.484876,-89.216863,97.367090
00972,185388,13.431907,0.811988,2.209961,0.155784,0.432757,0.201275,-0.839789,0.239695,-0.403535,-83.060081,-89.109035,80.029752
00973,185488,14.255299,0.063993,2.302347,0.255294,0.633321,0.191884,-0.835697,0.237430,-0.409658,-64.480337,-88.900009,61.593594
00974,185588,14.784617,-0.575044,1.597393,0.340892,0.786378,0.189249,-0.835021,0.238876,-0.419104,-49.759571,-88.561859,47.064708
00975,185688,15.059444,-1.149196,0.522500,0.347022,0.831788,0.201964,-0.831904,0.237671,-0.426177,-40.589236,-88.142442,38.089595
00976,185788,15.641490,-1.518458,-0.659890,0.266720,0.845481,0.237274,-0.829242,0.240058,-0.435071,-35.188888,-87.675891,32.838653
00977,185888,15.590456,-1.427317,-2.430144,0.210285,0.809306,0.282614,-0.824142,0.244254,-0.440863,-32.294954,-87.199932,30.062490
00978,185988,14.399658,-1.277226,-4.237602,0.147228,0.571653,0.344640,-0.822492,0.248601,-0.448657,-32.051620,-86.817350,29.903332
00979,186088,12.465807,-0.664948,-4.948443,0.069596,0.187286,0.366454,-0.820466,0.251631,-0.450003,-34.042524,-86.612840,31.937484
00980,186188,10.885113,-0.215559,-4.662447,0.053886,-0.182947,0.320498,-0.822481,0.254580,-0.448352,-37.539192,-86.590616,35.471268
00981,186288,9.631151,0.018968,-3.797886,0.090657,-0.497678,0.250365,-0.822515,0.256476,-0.446251,-42.491540,-86.717210,40.484114
00982,186388,8.689425,0.021033,-2.812416,0.159494,-0.706860,0.175567,-0.824088,0.259273,-0.441601,-48.879590,-86.928971,46.973508
00983,186488,8.002092,-0.095133,-1.904214,0.217845,-0.826355,0.105363,-0.829697,0.259521,-0.434580,-56.776531,-87.168104,55.005880
00984,186588,7.668282,-0.306994,-0.833573,0.243633,-0.840264,0.047713,-0.828820,0.260188,-0.428031,-65.776591,-87.376812,64.155845
00985,186688,7.336156,-0.940400,0.041478,0.268727,-0.693070,0.002249,-0.832423,0.256965,-0.422187,-73.990110,-87.513207,72.531625
00986,186788,7.257310,-1.481917,0.158215,0.280529,-0.450914,-0.042720,-0.832473,0.255350,-0.419765,-79.586850,-87.596830,78.294329
00987,186888,7.461904,-1.877429,-0.043170,0.319575,-0.195975,-0.081410,-0.835962,0.253911,-0.419842,-81.896078,-87.661540,80.788787
00988,186988,7.969205,-1.970826,-0.327481,0.364232,0.026914,-0.110141,-0.836441,0.249009,-0.421595,-81.074326,-87.722199,80.175221
00989,187088,8.537493,-1.843493,-0.522178,0.394103,0.188919,-0.114713,-0.835921,0.245585,-0.423272,-77.837681,-87.767493,77.162041
00990,187188,8.938107,-1.360143,-0.766484,0.399694,0.286607,-0.094347,-0.835321,0.240386,-0.429549,-73.167754,-87.779156,72.717761
00991,187288,9.120105,-0.722916,-1.205263,0.397305,0.302152,-0.070324,-0.833874,0.234786,-0.427829,-68.397819,-87.760617,68.172019
00992,187388,9.178969,0.009056,-1.708338,0.370560,0.226456,-0.041772,-0.834253,0.234110,-0.434377,-64.915086,-87.731595,64.899063
00993,187488,9.181240,0.624915,-1.792411,0.317413,0.112337,-0.012891,-0.832789,0.232519,-0.432954,-63.195942,-87.710549,63.360559
00994,187588,9.134092,1.089338,-1.464954,0.240305,0.013477,-0.002465,-0.832765,0.230100,-0.434580,-62.868821,-87.708838,63.170965
00995,187688,8.984366,1.374971,-1.046309,0.138948,-0.054165,-0.005240,-0.832788,0.227561,-0.433707,-63.448697,-87.726123,63.830971
00996,187788,8.829373,1.327910,-0.767246,0.029854,-0.092115,-0.012481,-0.833285,0.228565,-0.433657,-64.553656,-87.756335,64.953903
00997,187888,8.782489,1.002774,-0.670595,-0.069297,-0.117186,-0.021674,-0.833299,0.225552,-0.433310,-66.029737,-87.796378,66.391358
00998,187988,8.807578,0.454478,-0.428243,-0.156171,-0.139627,-0.020603,-0.832357,0.226388,-0.430260,-67.930063,-87.839248,68.203515
00999,188088,8.844891,-0.096524,-0.288601,-0.229827,-0.172446,-0.017959,-0.834339,0.227440,-0.430709,-70.438143,-87.884706,70.581564
01000,188188,8.983092,-0.515690,-0.239697,-0.301397,-0.201022,-0.016268,-0.832395,0.226292,-0.428261,-73.531108,-87.929910,73.503784
01001,188288,8.994573,-0.865929,-0.259231,-0.360690,-0.219672,-0.022407,-0.836930,0.228211,-0.425161,-77.054796,-87.974979,76.822922
01002,188388,8.903523,-1.017615,-0.217207,-0.381603,-0.224017,-0.032342,-0.835455,0.227641,-0.424187,-80.777141,-88.018502,80.328758
01003,188488,8.933278,-0.882315,-0.154885,-0.373338,-0.209176,-0.052820,-0.836453,0.231619,-0.423484,-84.357596,-88.064645,83.697262
01004,188588,8.542099,-1.036866,0.187981,-0.323570,-0.164013,-0.066347,-0.836987,0.227071,-0.422213,-87.272312,-88.109996,86.428097
01005,188688,8.523642,-0.906875,0.222084,-0.295670,-0.154153,-0.071469,-0.835568,0.226854,-0.418214,-90.126550,-88.153485,89.114346
01006,188788,8.478874,-0.833785,0.350206,-0.258922,-0.155324,-0.077928,-0.839064,0.226885,-0.417716,-93.112584,-88.196115,91.953459
01007,188888,8.430216,-0.852187,0.511934,-0.223898,-0.126901,-0.074901,-0.838066,0.227866,-0.417665,-95.678807,-88.233810,94.392573
01008,188988,8.441703,-0.877253,0.486076,-0.186669,-0.088304,-0.076685,-0.837561,0.226387,-0.418241,-97.605751,-88.272046,96.213400
01009,189088,8.379273,-0.947656,0.362412,-0.146929,-0.094662,-0.085055,-0.841079,0.224377,-0.416844,-99.740227,-88.312462,98.264595
01010,189188,8.572875,-0.997014,0.455734,-0.117581,-0.102749,-0.093317,-0.838594,0.226307,-0.416241,-102.147946,-88.354171,100.605927
01011,189288,8.696504,-1.048205,0.499023,-0.095292,-0.088404,-0.097533,-0.840580,0.225366,-0.416793,-104.397949,-88.397293,102.802207
01012,189388,8.783001,-1.062657,0.516072,-0.076433,-0.085404,-0.097188,-0.842594,0.223356,-0.415895,-106.692331,-88.438161,105.053648
01013,189488,8.806342,-1.123410,0.568651,-0.057134,-0.103315,-0.091443,-0.845141,0.222753,-0.412923,-109.414941,-88.469940,107.744496
01014,189588,8.838752,-1.182030,0.646028,-0.032819,-0.132564,-0.084721,-0.845140,0.218293,-0.413651,-112.762605,-88.488185,111.074524
01015,189688,8.740408,-1.218924,0.750640,-0.031792,-0.151524,-0.085059,-0.847662,0.221226,-0.411500,-116.552137,-88.496518,114.847141
01016,189788,8.600849,-1.210101,0.720896,-0.050997,-0.200270,-0.090349,-0.846721,0.216606,-0.409230,-121.346254,-88.486508,119.613685
01017,189888,8.663176,-1.106866,0.832372,-0.064781,-0.242059,-0.084136,-0.847183,0.216212,-0.411254,-126.689165,-88.449073,124.921371
01018,189988,8.731794,-0.855910,0.829809,-0.057369,-0.255167,-0.066279,-0.851250,0.217055,-0.406707,-131.691529,-88.386314,129.892756
01019,190088,8.783519,-0.607081,0.878826,-0.053152,-0.237178,-0.065852,-0.849794,0.215938,-0.404758,-136.036251,-88.319580,134.208803
01020,190188,8.952175,-0.497249,1.000210,-0.062171,-0.187973,-0.086292,-0.855324,0.213912,-0.402362,-139.730055,-88.273135,137.868602
01021,190288,9.250667,-0.512732,1.118582,-0.089007,-0.124568,-0.113361,-0.856265,0.213574,-0.405387,-142.924627,-88.258345,141.013617
01022,190388,9.629267,-0.659246,0.967885,-0.078357,-0.076420,-0.130820,-0.858285,0.213533,-0.403888,-145.813895,-88.266812,143.859299
01023,190488,9.997984,-0.796742,0.674876,-0.024360,-0.034128,-0.136842,-0.861307,0.210519,-0.402542,-148.368091,-88.293414,146.400684
01024,190588,10.375774,-0.953724,0.398703,0.033922,0.011264,-0.135395,-0.859319,0.207996,-0.402668,-150.502630,-88.338856,148.555592
01025,190688,10.574715,-1.119910,0.075926,0.075750,0.027265,-0.126766,-0.861265,0.208148,-0.405168,-152.423588,-88.387718,150.520755
01026,190788,10.762726,-1.156365,-0.062268,0.116059,-0.012168,-0.123740,-0.860812,0.203560,-0.403397,-154.733788,-88.413460,152.898382
01027,190888,10.914467,-1.137747,-0.049327,0.173174,-0.065059,-0.133870,-0.862828,0.201052,-0.402525,-157.700057,-88.410720,155.965054
01028,190988,11.178559,-1.145808,0.077337,0.240151,-0.079028,-0.156055,-0.863310,0.199614,-0.403601,-161.132415,-88.400217,159.536395
01029,191088,11.664182,-1.265473,0.370668,0.294296,-0.037447,-0.168981,-0.864306,0.194671,-0.404355,-164.502686,-88.408809,163.076664
01030,191188,12.400866,-1.281874,0.807798,0.301236,0.016654,-0.164832,-0.868828,0.193650,-0.402408,-167.569299,-88.441404,166.317102
01031,191288,13.309496,-1.048856,1.518511,0.250367,0.081504,-0.151652,-0.866286,0.191263,-0.405533,-170.276411,-88.504554,169.168682
01032,191388,14.405635,-0.620039,2.529563,0.174275,0.208468,-0.127205,-0.869738,0.189920,-0.407609,-172.325350,-88.634392,171.318146
01033,191488,15.395096,0.141945,3.163329,0.106595,0.400740,-0.105230,-0.870164,0.188626,-0.411685,-173.717500,-88.870502,172.771715
01034,191588,15.797790,0.960350,2.723812,0.070662,0.599937,-0.099450,-0.868614,0.188747,-0.414683,-175.044636,-89.219168,174.139517
01035,191688,15.193326,1.394975,1.487937,0.074090,0.745697,-0.131841,-0.868955,0.188168,-0.423231,178.758491,-89.650330,-179.620906
01036,191788,14.260798,1.420489,0.123230,0.100708,0.798054,-0.187177,-0.867340,0.183499,-0.430481,46.541323,-89.842039,-47.345687
01037,191888,13.557920,1.282624,-1.230188,0.124320,0.797827,-0.241359,-0.865697,0.183362,-0.438503,24.096246,-89.379384,-24.829063
01038,191988,12.377796,0.902306,-2.324430,0.117604,0.743942,-0.276624,-0.863596,0.182125,-0.444577,22.569056,-88.924335,-23.234338
01039,192088,10.596578,0.331942,-3.273364,0.069747,0.564329,-0.273886,-0.861539,0.181764,-0.448100,23.425061,-88.564654,-24.050581
01040,192188,9.078265,-0.261039,-3.863961,-0.007587,0.262297,-0.223490,-0.861016,0.180333,-0.449675,25.449170,-88.374255,-26.079763
01041,192288,8.002697,-0.370046,-3.523674,-0.113632,-0.056240,-0.151921,-0.861475,0.181434,-0.451624,28.614484,-88.362960,-29.311496
01042,192388,7.276043,-0.173258,-2.834421,-0.210608,-0.320098,-0.089716,-0.861582,0.183636,-0.445499,33.543877,-88.493306,-34.363453
01043,192488,7.025050,0.235092,-2.125470,-0.259235,-0.481532,-0.051740,-0.866618,0.184069,-0.442476,41.177060,-88.694832,-42.147486
01044,192588,7.118236,0.891137,-1.558146,-0.214203,-0.507778,-0.055417,-0.868744,0.182269,-0.435556,52.049773,-88.872222,-53.145373
01045,192688,7.444381,1.610637,-0.947371,-0.112187,-0.446804,-0.085962,-0.870765,0.181730,-0.434083,64.930494,-88.964413,-66.092645
01046,192788,8.292357,1.950015,-0.628877,-0.016424,-0.301682,-0.114652,-0.874827,0.180106,-0.430162,75.143150,-88.961434,-76.316364
01047,192888,9.294133,1.790211,-0.669790,0.037166,-0.138944,-0.100470,-0.872882,0.174000,-0.428467,80.039431,-88.922007,-81.192166
01048,192988,10.046798,1.382416,-1.025247,0.047640,-0.042688,-0.065125,-0.876354,0.177567,-0.428790,81.637868,-88.888749,-82.763577
01049,193088,10.537592,1.030919,-1.498341,0.015744,-0.010563,-0.015189,-0.877873,0.174054,-0.427968,82.017144,-88.880664,-83.133885
01050,193188,10.765016,0.687030,-1.749297,-0.051313,0.002324,0.037521,-0.877904,0.171989,-0.426570,81.765104,-88.901419,-82.911184
01051,193288,10.844917,0.203861,-1.959482,-0.140519,0.014085,0.098367,-0.877881,0.174528,-0.427443,80.807432,-88.955580,-82.033848
01052,193388,10.584060,-0.194800,-1.986963,-0.232306,-0.018016,0.158484,-0.880461,0.176818,-0.422319,80.419175,-89.046551,-81.778631
01053,193488,10.142091,-0.535640,-1.704555,-0.302626,-0.077942,0.200426,-0.876498,0.174714,-0.421420,81.962384,-89.166616,-83.495417
01054,193588,9.760853,-0.724636,-1.331483,-0.337697,-0.150587,0.227533,-0.879023,0.181608,-0.418566,87.314096,-89.304388,-89.041082
01055,193688,9.480911,-0.614894,-0.825097,-0.341582,-0.212459,0.225967,-0.877523,0.184574,-0.418413,98.764156,-89.427601,-100.687536
01056,193788,9.450206,-0.316838,-0.341379,-0.316702,-0.223819,0.210196,-0.879070,0.185948,-0.415338,115.642310,-89.505286,-117.747854
01057,193888,9.308115,0.149818,-0.030114,-0.250752,-0.191842,0.173249,-0.881640,0.188760,-0.410688,132.916852,-89.525306,-135.166663
01058,193988,8.995580,0.615524,0.122703,-0.168695,-0.141867,0.121025,-0.882671,0.189676,-0.408639,145.368140,-89.508763,-147.715035
01059,194088,8.598310,0.827784,0.166055,-0.089366,-0.109656,0.082654,-0.884209,0.191572,-0.406039,153.533233,-89.478337,-155.931637
01060,194188,8.191345,1.034635,0.129222,-0.033671,-0.108925,0.055942,-0.885194,0.192608,-0.406488,159.218780,-89.433658,-161.636721
01061,194288,7.897002,1.003457,0.111752,-0.010557,-0.117301,0.040118,-0.886721,0.189570,-0.405141,163.360198,-89.377076,-165.784400
01062,194388,7.557868,0.948316,-0.023498,-0.019431,-0.142546,0.040428,-0.886782,0.191893,-0.401515,167.075008,-89.303741,-169.510579
01063,194488,7.481104,0.689363,0.128911,-0.059794,-0.164124,0.063319,-0.888812,0.191828,-0.399517,171.149699,-89.217997,-173.619862
01064,194588,7.449974,0.632894,0.186917,-0.114501,-0.158354,0.084277,-0.887804,0.193331,-0.399940,175.140284,-89.133474,-177.676462
01065,194688,7.516506,0.595665,0.133753,-0.157848,-0.132630,0.094190,-0.889852,0.193218,-0.396942,178.699167,-89.060352,178.673768
01066,194788,7.645871,0.519241,0.018382,-0.169957,-0.111852,0.098992,-0.888913,0.192560,-0.393969,-178.102373,-88.995883,175.377460
01067,194888,7.751555,0.440460,-0.182033,-0.156539,-0.107375,0.097903,-0.889947,0.191981,-0.391995,-175.318871,-88.931198,172.503802
01068,194988,7.869750,0.248023,-0.399243,-0.121039,-0.116380,0.089212,-0.891476,0.193403,-0.389920,-173.124763,-88.859692,170.239925
01069,195088,7.938664,0.178499,-0.558001,-0.070152,-0.169931,0.084442,-0.892529,0.192776,-0.386947,-171.510227,-88.756732,168.584839
01070,195188,8.103514,0.097713,-0.569778,-0.028316,-0.242607,0.078817,-0.891562,0.192190,-0.385473,-170.549916,-88.612396,167.608047
01071,195288,8.311964,0.106533,-0.390098,0.007994,-0.317057,0.082766,-0.893090,0.194110,-0.383372,-169.947500,-88.425351,167.010010
01072,195388,8.540975,0.246685,-0.144348,0.049468,-0.359014,0.086757,-0.893168,0.191925,-0.379475,-169.519090,-88.214126,166.609769
01073,195488,8.609030,0.447356,0.126524,0.077782,-0.354150,0.084464,-0.894238,0.192246,-0.375452,-169.185287,-88.005838,166.320368
01074,195588,8.445782,0.710843,0.238159,0.094798,-0.341706,0.073683,-0.894844,0.188501,-0.370132,-169.024108,-87.805715,166.213425
01075,195688,8.357345,0.632681,0.503409,0.079305,-0.327648,0.065599,-0.897818,0.191562,-0.370480,-168.966110,-87.614419,166.200845
01076,195788,8.408776,0.541166,0.696800,0.057468,-0.303856,0.076052,-0.898438,0.191257,-0.363983,-168.735980,-87.435391,166.003444
01077,195888,8.526063,0.590808,0.755135,0.052818,-0.230873,0.087344,-0.899453,0.190727,-0.363009,-168.226493,-87.296047,165.523697
01078,195988,8.652007,0.649551,0.621162,0.057765,-0.142024,0.092133,-0.900430,0.191289,-0.363984,-167.487255,-87.205712,164.816725
01079,196088,8.900214,0.782620,0.391744,0.061928,-0.089145,0.089028,-0.899970,0.190686,-0.362010,-166.687523,-87.144902,164.051525
01080,196188,9.385881,0.793936,0.394893,0.059945,-0.064121,0.080985,-0.900477,0.190670,-0.361510,-165.941513,-87.098655,163.338939
01081,196288,9.872070,0.747940,0.528040,0.055053,-0.060846,0.076916,-0.898997,0.193089,-0.360383,-165.256094,-87.054411,162.684187
01082,196388,10.230952,0.655819,0.621013,0.042765,-0.071280,0.086141,-0.899508,0.191080,-0.359985,-164.530754,-87.002664,161.982381
01083,196488,10.628881,0.453545,0.722666,0.025086,-0.048808,0.103297,-0.905065,0.189480,-0.356064,-163.594558,-86.960131,161.059250
01084,196588,11.063262,0.308028,0.619723,-0.000925,0.004523,0.132540,-0.901005,0.189609,-0.360062,-162.229562,-86.940966,159.691761
01085,196688,11.384429,0.210941,0.198893,-0.048516,0.058317,0.169524,-0.900517,0.194536,-0.358808,-160.345764,-86.942176,157.777411
01086,196788,11.499316,0.298580,-0.237701,-0.111964,0.066626,0.208595,-0.901033,0.194993,-0.357783,-158.077314,-86.936208,155.441450
01087,196888,11.537541,0.592109,-0.411386,-0.172146,0.034317,0.230862,-0.901026,0.198481,-0.357605,-155.781411,-86.903259,153.043421
01088,196988,11.800130,1.025539,-0.299296,-0.215722,0.002345,0.232409,-0.900028,0.199960,-0.357529,-153.698137,-86.848493,150.833233
01089,197088,12.010140,1.221378,0.491873,-0.204114,0.046738,0.218284,-0.900964,0.202113,-0.360426,-151.595521,-86.815745,148.610238
01090,197188,12.808719,1.336805,1.127615,-0.210608,0.108777,0.175364,-0.900957,0.206597,-0.360198,-149.600227,-86.821764,146.490975
01091,197288,13.792841,1.211080,1.774787,-0.150053,0.278062,0.146375,-0.895959,0.205072,-0.361271,-146.858658,-86.914263,143.659171
01092,197388,14.548359,0.687317,1.420006,-0.061490,0.452632,0.114145,-0.896862,0.210785,-0.365491,-143.034004,-87.090393,139.793975
01093,197488,15.299085,-0.096250,0.558766,-0.002328,0.557753,0.095682,-0.895736,0.211106,-0.372488,-138.025598,-87.303796,134.778225
01094,197588,15.289791,-0.718873,-0.295380,0.027336,0.583526,0.085017,-0.894634,0.212850,-0.377909,-132.034452,-87.507544,128.796611
01095,197688,14.871821,-1.202326,-1.305495,-0.016247,0.571179,0.107026,-0.891587,0.214442,-0.380831,-125.060067,-87.665122,121.806724
01096,197788,14.676143,-1.229878,-2.426342,-0.058074,0.519410,0.135338,-0.885475,0.217175,-0.387699,-117.721376,-87.755338,114.428874
01097,197888,14.258632,-1.229481,-3.583574,-0.049723,0.400076,0.170182,-0.885422,0.220783,-0.390020,-111.378428,-87.762990,108.052561
01098,197988,13.008513,-1.308072,-4.117254,-0.017008,0.238573,0.193202,-0.882953,0.224159,-0.388342,-107.199725,-87.704599,103.860826
01099,198088,11.363719,-1.162139,-3.853732,0.041751,0.089552,0.176607,-0.885905,0.229261,-0.389589,-105.273727,-87.622671,101.957152
01100,198188,10.212328,-0.822122,-3.134515,0.122351,-0.013202,0.118174,-0.883906,0.233215,-0.389385,-104.958789,-87.556163,101.712080
01101,198288,9.150723,-0.662124,-2.246785,0.214118,-0.070397,0.041394,-0.884422,0.233175,-0.388385,-105.599153,-87.523443,102.475807
01102,198388,8.130704,-0.678026,-1.572539,0.287291,-0.078372,-0.029878,-0.882921,0.237137,-0.388181,-106.547068,-87.528209,103.589341
01103,198488,7.312588,-0.697354,-1.312128,0.294628,-0.072717,-0.091514,-0.885408,0.233713,-0.388860,-107.673555,-87.566774,104.885801
01104,198588,6.838176,-0.748965,-1.159447,0.253097,-0.028988,-0.123553,-0.884940,0.232636,-0.387411,-108.434489,-87.629599,105.792520
01105,198688,6.587578,-0.952721,-1.310025,0.197526,0.036927,-0.140473,-0.885976,0.231061,-0.385489,-108.461502,-87.713256,105.932798
01106,198788,6.704876,-1.096321,-1.676340,0.156745,0.078664,-0.153756,-0.888930,0.229710,-0.387565,-107.989933,-87.811586,105.550722
01107,198888,7.316568,-1.227572,-1.827032,0.147483,0.069846,-0.165879,-0.886472,0.227108,-0.386192,-107.674685,-87.914811,105.319791
01108,198988,8.082002,-1.132006,-1.573981,0.170363,0.061158,-0.163914,-0.886916,0.226264,-0.389241,-107.445999,-88.015363,105.188610
01109,199088,8.830381,-0.840363,-1.236144,0.193786,0.090372,-0.137303,-0.888951,0.223209,-0.387395,-106.565018,-88.106144,104.418197
01110,199188,9.467679,-0.449208,-1.132549,0.221968,0.140607,-0.115737,-0.892425,0.219825,-0.388574,-104.601767,-88.192068,102.581145
01111,199288,9.876429,-0.013699,-1.413891,0.237355,0.174232,-0.099029,-0.888477,0.220164,-0.386548,-101.752344,-88.270503,99.866403
01112,199388,10.051474,0.346421,-1.605371,0.256558,0.166244,-0.090318,-0.888896,0.217399,-0.391199,-98.767167,-88.338856,97.026961
01113,199488,10.052829,0.586066,-1.450759,0.263202,0.150012,-0.090225,-0.888902,0.213912,-0.391377,-95.870407,-88.401592,94.279873
01114,199588,9.898387,0.753530,-1.109556,0.230538,0.136762,-0.101499,-0.891385,0.213477,-0.391903,-93.066642,-88.466248,91.607179
01115,199688,9.672439,0.735129,-0.783902,0.159754,0.107618,-0.119014,-0.887410,0.212891,-0.391427,-90.726086,-88.537068,89.357369
01116,199788,9.457839,0.509184,-0.328520,0.062157,0.087445,-0.116226,-0.889384,0.212971,-0.392427,-88.689892,-88.604074,87.356149
01117,199888,9.179268,0.119375,0.068123,-0.021493,0.079481,-0.103372,-0.889910,0.212907,-0.390928,-86.715826,-88.662122,85.369187
01118,199988,8.991413,-0.193608,0.419310,-0.074565,0.084287,-0.087120,-0.889414,0.211902,-0.390979,-84.512088,-88.708902,83.122123
01119,200088,8.861565,-0.502083,0.626021,-0.100391,0.111021,-0.077740,-0.890867,0.214015,-0.392877,-81.498705,-88.746071,80.050450
01120,200188,8.660274,-0.664829,0.628387,-0.115317,0.143475,-0.068082,-0.889926,0.214353,-0.389852,-77.520514,-88.770154,76.005228
01121,200288,8.437811,-0.751752,0.617103,-0.118662,0.184462,-0.063975,-0.889865,0.217487,-0.392699,-72.379971,-88.778780,70.795497
01122,200388,8.279045,-0.599999,0.515797,-0.137823,0.222870,-0.070665,-0.889369,0.216483,-0.392749,-66.203082,-88.772135,64.538207
01123,200488,7.942699,-0.503793,0.277156,-0.121459,0.245931,-0.074775,-0.890342,0.218540,-0.393647,-59.576674,-88.746644,57.840635
01124,200588,7.619440,-0.415686,0.243325,-0.109294,0.220507,-0.070903,-0.891322,0.217607,-0.394698,-53.868111,-88.711847,52.068030
01125,200688,7.541257,-0.255155,0.078935,-0.103230,0.182959,-0.071219,-0.890261,0.217262,-0.398222,-49.202122,-88.679149,47.341667
01126,200788,7.664672,-0.079929,0.039929,-0.110119,0.083125,-0.076779,-0.891738,0.216835,-0.399247,-46.445360,-88.680347,44.521059
01127,200888,7.885159,-0.023763,0.279020,-0.104078,0.002124,-0.073719,-0.892822,0.219600,-0.394097,-45.165715,-88.710342,43.181432
01128,200988,8.151547,-0.014206,0.394120,-0.109001,-0.031599,-0.082159,-0.891331,0.217583,-0.394198,-44.281931,-88.756873,42.234963
01129,201088,8.302089,-0.085350,0.224273,-0.122722,-0.077290,-0.090591,-0.893345,0.221030,-0.392522,-44.038975,-88.825331,41.921621
01130,201188,8.415746,-0.241346,0.270564,-0.137385,-0.136089,-0.095392,-0.895838,0.219575,-0.392599,-44.899688,-88.919777,42.703769
01131,201288,8.519601,-0.560850,0.666988,-0.135643,-0.170992,-0.083470,-0.894881,0.218466,-0.390650,-47.036433,-89.022753,44.763127
01132,201388,8.620271,-0.756427,0.735082,-0.160836,-0.194505,-0.068548,-0.895939,0.220306,-0.387050,-50.713642,-89.126127,48.348648
01133,201488,8.740238,-0.906551,0.792870,-0.155664,-0.190281,-0.054063,-0.898972,0.221728,-0.384476,-55.536835,-89.216808,53.083144
01134,201588,8.759763,-1.068722,0.835635,-0.133597,-0.178123,-0.044163,-0.898023,0.221094,-0.382002,-61.265302,-89.292284,58.735542
01135,201688,8.900555,-1.040108,0.995130,-0.098667,-0.162294,-0.043619,-0.901047,0.222540,-0.379927,-67.501769,-89.355427,64.915903
01136,201788,9.128579,-0.948200,1.183140,-0.081478,-0.133614,-0.043044,-0.903060,0.221028,-0.379005,-73.442708,-89.404595,70.810502
01137,201888,9.405218,-0.839450,1.372094,-0.079353,-0.098097,-0.041985,-0.903090,0.224918,-0.376802,-78.302773,-89.441909,75.625344
01138,201988,9.765422,-0.727725,1.560490,-0.082972,-0.052914,-0.045141,-0.904586,0.224443,-0.376828,-80.984229,-89.473014,78.259377
01139,202088,10.117461,-0.526824,1.604751,-0.073025,0.007523,-0.052775,-0.906094,0.226910,-0.375702,-79.956951,-89.502297,77.190216
01140,202188,10.428564,-0.503681,1.418025,-0.043959,0.059185,-0.066134,-0.907565,0.229473,-0.376575,-75.033907,-89.532103,72.241810
01141,202288,10.665191,-0.530372,1.263299,-0.018933,0.105507,-0.088679,-0.909074,0.231940,-0.375449,-65.639269,-89.559741,62.836030
01142,202388,10.808872,-0.633833,1.046797,0.009093,0.146294,-0.109468,-0.908055,0.229007,-0.377100,-51.822361,-89.569821,49.023937
01143,202488,10.749404,-0.843469,0.684221,0.060308,0.150421,-0.136859,-0.909496,0.227680,-0.380176,-36.335110,-89.562132,33.570802
01144,202588,10.624181,-1.075259,0.191394,0.145748,0.103504,-0.165355,-0.909984,0.228211,-0.380650,-21.674226,-89.555770,18.992998
01145,202688,10.584515,-1.347929,-0.047658,0.246308,0.048030,-0.187361,-0.910986,0.230195,-0.380049,-7.191092,-89.555416,4.650561
01146,202788,10.733735,-1.652534,-0.119776,0.327350,0.022915,-0.195091,-0.912429,0.227872,-0.383176,7.211183,-89.541695,-9.564593
01147,202888,11.111086,-1.897979,0.205716,0.376163,0.037905,-0.180401,-0.911936,0.230331,-0.382549,18.831567,-89.496596,-20.969850
01148,202988,11.888185,-1.652382,0.833210,0.372962,0.086173,-0.151856,-0.914417,0.230395,-0.383049,25.540512,-89.417509,-27.465395
01149,203088,12.883082,-1.138425,1.934559,0.333224,0.162751,-0.121258,-0.917867,0.230546,-0.385050,27.521163,-89.302621,-29.255236
01150,203188,14.147157,-0.371623,2.874073,0.288964,0.290964,-0.095092,-0.917266,0.230803,-0.390547,25.742436,-89.128632,-27.310770
01151,203288,15.151383,0.896179,3.149197,0.260917,0.454155,-0.087652,-0.917720,0.234894,-0.392344,22.406395,-88.869759,-23.824722
01152,203388,15.698381,1.995156,2.190226,0.267045,0.608750,-0.111954,-0.917131,0.233632,-0.397417,19.669269,-88.520246,-20.933867
01153,203488,15.727024,2.690552,0.574868,0.273932,0.671704,-0.152337,-0.913960,0.237031,-0.406760,18.350757,-88.127016,-19.457794
01154,203588,15.035106,2.880212,-1.118934,0.267288,0.618890,-0.219924,-0.913877,0.237248,-0.411258,18.689193,-87.749892,-19.643214
01155,203688,13.566969,2.397194,-2.518195,0.198635,0.506936,-0.296997,-0.912268,0.239008,-0.417179,20.306393,-87.418515,-21.147941
01156,203788,11.484430,1.518094,-3.425762,0.051316,0.343373,-0.332322,-0.910734,0.240575,-0.419102,22.564283,-87.165157,-23.378915
01157,203888,9.699997,0.474181,-3.712115,-0.093809,0.102873,-0.309603,-0.909269,0.239483,-0.417653,25.245264,-87.038936,-26.117136
01158,203988,8.429088,0.129765,-3.362095,-0.183446,-0.159985,-0.258788,-0.911756,0.241515,-0.417552,28.510630,-87.053411,-29.492076
01159,204088,7.325153,0.372657,-2.631047,-0.220150,-0.380464,-0.213278,-0.912279,0.248402,-0.415197,32.681075,-87.178789,-33.794080
01160,204188,6.620276,0.779422,-1.744540,-0.220318,-0.540142,-0.182854,-0.915419,0.247068,-0.407252,38.124011,-87.370460,-39.369513
01161,204288,6.450284,1.136619,-0.792680,-0.188427,-0.598521,-0.178022,-0.917518,0.249302,-0.401128,44.887376,-87.559871,-46.247516
01162,204388,6.770638,1.345623,-0.073513,-0.171565,-0.543903,-0.178707,-0.922595,0.247645,-0.396208,52.064857,-87.689833,-53.529502
01163,204488,7.490154,1.458917,-0.056330,-0.164507,-0.408229,-0.166806,-0.920611,0.248088,-0.395682,58.168416,-87.744958,-59.732198
01164,204588,8.006508,1.213326,-0.501761,-0.147723,-0.278018,-0.122526,-0.925152,0.247018,-0.392735,62.509736,-87.762410,-64.161526
01165,204688,8.601684,0.745551,-0.992183,-0.138168,-0.186911,-0.061019,-0.925740,0.248280,-0.387661,65.306854,-87.777710,-67.039954
01166,204788,9.022092,0.386876,-1.556718,-0.157269,-0.145586,0.004734,-0.927237,0.247307,-0.387713,67.184475,-87.813404,-69.009104
01167,204888,9.441074,0.043644,-1.877995,-0.189258,-0.158621,0.067426,-0.929224,0.250328,-0.387561,68.950416,-87.882836,-70.884764
01168,204988,9.841293,-0.291769,-2.032532,-0.208923,-0.179091,0.138908,-0.928756,0.254209,-0.385358,70.762114,-87.992596,-72.817376
01169,205088,10.136501,-0.500611,-2.108428,-0.246681,-0.239162,0.204490,-0.930802,0.255591,-0.382284,73.441475,-88.145983,-75.639630
01170,205188,10.172200,-0.583063,-1.897233,-0.314400,-0.308606,0.260240,-0.929367,0.258388,-0.378632,77.647904,-88.334403,-80.028216
01171,205288,9.978342,-0.410096,-1.458982,-0.367354,-0.365695,0.291601,-0.931433,0.264182,-0.373830,84.062888,-88.532718,-86.656098
01172,205388,9.836409,-0.016155,-1.004962,-0.377198,-0.393597,0.295947,-0.934476,0.270039,-0.370027,93.073404,-88.708076,-95.885348
01173,205488,9.712565,0.328902,-0.526846,-0.321502,-0.383663,0.278274,-0.934572,0.273262,-0.364352,104.180194,-88.832849,-107.178888
01174,205588,9.538100,0.538382,-0.133117,-0.221221,-0.331553,0.250763,-0.936114,0.278124,-0.361099,115.615449,-88.903016,-118.743104
01175,205688,9.290036,0.732064,0.028976,-0.129799,-0.272706,0.220857,-0.939659,0.281498,-0.357424,126.105204,-88.930869,-129.309079
01176,205788,8.967162,0.830881,0.045551,-0.068721,-0.232810,0.196411,-0.940183,0.282928,-0.355848,135.427420,-88.928179,-138.672276
01177,205888,8.648469,0.909678,0.036233,-0.037852,-0.213690,0.167889,-0.940719,0.287798,-0.353096,143.458647,-88.896782,-146.726620
01178,205988,8.383626,0.971673,0.020087,-0.033912,-0.196203,0.145127,-0.943242,0.290233,-0.350970,150.098949,-88.847365,-153.387627
01179,206088,8.109377,1.045446,0.058342,-0.038433,-0.191951,0.127785,-0.943682,0.291381,-0.353918,155.640276,-88.781969,-158.952154
01180,206188,7.873527,1.106066,0.143110,-0.061249,-0.179451,0.109072,-0.945794,0.292096,-0.347371,160.004915,-88.709499,-163.352935
01181,206288,7.767703,1.009410,0.156241,-0.099381,-0.155837,0.093594,-0.946803,0.295552,-0.346194,163.342779,-88.640820,-166.748645
01182,206388,7.784495,0.822213,0.081622,-0.138722,-0.139662,0.087709,-0.948791,0.298074,-0.346067,166.104122,-88.576141,-169.590311
01183,206488,7.838132,0.704459,-0.218962,-0.153504,-0.131360,0.086117,-0.948366,0.298870,-0.342018,168.536566,-88.512855,-172.111524
01184,206588,7.813285,0.453139,-0.428919,-0.165651,-0.158043,0.091835,-0.948832,0.300943,-0.343416,170.963014,-88.432447,-174.633786
01185,206688,7.977226,0.254599,-0.443294,-0.155493,-0.204549,0.100205,-0.947391,0.302270,-0.340340,173.420343,-88.323496,-177.181235
01186,206788,8.228489,0.061153,-0.207631,-0.143485,-0.245749,0.106972,-0.952433,0.304671,-0.336716,175.754709,-88.188506,-179.598942
01187,206888,8.475577,0.071670,-0.124011,-0.111976,-0.290666,0.113873,-0.950493,0.306488,-0.333615,177.917235,-88.025278,178.173147
01188,206988,8.701767,0.176973,-0.008457,-0.077997,-0.328599,0.118886,-0.953011,0.306954,-0.332091,179.839219,-87.837892,176.205176
01189,207088,8.927856,0.330214,0.184820,-0.039767,-0.341227,0.117206,-0.953551,0.309333,-0.329465,-178.557671,-87.641235,174.577996
01190,207188,9.071645,0.490468,0.307042,-0.030923,-0.332567,0.118402,-0.954650,0.308585,-0.323993,-177.178697,-87.447965,173.179997
01191,207288,9.101762,0.733403,0.453661,-0.026504,-0.291661,0.111740,-0.952174,0.310988,-0.322865,-176.039474,-87.277113,172.024336
01192,207388,8.919192,0.666700,0.561577,-0.043089,-0.227403,0.124014,-0.956219,0.313872,-0.319216,-174.841568,-87.141421,170.800256
01193,207488,8.775886,0.769992,0.604683,-0.069201,-0.149018,0.126668,-0.956224,0.316339,-0.318589,-173.644751,-87.049118,169.562160
01194,207588,8.951062,0.677746,0.680446,-0.090794,-0.043165,0.128151,-0.957668,0.318476,-0.320987,-172.366946,-87.015652,168.230506
01195,207688,9.230406,0.576480,0.690455,-0.095768,0.066066,0.134104,-0.952651,0.322954,-0.322256,-170.869039,-87.042022,166.675594
01196,207788,9.605125,0.570370,0.493461,-0.093574,0.149534,0.138677,-0.956144,0.324480,-0.321681,-169.116934,-87.112807,164.867477
01197,207888,9.903007,0.561994,0.329124,-0.098715,0.200180,0.132575,-0.955144,0.326955,-0.321554,-167.219072,-87.209798,162.910609
01198,207988,10.023606,0.560276,0.368148,-0.101043,0.211111,0.120310,-0.956597,0.329068,-0.323452,-165.297010,-87.311315,160.928343
01199,208088,10.047280,0.555237,0.448528,-0.100181,0.214452,0.106967,-0.957984,0.332346,-0.328798,-163.373872,-87.413562,158.945659
01200,208188,10.224302,0.392424,0.527316,-0.096630,0.236073,0.096674,-0.956454,0.331920,-0.330822,-161.327708,-87.526242,156.842035
01201,208288,10.478379,0.259989,0.387457,-0.086488,0.273088,0.089485,-0.952458,0.337836,-0.330516,-158.989446,-87.656692,154.452066
01202,208388,10.769104,0.181973,0.153149,-0.091612,0.303841,0.090991,-0.951905,0.337474,-0.333540,-156.176044,-87.798505,151.583880
01203,208488,10.969389,0.141631,-0.119736,-0.117089,0.333029,0.108053,-0.949875,0.342497,-0.334784,-152.541267,-87.944593,147.879424
01204,208588,11.032653,0.372315,-0.305551,-0.145641,0.326011,0.123912,-0.951259,0.342312,-0.340808,-148.215638,-88.072825,143.467653
01205,208688,11.238130,0.897136,-0.218314,-0.186996,0.270873,0.135097,-0.949209,0.348379,-0.343002,-143.754441,-88.159175,138.896810
01206,208788,11.797359,1.368924,0.466401,-0.210603,0.233664,0.124802,-0.948689,0.350412,-0.343899,-139.492224,-88.220855,134.511704
01207,208888,12.783626,1.513825,1.479660,-0.192370,0.284735,0.101050,-0.948108,0.355580,-0.347644,-134.561394,-88.302086,129.468300
01208,208988,14.072967,1.225859,2.314182,-0.128741,0.433730,0.074046,-0.945559,0.356681,-0.350591,-127.069025,-88.434147,121.899078
01209,209088,15.384095,0.482176,2.385951,-0.016599,0.633217,0.051627,-0.942964,0.358401,-0.356012,-114.440149,-88.596836,109.256470
01210,209188,16.403256,-0.410105,1.708959,0.093395,0.797504,0.047486,-0.941319,0.359261,-0.363983,-95.330016,-88.690769,90.194597
01211,209288,17.064998,-1.305694,0.499633,0.093631,0.914831,0.078037,-0.936614,0.364726,-0.375223,-73.280369,-88.593699,68.192572
01212,209388,16.782656,-1.926815,-1.608744,-0.001696,0.912074,0.137494,-0.930514,0.365443,-0.381693,-56.921892,-88.300012,51.827247
01213,209488,15.281796,-2.238143,-3.852765,-0.080141,0.714986,0.216846,-0.929351,0.370818,-0.389935,-49.198123,-87.954266,44.053461
01214,209588,12.808574,-2.120377,-5.164228,-0.105997,0.387402,0.292237,-0.927774,0.375471,-0.393705,-47.785843,-87.682326,42.579388
01215,209688,10.789884,-1.411231,-5.091803,-0.067729,-0.015597,0.310682,-0.922815,0.383766,-0.391272,-50.765623,-87.553930,45.522897
01216,209788,10.008707,-0.651644,-3.824064,-0.000683,-0.346801,0.279385,-0.923934,0.387928,-0.384047,-56.714594,-87.543231,51.476902
01217,209888,9.326189,-0.258832,-2.323533,0.084624,-0.506969,0.216428,-0.924448,0.388885,-0.382996,-64.037255,-87.580057,58.854688
01218,209988,8.384493,-0.085174,-1.407594,0.167757,-0.561903,0.138720,-0.928532,0.396132,-0.376619,-71.793748,-87.628568,66.714116
01219,210088,7.371167,-0.110606,-0.989360,0.238769,-0.594141,0.060028,-0.926635,0.394366,-0.371696,-79.932977,-87.679485,74.997033
01220,210188,6.621469,-0.328268,-0.799311,0.318991,-0.589797,-0.015701,-0.929699,0.393722,-0.367724,-88.120422,-87.724659,83.373918
01221,210288,6.118462,-0.647132,-0.835521,0.405901,-0.498628,-0.083099,-0.931241,0.393127,-0.365251,-95.193919,-87.764911,90.685584
01222,210388,5.951684,-0.985618,-0.988371,0.460711,-0.306915,-0.131972,-0.932324,0.391431,-0.360829,-99.724858,-87.817822,95.484006
01223,210488,6.023815,-1.175501,-1.225014,0.476263,-0.127328,-0.168371,-0.933823,0.388466,-0.360982,-101.872877,-87.899538,97.906549
01224,210588,6.556530,-1.307569,-1.292434,0.481459,-0.037519,-0.186522,-0.935784,0.385604,-0.363135,-102.845782,-87.999839,99.156066
01225,210688,7.474627,-1.344595,-1.104587,0.492640,-0.021651,-0.187035,-0.935786,0.379151,-0.363965,-103.665813,-88.101718,100.258955
01226,210788,8.472855,-1.127566,-0.865863,0.510192,-0.004453,-0.161684,-0.936297,0.377142,-0.363567,-104.165967,-88.191364,101.051804
01227,210888,9.275161,-0.712246,-0.784286,0.521309,0.051564,-0.119565,-0.936736,0.373831,-0.367243,-103.498631,-88.265247,100.682943
01228,210988,9.843023,-0.240718,-0.903404,0.522844,0.104760,-0.076192,-0.938731,0.367410,-0.368074,-101.582013,-88.321205,99.065141
01229,211088,10.470924,0.285791,-1.327231,0.485377,0.121201,-0.024325,-0.937710,0.365474,-0.369674,-99.073795,-88.347727,96.834044
01230,211188,10.177752,0.454253,-1.086841,0.464472,0.128560,0.038660,-0.936688,0.364533,-0.371224,-96.218558,-88.335998,94.243808
01231,211288,10.305359,1.067176,-1.142023,0.347730,0.095254,0.040008,-0.935189,0.361544,-0.371876,-94.122910,-88.318617,92.346545
01232,211388,9.965561,1.230342,-0.983744,0.259027,0.062324,0.036001,-0.934681,0.362059,-0.372351,-92.760927,-88.300809,91.132402
01233,211488,9.593232,1.159006,-0.898266,0.165924,0.016719,0.024229,-0.935179,0.362565,-0.372325,-92.360575,-88.288096,90.826936
01234,211588,9.342104,0.959606,-0.524281,0.087970,-0.012620,-0.001897,-0.936664,0.362613,-0.372825,-92.590880,-88.289661,91.107723
01235,211688,9.124672,0.616514,-0.224182,0.013559,-0.043187,-0.017559,-0.936665,0.361616,-0.372876,-93.468442,-88.299224,91.993398
01236,211788,8.827613,0.197489,0.003938,-0.030842,-0.087706,-0.034887,-0.932735,0.361907,-0.369851,-95.271618,-88.316146,93.779634
01237,211888,8.686151,-0.137976,0.196336,-0.070407,-0.095524,-0.046568,-0.935255,0.361376,-0.368377,-97.312786,-88.337455,95.781267
01238,211988,8.550804,-0.352352,0.038331,-0.110960,-0.104434,-0.061479,-0.934798,0.359278,-0.366480,-99.651506,-88.364206,98.057309
01239,212088,8.511316,-0.405343,-0.063458,-0.137443,-0.122070,-0.078983,-0.934831,0.356217,-0.365133,-102.505041,-88.395855,100.833158
01240,212188,8.515816,-0.418858,-0.066251,-0.141359,-0.115368,-0.098522,-0.935890,0.357060,-0.361584,-105.439470,-88.435285,103.687642
01241,212288,8.398261,-0.421434,-0.126412,-0.143598,-0.121270,-0.111754,-0.934934,0.355454,-0.359660,-108.726794,-88.476620,106.893811
01242,212388,8.381676,-0.482998,-0.021484,-0.138115,-0.142963,-0.115268,-0.935939,0.355445,-0.359161,-112.651010,-88.509924,110.740181
01243,212488,8.524682,-0.546954,0.146665,-0.154016,-0.162305,-0.118437,-0.935031,0.353220,-0.354764,-117.159248,-88.532673,115.161607
01244,212588,8.692092,-0.548975,0.192065,-0.143255,-0.185358,-0.113008,-0.934073,0.352111,-0.352815,-122.147109,-88.536646,120.068955
01245,212688,8.787874,-0.531390,0.256038,-0.127513,-0.182027,-0.106157,-0.935606,0.351541,-0.350842,-126.962785,-88.527727,124.813092
01246,212788,8.705510,-0.541618,0.222404,-0.119525,-0.182986,-0.103439,-0.936605,0.349564,-0.350944,-131.658481,-88.507208,129.441819
01247,212888,8.603270,-0.615004,0.220346,-0.105427,-0.195306,-0.108146,-0.939175,0.346919,-0.347073,-136.445585,-88.473888,134.170127
01248,212988,8.593616,-0.742252,0.391787,-0.087580,-0.195360,-0.107781,-0.937203,0.345843,-0.346124,-140.982244,-88.430403,138.658214
01249,213088,8.553481,-0.905110,0.498599,-0.078835,-0.177836,-0.100769,-0.938727,0.344798,-0.344676,-144.923607,-88.383694,142.555887
01250,213188,8.632588,-1.048721,0.607001,-0.083468,-0.156816,-0.083359,-0.935301,0.341609,-0.341828,-148.119778,-88.334905,145.705504
01251,213288,8.723519,-1.119644,0.741240,-0.080350,-0.140888,-0.069714,-0.937799,0.342621,-0.341278,-150.746095,-88.285518,148.286888
01252,213388,8.857503,-1.098209,0.804617,-0.051715,-0.126241,-0.055080,-0.935827,0.342043,-0.340303,-152.836931,-88.236514,150.349028
01253,213488,9.188624,-0.977739,0.896538,-0.022574,-0.096433,-0.049385,-0.933920,0.340300,-0.335881,-154.468760,-88.199414,151.968695
01254,213588,9.553839,-0.852689,0.974446,-0.005128,-0.035366,-0.052003,-0.936443,0.337776,-0.334509,-155.614159,-88.193520,153.111714
01255,213688,9.932629,-0.717104,0.968750,0.003297,0.024041,-0.051510,-0.936463,0.337229,-0.333535,-156.304492,-88.218084,153.804269
01256,213788,10.261861,-0.656060,0.809693,0.008874,0.047750,-0.057901,-0.936467,0.334738,-0.333662,-156.945435,-88.256371,154.450599
01257,213888,10.402116,-0.755798,0.744533,0.024442,0.053096,-0.065437,-0.936495,0.334666,-0.332163,-157.699281,-88.298953,155.218795
01258,213988,10.552542,-0.776267,0.714513,0.037834,0.071927,-0.077545,-0.937926,0.333862,-0.335713,-158.569193,-88.353848,156.110766
01259,214088,10.613743,-0.808871,0.558617,0.061489,0.081710,-0.093479,-0.936928,0.329884,-0.336415,-159.722182,-88.416802,157.299461
01260,214188,10.685690,-0.772218,0.225309,0.104367,0.067903,-0.110540,-0.934917,0.329403,-0.337440,-161.388618,-88.474731,159.026335
01261,214288,10.605747,-0.712213,0.000167,0.161858,0.025927,-0.134725,-0.938472,0.327795,-0.334018,-163.930507,-88.512086,161.661879
01262,214388,10.707488,-0.741857,0.010203,0.225902,-0.003000,-0.164695,-0.934465,0.324316,-0.335694,-167.363700,-88.533992,165.225697
01263,214488,11.058924,-0.914422,0.173122,0.288388,-0.002351,-0.182802,-0.935522,0.321696,-0.332823,-171.254211,-88.552299,169.282765
01264,214588,11.669817,-0.948922,0.602258,0.316288,0.009836,-0.189799,-0.937006,0.316786,-0.334077,-175.345428,-88.570840,173.556561
01265,214688,12.460311,-0.842320,1.362882,0.289698,0.062257,-0.195050,-0.936006,0.313805,-0.334729,-179.652579,-88.611734,178.031063
01266,214788,13.289996,-0.650029,2.385405,0.234854,0.177710,-0.194452,-0.938004,0.310847,-0.334882,175.567061,-88.710131,-177.052660
01267,214888,14.116617,-0.223018,3.198800,0.146988,0.355497,-0.174875,-0.932971,0.308421,-0.338006,169.628838,-88.900209,-171.028908
01268,214988,14.659712,0.498419,3.112685,0.042442,0.569830,-0.160203,-0.932938,0.306525,-0.340107,159.024722,-89.191930,-160.399036
01269,215088,14.725003,1.283558,2.067349,-0.036004,0.783678,-0.157693,-0.930313,0.308815,-0.347002,128.710052,-89.513333,-130.103262
01270,215188,14.391811,1.821455,0.577798,-0.047820,0.936860,-0.169750,-0.926677,0.304187,-0.355752,63.903592,-89.468738,-65.322165
01271,215288,13.897883,2.065821,-1.069796,-0.037547,0.999723,-0.197319,-0.922568,0.300973,-0.362925,36.155720,-88.999689,-37.593657
01272,215388,13.074314,1.728317,-2.585195,-0.036522,0.971727,-0.217851,-0.923493,0.299189,-0.367026,27.634664,-88.458716,-29.091544
01273,215488,11.639781,0.933171,-3.769386,-0.066403,0.781374,-0.223901,-0.916388,0.299914,-0.373996,24.909034,-87.999707,-26.402702
01274,215588,10.004645,0.091176,-4.479326,-0.145998,0.422748,-0.195591,-0.911382,0.298412,-0.375570,24.825382,-87.732439,-26.402698
01275,215688,8.896912,-0.295327,-3.870059,-0.262857,0.062642,-0.128736,-0.911422,0.296323,-0.373672,25.957325,-87.668232,-27.686273
01276,215788,8.263863,-0.138534,-2.554269,-0.323333,-0.155985,-0.064785,-0.914968,0.294739,-0.370750,27.607518,-87.731296,-29.523189
01277,215888,7.775853,0.475663,-1.821813,-0.327541,-0.283469,-0.034855,-0.913558,0.299457,-0.365498,29.917633,-87.864172,-32.022800
01278,215988,7.464083,1.206400,-1.449568,-0.257169,-0.383831,-0.037270,-0.914697,0.297118,-0.358103,33.526724,-88.040201,-35.781615
01279,216088,7.575074,1.857438,-1.067275,-0.157681,-0.425963,-0.063320,-0.913279,0.295905,-0.354155,38.758269,-88.216133,-41.106314
01280,216188,8.105399,2.200804,-0.705661,-0.071864,-0.374637,-0.101402,-0.911886,0.296115,-0.348631,44.943427,-88.337376,-47.335434
01281,216288,8.841752,2.133167,-0.687631,-0.016325,-0.274786,-0.120619,-0.912514,0.291326,-0.342362,50.676859,-88.391778,-53.080532
01282,216388,9.554705,1.726707,-1.155768,-0.002078,-0.204924,-0.127275,-0.913527,0.291792,-0.341337,55.631877,-88.403537,-58.038653
01283,216488,9.784043,1.181762,-1.576696,-0.039485,-0.194267,-0.112408,-0.911634,0.288032,-0.336517,60.263001,-88.407651,-62.694174
01284,216588,9.723910,0.328003,-1.612698,-0.091294,-0.164713,-0.056713,-0.913187,0.286416,-0.333595,63.812053,-88.422811,-66.296882
01285,216688,9.850992,-0.148120,-1.740408,-0.189953,-0.120549,0.009217,-0.908745,0.284256,-0.331696,65.956516,-88.456533,-68.550985
01286,216788,9.795646,-0.395701,-1.966016,-0.282668,-0.159045,0.074645,-0.910805,0.282624,-0.328274,68.401547,-88.530970,-71.158840
01287,216888,9.655854,-0.527441,-1.752856,-0.332443,-0.245651,0.138658,-0.905962,0.283180,-0.320724,72.577682,-88.652612,-75.526732
01288,216988,9.458197,-0.438807,-1.341039,-0.361924,-0.342769,0.190940,-0.908533,0.284996,-0.316125,79.851884,-88.805585,-83.010098
01289,217088,9.313882,-0.273408,-0.777675,-0.357254,-0.391339,0.217251,-0.905191,0.286548,-0.308026,90.591458,-88.948405,-93.956417
01290,217188,9.266338,0.014576,-0.444071,-0.302728,-0.386815,0.213194,-0.904747,0.287393,-0.304976,103.917436,-89.041470,-107.457875
01291,217288,9.209530,0.305449,-0.320969,-0.207685,-0.342342,0.183833,-0.906859,0.288107,-0.298428,117.267178,-89.070296,-120.928403
01292,217388,8.985226,0.416938,-0.262732,-0.093700,-0.288466,0.147843,-0.905409,0.289458,-0.295852,128.531135,-89.050416,-132.247543
01293,217488,8.677848,0.443434,-0.236148,-0.004483,-0.245722,0.116070,-0.902529,0.285658,-0.290532,137.285698,-89.001920,-141.005921
01294,217588,8.321451,0.473526,-0.222042,0.052033,-0.220859,0.099719,-0.905631,0.284420,-0.284585,144.241949,-88.938688,-147.933467
01295,217688,8.059356,0.488890,-0.223136,0.076268,-0.197988,0.096421,-0.905685,0.285272,-0.281536,149.939134,-88.872142,-153.587977
01296,217788,7.874181,0.540653,-0.287622,0.068131,-0.183785,0.102835,-0.904216,0.281214,-0.280739,154.949727,-88.804745,-158.560551
01297,217888,7.751503,0.594188,-0.371644,0.039944,-0.187553,0.110042,-0.903300,0.278016,-0.276893,159.589544,-88.728712,-163.178552
01298,217988,7.707907,0.614177,-0.356637,0.017647,-0.185835,0.118005,-0.901893,0.275783,-0.272496,163.843904,-88.647575,-167.423918
01299,218088,7.807458,0.546511,-0.373826,0.012252,-0.179713,0.127478,-0.901947,0.276635,-0.269446,167.776707,-88.564449,-171.350870
01300,218188,7.952057,0.336962,-0.389393,0.016841,-0.187307,0.140717,-0.900551,0.273381,-0.264600,171.572937,-88.472157,-175.138728
01301,218288,8.121638,0.083594,-0.312301,0.034803,-0.210904,0.150046,-0.901076,0.273815,-0.263075,175.162326,-88.360948,-178.709553
01302,218388,8.379866,-0.094320,-0.102192,0.052595,-0.227444,0.165732,-0.900660,0.269629,-0.259280,178.597405,-88.234957,177.883985
01303,218488,8.567788,-0.118022,-0.031318,0.074938,-0.239920,0.188422,-0.898191,0.272506,-0.257627,-178.034335,-88.096002,174.556937
01304,218588,8.682385,0.010191,-0.049594,0.099540,-0.233022,0.207128,-0.899285,0.269790,-0.252757,-174.807563,-87.954464,171.385291
01305,218688,8.679801,0.225334,-0.056004,0.117046,-0.220044,0.226675,-0.895839,0.267646,-0.250858,-171.675149,-87.813185,168.317822
