PacketCounter,SampleTimeFine,Acc_X,Acc_Y,Acc_Z,Gyr_X,Gyr_Y,Gyr_Z,Mag_X,Mag_Y,Mag_Z,Roll,Pitch,Yaw
01383,197858,9.736479,0.044019,1.782648,-0.035213,-0.047088,-0.010514,-0.436597,0.103423,-0.434082,-3.457597,-79.567885,3.400579
01384,197958,9.740004,-0.058845,1.801442,-0.027274,-0.036204,-0.015134,-0.436601,0.100931,-0.434209,-3.423842,-79.588796,3.350753
01385,198058,9.704420,-0.116887,1.772384,-0.030216,-0.015151,-0.020700,-0.437119,0.100393,-0.433235,-3.369164,-79.598353,3.278114
01386,198158,9.617771,-0.140074,1.748515,-0.040117,0.002101,-0.027549,-0.437071,0.101012,-0.435709,-3.296711,-79.597303,3.182274
01387,198258,9.629364,-0.083002,1.699576,-0.043832,0.009119,-0.030083,-0.435078,0.101478,-0.435683,-3.219074,-79.591572,3.078596
01388,198358,9.641852,0.004087,1.682275,-0.045489,0.008255,-0.027546,-0.437090,0.100964,-0.434709,-3.148413,-79.587409,2.981066
01389,198458,9.669502,0.115260,1.693648,-0.045748,-0.007572,-0.026554,-0.436630,0.100361,-0.432735,-3.082588,-79.592808,2.888011
01390,198558,9.707680,0.108860,1.733590,-0.035143,-0.032542,-0.021346,-0.440108,0.099942,-0.433261,-3.028273,-79.613354,2.813619
01391,198658,9.773853,0.069992,1.852645,-0.027737,-0.048599,-0.018891,-0.437580,0.099999,-0.435260,-2.981105,-79.641025,2.752330
01392,198758,9.791128,-0.027310,1.868069,-0.024337,-0.042913,-0.018544,-0.437089,0.101462,-0.434684,-2.935444,-79.665256,2.692551
01393,198858,9.743110,-0.092340,1.887241,-0.025319,-0.025881,-0.021773,-0.439054,0.101067,-0.436209,-2.875358,-79.679917,2.619048
01394,198958,9.673228,-0.096937,1.835822,-0.029888,-0.018326,-0.025097,-0.436156,0.102274,-0.431134,-2.810602,-79.691102,2.533359
01395,199058,9.673685,-0.050274,1.751683,-0.031809,-0.010231,-0.024054,-0.432144,0.101785,-0.432657,-2.749821,-79.695292,2.452704
01396,199158,9.632740,0.042830,1.728827,-0.029303,-0.010033,-0.026015,-0.433631,0.100836,-0.433209,-2.678254,-79.699802,2.364119
01397,199258,9.636222,0.114522,1.637097,-0.019080,-0.020730,-0.029181,-0.432137,0.100314,-0.433234,-2.592058,-79.709813,2.267413
01398,199358,9.652808,0.059273,1.646413,-0.005874,-0.031862,-0.033890,-0.433139,0.097340,-0.433386,-2.477495,-79.726646,2.153378
01399,199458,9.628808,-0.024068,1.735272,0.004547,-0.043928,-0.042398,-0.433626,0.098369,-0.433836,-2.334142,-79.750376,2.014926
01400,199558,9.664959,-0.164053,1.890649,0.004276,-0.062337,-0.050664,-0.432660,0.097284,-0.432387,-2.165109,-79.784783,1.850377
01401,199658,9.705048,-0.193318,2.056309,0.003480,-0.075575,-0.057437,-0.430628,0.098346,-0.434334,-1.980246,-79.824746,1.669630
01402,199758,9.725165,-0.134133,2.017204,0.025055,-0.078363,-0.063112,-0.432114,0.097895,-0.434860,-1.762828,-79.866458,1.469071
01403,199858,9.733682,-0.034751,1.832516,0.056835,-0.073196,-0.071801,-0.433650,0.095331,-0.432988,-1.491094,-79.906561,1.232745
01404,199958,9.683111,-0.070392,1.675657,0.075358,-0.051097,-0.073754,-0.431149,0.095814,-0.433462,-1.203924,-79.932342,0.990836
01405,200058,9.650779,-0.079672,1.640300,0.082485,-0.029147,-0.071740,-0.433181,0.094753,-0.431514,-0.914292,-79.947112,0.748862
01406,200158,9.576619,-0.021478,1.629996,0.077427,-0.020361,-0.062073,-0.429684,0.095220,-0.431988,-0.663359,-79.954775,0.542629
01407,200258,9.554104,0.069737,1.571470,0.059908,-0.034020,-0.058003,-0.429735,0.092110,-0.429641,-0.428602,-79.971267,0.343374
01408,200358,9.632170,0.196781,1.643336,0.044966,-0.066542,-0.066621,-0.430186,0.092737,-0.432115,-0.177325,-80.005145,0.119936
01409,200458,9.699848,0.246987,1.711005,0.027936,-0.086932,-0.070966,-0.427735,0.091604,-0.430165,0.079898,-80.050207,-0.120306
01410,200558,9.728465,0.233413,1.733839,0.017384,-0.092004,-0.069709,-0.426740,0.090592,-0.430216,0.329796,-80.097434,-0.358228
01411,200658,9.687773,0.131203,1.737671,0.025445,-0.096410,-0.085663,-0.425689,0.090223,-0.433240,0.637395,-80.145102,-0.646818
01412,200758,9.678594,0.018396,1.713997,0.037215,-0.088017,-0.086922,-0.428210,0.088695,-0.431817,0.962538,-80.189679,-0.947525
01413,200858,9.681415,-0.081694,1.769951,0.057932,-0.070395,-0.088160,-0.426264,0.088543,-0.429318,1.302088,-80.224557,-1.254493
01414,200958,9.636506,-0.188923,1.761962,0.077830,-0.051769,-0.092021,-0.427266,0.085570,-0.429471,1.671637,-80.249310,-1.578918
01415,201058,9.618571,-0.132199,1.752364,0.084689,-0.041989,-0.094089,-0.425263,0.086060,-0.429944,2.047110,-80.267975,-1.907079
01416,201158,9.600092,-0.079907,1.733793,0.073468,-0.031036,-0.087035,-0.424366,0.082316,-0.425124,2.397368,-80.282401,-2.219054
01417,201258,9.575310,0.016579,1.637167,0.059774,-0.027173,-0.074500,-0.425824,0.081938,-0.427149,2.696048,-80.295101,-2.486259
01418,201358,9.556274,0.126958,1.548017,0.055870,-0.033928,-0.060174,-0.424319,0.082935,-0.427597,2.942396,-80.312122,-2.704026
01419,201458,9.568195,0.122362,1.577283,0.055231,-0.038413,-0.051178,-0.422340,0.080388,-0.427224,3.160814,-80.332244,-2.893782
01420,201558,9.634428,0.158648,1.592348,0.061255,-0.035919,-0.047000,-0.424858,0.080853,-0.425700,3.368280,-80.351779,-3.070172
01421,201658,9.684599,0.105478,1.738437,0.066914,-0.021145,-0.042296,-0.419904,0.080702,-0.424199,3.559872,-80.362793,-3.227365
01422,201758,9.735878,0.156085,1.761228,0.078148,-0.011126,-0.047169,-0.420871,0.076330,-0.426427,3.773554,-80.367901,-3.399809
01423,201858,9.720436,0.235517,1.714990,0.082457,0.002669,-0.059557,-0.418896,0.077247,-0.425376,4.027696,-80.364594,-3.611259
01424,201958,9.669646,0.280329,1.638594,0.080905,0.007930,-0.067092,-0.422394,0.076282,-0.424928,4.304985,-80.357890,-3.847106
01425,202058,9.597188,0.340240,1.578345,0.074520,-0.007265,-0.065724,-0.419410,0.078701,-0.424300,4.577516,-80.359691,-4.081945
01426,202158,9.570230,0.351589,1.570373,0.057547,-0.016971,-0.058554,-0.418418,0.076194,-0.424427,4.819305,-80.367194,-4.295346
01427,202258,9.599582,0.378783,1.575362,0.042432,-0.020572,-0.049077,-0.418424,0.072706,-0.424605,5.022083,-80.377086,-4.477923
01428,202358,9.528492,0.345123,1.518034,0.032253,-0.023242,-0.027511,-0.419919,0.072730,-0.424605,5.147545,-80.389522,-4.588051
01429,202458,9.571575,0.327823,1.524326,0.017758,-0.023008,-0.012930,-0.418961,0.071622,-0.422657,5.215772,-80.402549,-4.648552
01430,202558,9.611960,0.291809,1.552546,0.010421,-0.018910,-0.001469,-0.417420,0.072217,-0.425130,5.239959,-80.413816,-4.668660
01431,202658,9.584834,0.292606,1.602381,0.013564,-0.019000,-0.001110,-0.416486,0.073527,-0.421555,5.264839,-80.425164,-4.687666
01432,202758,9.564873,0.346873,1.665616,0.019577,-0.026465,-0.009141,-0.421468,0.073108,-0.421582,5.322847,-80.440344,-4.736758
01433,202858,9.567321,0.389741,1.718022,0.022833,-0.037041,-0.013432,-0.416468,0.073077,-0.422580,5.400861,-80.461288,-4.804250
01434,202958,9.616590,0.430654,1.730026,0.015550,-0.042664,-0.010677,-0.418885,0.072811,-0.426604,5.467571,-80.485570,-4.864508
01435,203058,9.631218,0.429647,1.666980,0.002323,-0.047692,-0.001192,-0.414963,0.074074,-0.423028,5.496361,-80.513226,-4.894022
01436,203158,9.636069,0.406851,1.582021,-0.021853,-0.051272,0.014688,-0.415404,0.074724,-0.426002,5.458340,-80.543789,-4.869839
01437,203258,9.628368,0.434459,1.513891,-0.045767,-0.055217,0.021504,-0.416892,0.078235,-0.425824,5.384321,-80.576972,-4.823078
01438,203358,9.662095,0.494364,1.472190,-0.065821,-0.056863,0.019755,-0.418872,0.080284,-0.426223,5.305049,-80.610992,-4.782646
01439,203458,9.656819,0.500055,1.483063,-0.088941,-0.053657,0.015419,-0.415338,0.080848,-0.428696,5.226176,-80.642937,-4.756046
01440,203558,9.606464,0.509650,1.458650,-0.099225,-0.056176,0.010352,-0.422316,0.083426,-0.428071,5.159568,-80.676070,-4.747875
01441,203658,9.586675,0.466518,1.475224,-0.102876,-0.068240,0.006684,-0.416878,0.086207,-0.425418,5.107245,-80.715885,-4.756311
01442,203758,9.611122,0.366356,1.563185,-0.104110,-0.088455,0.001474,-0.421346,0.084334,-0.426521,5.078752,-80.766974,-4.789583
01443,203858,9.672990,0.219380,1.642325,-0.092782,-0.099428,-0.004561,-0.424326,0.089363,-0.426268,5.081487,-80.824014,-4.847957
01444,203958,9.703188,0.142182,1.697856,-0.075187,-0.102346,-0.010142,-0.423380,0.087234,-0.423870,5.115518,-80.882419,-4.927768
01445,204058,9.709171,0.132765,1.642775,-0.057105,-0.098783,-0.015976,-0.428379,0.087763,-0.422846,5.180349,-80.938483,-5.028279
01446,204158,9.669139,0.108363,1.577768,-0.051474,-0.090878,-0.023738,-0.429884,0.086766,-0.422398,5.274706,-80.989597,-5.155389
01447,204258,9.702099,0.079047,1.492234,-0.052464,-0.086894,-0.028108,-0.429925,0.089635,-0.419746,5.384056,-81.038175,-5.298285
01448,204358,9.751817,0.029088,1.473155,-0.052021,-0.091311,-0.030275,-0.434930,0.086677,-0.418901,5.504550,-81.089125,-5.452101
01449,204458,9.819331,-0.006780,1.502658,-0.049639,-0.106164,-0.029900,-0.435945,0.086645,-0.417901,5.631818,-81.148505,-5.611387
01450,204558,9.892595,0.017093,1.594551,-0.041728,-0.120433,-0.029364,-0.437476,0.087070,-0.415877,5.768791,-81.215999,-5.775901
01451,204658,9.887524,0.037491,1.692665,-0.024299,-0.125961,-0.034191,-0.439435,0.090163,-0.417225,5.937933,-81.286267,-5.962893
01452,204758,9.844913,0.005858,1.769954,-0.003789,-0.115891,-0.045590,-0.438976,0.089063,-0.415276,6.160411,-81.349998,-6.191852
01453,204858,9.683504,0.110942,1.750197,0.011099,-0.092294,-0.058440,-0.440931,0.094647,-0.416497,6.432708,-81.399317,-6.462757
01454,204958,9.571575,0.340669,1.551182,0.017239,-0.066751,-0.071282,-0.442856,0.096342,-0.419920,6.748835,-81.433003,-6.774357
01455,205058,9.598966,0.648647,1.384258,0.002721,-0.058812,-0.074116,-0.438322,0.098882,-0.422291,7.065894,-81.461616,-7.095338
01456,205158,9.619678,0.787694,1.258705,-0.031082,-0.073965,-0.068525,-0.440839,0.099348,-0.420766,7.352458,-81.499099,-7.405046
01457,205258,9.665451,0.728099,1.316003,-0.076818,-0.116826,-0.063490,-0.441282,0.104459,-0.423012,7.617743,-81.561045,-7.719935
01458,205358,9.758800,0.540106,1.476318,-0.108983,-0.151515,-0.049126,-0.443309,0.105888,-0.420937,7.832343,-81.643667,-8.002144
01459,205458,9.781612,0.400668,1.546116,-0.110762,-0.170019,-0.036093,-0.445767,0.108491,-0.422310,8.010254,-81.737652,-8.248231
01460,205558,9.740870,0.199170,1.467979,-0.097182,-0.151907,-0.029774,-0.447238,0.111054,-0.423183,8.165530,-81.821747,-8.463511
01461,205658,9.662071,-0.032199,1.385048,-0.080890,-0.114052,-0.026304,-0.447717,0.111609,-0.424157,8.298261,-81.884558,-8.646356
01462,205758,9.500267,-0.147938,1.294642,-0.071616,-0.069798,-0.019325,-0.449236,0.113553,-0.422557,8.384585,-81.922880,-8.776960
01463,205858,9.398821,-0.142123,1.236477,-0.065248,-0.046401,-0.019336,-0.451677,0.115208,-0.424980,8.461575,-81.947899,-8.894331
01464,205958,9.361956,0.010854,1.212888,-0.049668,-0.063493,-0.022881,-0.454641,0.118791,-0.425803,8.572579,-81.982298,-9.037063
01465,206058,9.378187,0.375846,1.231308,-0.030170,-0.115836,-0.029710,-0.453125,0.120310,-0.426726,8.756143,-82.045664,-9.241664
01466,206158,9.586621,0.668107,1.329420,-0.020809,-0.169633,-0.033590,-0.456079,0.124416,-0.428023,8.999104,-82.139046,-9.500793
01467,206258,9.847909,0.734138,1.399197,-0.022048,-0.201468,-0.036800,-0.455062,0.125943,-0.428946,9.282551,-82.249960,-9.801397
01468,206358,10.011237,0.633214,1.395132,-0.021981,-0.211651,-0.039723,-0.458993,0.130112,-0.431243,9.594249,-82.366143,-10.130403
01469,206458,10.063546,0.375026,1.369850,-0.019965,-0.202876,-0.042654,-0.456995,0.133568,-0.431065,9.922979,-82.476831,-10.475336
01470,206558,10.002048,0.084603,1.356169,-0.013452,-0.187441,-0.043306,-0.461969,0.137135,-0.430889,10.256110,-82.578483,-10.820852
01471,206658,9.855864,-0.047802,1.361703,-0.025320,-0.155093,-0.041994,-0.459430,0.138710,-0.433311,10.559383,-82.661786,-11.143030
01472,206758,9.630645,-0.017953,1.231759,-0.049804,-0.115284,-0.039199,-0.463379,0.143330,-0.434583,10.809535,-82.722774,-11.425735
01473,206858,9.398210,0.201612,1.059232,-0.075606,-0.105166,-0.028318,-0.460833,0.142937,-0.437606,10.992210,-82.779118,-11.655279
01474,206958,9.329910,0.487731,1.023214,-0.094678,-0.133639,-0.009879,-0.460811,0.150434,-0.437725,11.109856,-82.853425,-11.830269
01475,207058,9.396540,0.785722,1.071834,-0.105638,-0.184583,0.009174,-0.463273,0.156003,-0.438446,11.183957,-82.958439,-11.967689
01476,207158,9.581176,0.877927,1.143041,-0.105492,-0.228372,0.020835,-0.461267,0.158486,-0.438818,11.248111,-83.089331,-12.094991
01477,207258,9.863255,0.749749,1.171067,-0.097310,-0.241863,0.027770,-0.460741,0.163509,-0.439564,11.300917,-83.228556,-12.206123
01478,207358,10.022312,0.570786,1.238227,-0.078120,-0.241542,0.034184,-0.460716,0.167044,-0.440385,11.337092,-83.368299,-12.289421
01479,207458,10.003026,0.284276,1.167357,-0.051956,-0.215655,0.028388,-0.461217,0.170516,-0.439708,11.393770,-83.492836,-12.378248
01480,207558,9.832284,-0.082904,1.140617,-0.035248,-0.163654,0.011889,-0.460189,0.173064,-0.441080,11.492402,-83.586282,-12.499632
01481,207658,9.653444,-0.224208,1.076915,-0.044781,-0.113770,-0.000083,-0.458677,0.177548,-0.441350,11.597191,-83.650332,-12.632673
01482,207758,9.542550,0.021099,1.006974,-0.074106,-0.094832,-0.010576,-0.457177,0.180514,-0.441198,11.720736,-83.702514,-12.801466
01483,207858,9.556373,0.428691,0.984738,-0.107950,-0.107548,-0.010463,-0.453181,0.181969,-0.441620,11.840440,-83.761801,-12.985889
01484,207958,9.591822,0.865670,0.909855,-0.140114,-0.136661,0.008119,-0.452148,0.186509,-0.442891,11.880484,-83.839566,-13.108718
01485,208058,9.638238,1.165044,0.810072,-0.165168,-0.180593,0.026107,-0.448195,0.189339,-0.440737,11.862807,-83.944077,-13.187942
01486,208158,9.722359,1.256084,0.719326,-0.193446,-0.230808,0.036583,-0.448697,0.192312,-0.440085,11.830966,-84.077980,-13.269234
01487,208258,9.875469,1.104380,0.861194,-0.207210,-0.264742,0.036294,-0.445731,0.195680,-0.438407,11.833916,-84.230872,-13.393436
01488,208358,9.929474,0.819352,1.019319,-0.196657,-0.282890,0.032411,-0.441262,0.198052,-0.437279,11.890784,-84.393461,-13.565734
01489,208458,9.908046,0.456415,1.046217,-0.173307,-0.270794,0.032960,-0.438334,0.200327,-0.433653,11.949794,-84.549304,-13.726709
01490,208558,9.799740,0.070723,1.013565,-0.150606,-0.247947,0.033413,-0.435890,0.205126,-0.430399,11.996086,-84.692373,-13.861802
01491,208658,9.744899,-0.206121,0.855962,-0.142304,-0.224846,0.029518,-0.435474,0.205898,-0.425850,12.045344,-84.822026,-13.995052
01492,208758,9.714264,-0.318556,0.763045,-0.144810,-0.211534,0.032431,-0.429492,0.208792,-0.425696,12.060827,-84.944573,-14.095789
01493,208858,9.612287,-0.245647,0.763458,-0.159165,-0.205935,0.043651,-0.429586,0.207555,-0.420748,11.989892,-85.065333,-14.117997
01494,208958,9.543769,0.045003,0.754337,-0.176833,-0.221386,0.057197,-0.425175,0.208786,-0.416672,11.838798,-85.196362,-14.069908
01495,209058,9.575984,0.457284,0.799084,-0.180643,-0.244718,0.069750,-0.423276,0.208513,-0.411674,11.626984,-85.341921,-13.963102
01496,209158,9.661680,0.744482,0.847020,-0.169842,-0.266539,0.074631,-0.418307,0.211874,-0.410495,11.408286,-85.500238,-13.843228
01497,209258,9.792410,0.781250,0.861351,-0.152003,-0.274934,0.076104,-0.418874,0.209720,-0.407098,11.189496,-85.663382,-13.713061
01498,209358,9.919284,0.683147,0.844382,-0.150541,-0.263801,0.069510,-0.415475,0.206957,-0.402725,10.992343,-85.819486,-13.603802
01499,209458,9.946760,0.510519,0.747531,-0.169481,-0.237076,0.058827,-0.416580,0.208178,-0.396652,10.816870,-85.959358,-13.527194
01500,209558,9.851512,0.305355,0.655729,-0.195429,-0.198972,0.046518,-0.413661,0.205471,-0.393279,10.659364,-86.076446,-13.483517
01501,209658,9.810986,0.185911,0.495942,-0.218872,-0.176949,0.043640,-0.415761,0.202747,-0.387909,10.471690,-86.180822,-13.423072
01502,209758,9.802433,0.160327,0.412894,-0.226024,-0.182749,0.045143,-0.412880,0.199445,-0.382563,10.268976,-86.288616,-13.351666
01503,209858,9.765372,0.195298,0.464340,-0.225124,-0.215707,0.049993,-0.415940,0.200794,-0.378489,10.067887,-86.415475,-13.281381
01504,209958,9.790809,0.137345,0.573371,-0.208035,-0.248470,0.051134,-0.414996,0.197669,-0.376142,9.909846,-86.560916,-13.244428
01505,210058,9.776432,0.084802,0.659120,-0.184286,-0.268326,0.052352,-0.417112,0.195893,-0.369722,9.778746,-86.717672,-13.220839
01506,210158,9.801427,0.016745,0.661591,-0.159325,-0.270012,0.051090,-0.417756,0.192052,-0.362403,9.670329,-86.875246,-13.205646
01507,210258,9.746600,-0.019536,0.641867,-0.141307,-0.261821,0.046538,-0.417344,0.190332,-0.357980,9.600088,-87.027747,-13.218344
01508,210358,9.708732,-0.057885,0.589081,-0.133146,-0.243660,0.042464,-0.415910,0.187673,-0.355108,9.542734,-87.169594,-13.239258
01509,210458,9.753460,-0.060495,0.461779,-0.115601,-0.213597,0.038863,-0.417976,0.188010,-0.351085,9.476160,-87.294113,-13.240869
01510,210558,9.816624,-0.006485,0.370789,-0.101373,-0.187681,0.035463,-0.417526,0.187384,-0.348611,9.403174,-87.403669,-13.227895
01511,210658,9.895330,0.044496,0.316562,-0.095920,-0.187150,0.032753,-0.417560,0.183824,-0.347290,9.363536,-87.512676,-13.245172
01512,210758,10.013953,0.121503,0.339499,-0.087431,-0.186963,0.032604,-0.418621,0.183671,-0.343791,9.329373,-87.621567,-13.263060
01513,210858,9.980453,0.199601,0.412378,-0.090602,-0.190713,0.030891,-0.417653,0.183583,-0.342291,9.325822,-87.732416,-13.313406
01514,210958,9.902560,0.218758,0.470806,-0.106026,-0.205917,0.029137,-0.417677,0.185504,-0.340690,9.379814,-87.851688,-13.430184
01515,211058,9.866884,0.267286,0.494636,-0.111159,-0.216749,0.027431,-0.417722,0.186380,-0.338140,9.497142,-87.976903,-13.613281
01516,211158,9.844441,0.298468,0.458596,-0.103604,-0.210992,0.023239,-0.417726,0.189345,-0.337488,9.693588,-88.098435,-13.871210
01517,211258,9.769825,0.261251,0.349036,-0.093782,-0.199280,0.018848,-0.418773,0.187248,-0.335091,9.969272,-88.212883,-14.202776
01518,211358,9.727091,0.161147,0.275820,-0.081936,-0.187173,0.013189,-0.417293,0.189169,-0.333990,10.359873,-88.319866,-14.642503
01519,211458,9.739510,0.078164,0.255491,-0.067994,-0.177632,0.011541,-0.418835,0.188574,-0.331517,10.811316,-88.421201,-15.135082
01520,211558,9.772183,-0.039324,0.248741,-0.057578,-0.172298,0.016979,-0.418861,0.189498,-0.329966,11.191629,-88.520028,-15.550507
01521,211658,9.790660,-0.066915,0.213559,-0.050705,-0.182258,0.024500,-0.417894,0.188911,-0.328492,11.504477,-88.625232,-15.894481
01522,211758,9.863373,-0.045253,0.248785,-0.049769,-0.194458,0.032338,-0.419402,0.191378,-0.327366,11.737557,-88.738144,-16.158110
01523,211858,9.909605,0.003483,0.331655,-0.051841,-0.196169,0.038134,-0.420893,0.188437,-0.328018,11.865692,-88.852669,-16.317945
01524,211958,9.921775,0.038289,0.349980,-0.058496,-0.188412,0.041058,-0.421950,0.190775,-0.324393,11.879483,-88.963176,-16.367223
01525,212058,9.903624,0.052364,0.281934,-0.066272,-0.168432,0.041020,-0.420996,0.192631,-0.321792,11.752509,-89.062466,-16.280171
01526,212158,9.820542,0.056783,0.236523,-0.077406,-0.146499,0.039908,-0.422035,0.190060,-0.319920,11.464598,-89.149307,-16.038544
01527,212258,9.748208,0.099298,0.188949,-0.082161,-0.133617,0.039293,-0.424063,0.190493,-0.317896,11.033206,-89.228811,-15.656154
01528,212358,9.728203,0.154506,0.134884,-0.078217,-0.126019,0.038356,-0.426110,0.191377,-0.314847,10.488737,-89.303886,-15.158427
01529,212458,9.756571,0.167252,0.110033,-0.070247,-0.124557,0.036182,-0.425678,0.190204,-0.311399,9.923207,-89.377848,-14.635083
01530,212558,9.801468,0.099025,0.097042,-0.057617,-0.123203,0.035338,-0.425687,0.190678,-0.310874,9.255234,-89.450894,-14.002063
01531,212658,9.834667,0.028586,0.125430,-0.043176,-0.122117,0.039561,-0.425754,0.189513,-0.307426,8.097235,-89.523578,-12.870729
01532,212758,9.915387,0.031555,0.139444,-0.037292,-0.121824,0.042491,-0.426302,0.187408,-0.305029,6.291598,-89.596020,-11.088377
01533,212858,9.935835,0.020435,0.171687,-0.045159,-0.120278,0.041020,-0.428817,0.189368,-0.303429,3.834785,-89.666946,-8.659359
01534,212958,9.869756,0.026899,0.206775,-0.050929,-0.114510,0.042040,-0.429349,0.185816,-0.302107,-0.063622,-89.733626,-4.792051
01535,213058,9.803846,0.073752,0.166964,-0.050288,-0.110933,0.041130,-0.427882,0.186218,-0.300582,-6.287331,-89.796288,1.400923
01536,213158,9.753487,0.110945,0.031619,-0.051103,-0.105475,0.036791,-0.426917,0.184636,-0.299158,-16.435125,-89.852247,11.517508
01537,213258,9.698307,0.086861,-0.075989,-0.057293,-0.103502,0.030307,-0.428466,0.185013,-0.296135,-35.046451,-89.899767,30.094073
01538,213358,9.700705,0.097660,-0.136241,-0.059873,-0.119370,0.030731,-0.428966,0.184025,-0.296186,-79.750799,-89.925291,74.762186
01539,213458,9.745297,0.098821,-0.111127,-0.058633,-0.132472,0.028120,-0.427507,0.184901,-0.294135,-125.616734,-89.891831,120.592600
01540,213558,9.833758,0.082469,-0.058675,-0.054537,-0.132842,0.026972,-0.429019,0.185375,-0.293111,-143.919546,-89.827396,138.862238
01541,213658,9.882072,0.024662,0.021902,-0.048563,-0.133474,0.025122,-0.429534,0.186331,-0.292060,-152.157934,-89.755315,147.070876
01542,213758,9.924356,0.000732,0.081582,-0.048559,-0.133435,0.024948,-0.430014,0.185889,-0.293086,-156.618125,-89.680569,151.501319
01543,213858,9.932724,-0.030797,0.127500,-0.051754,-0.127796,0.023071,-0.428592,0.186669,-0.289036,-159.363279,-89.608044,154.214893
01544,213958,9.923167,-0.025718,0.128062,-0.055263,-0.123085,0.021823,-0.428105,0.186139,-0.288561,-161.230295,-89.537703,156.048318
01545,214058,9.863755,-0.040025,0.104800,-0.057710,-0.111871,0.020043,-0.429625,0.187087,-0.287011,-162.504567,-89.473451,157.287594
01546,214158,9.861702,-0.022631,0.037922,-0.060494,-0.096652,0.017620,-0.429646,0.185544,-0.286088,-163.392966,-89.417762,158.139396
01547,214258,9.814371,-0.020071,-0.072484,-0.065227,-0.076129,0.018354,-0.432669,0.187488,-0.283988,-163.800220,-89.373146,158.507324
01548,214358,9.786315,0.008826,-0.179793,-0.072460,-0.052717,0.018646,-0.433711,0.182425,-0.282243,-163.826784,-89.341348,158.490399
01549,214458,9.796237,0.058389,-0.294540,-0.076759,-0.045432,0.020053,-0.431686,0.184957,-0.283615,-163.693922,-89.313323,158.311575
01550,214558,9.795123,0.148630,-0.249556,-0.078176,-0.056750,0.022052,-0.435219,0.185390,-0.281092,-163.633234,-89.278746,158.204115
01551,214658,9.817476,0.157688,-0.177918,-0.081610,-0.075236,0.024091,-0.432286,0.185198,-0.278092,-163.722988,-89.233676,158.245136
01552,214758,9.863543,0.098619,-0.069842,-0.079055,-0.088602,0.022588,-0.435308,0.187640,-0.275967,-164.011744,-89.181492,158.486639
01553,214858,9.918768,0.025232,0.005474,-0.078555,-0.090775,0.020583,-0.436326,0.185615,-0.275069,-164.363094,-89.128415,158.791031
01554,214958,9.947786,-0.055635,-0.001104,-0.076371,-0.079294,0.012100,-0.435813,0.188620,-0.275416,-164.859074,-89.082945,159.241328
01555,215058,9.957787,-0.054812,-0.027868,-0.072948,-0.059513,0.006043,-0.438821,0.188619,-0.274418,-165.336711,-89.049269,159.675248
01556,215158,9.888986,-0.036788,-0.065542,-0.074686,-0.045656,0.000836,-0.435843,0.187551,-0.273968,-165.838881,-89.023971,160.132714
01557,215258,9.829185,-0.008547,-0.136016,-0.071636,-0.030819,-0.001808,-0.437355,0.188025,-0.272943,-166.283494,-89.007228,160.534367
01558,215358,9.795750,-0.016275,-0.208428,-0.071081,-0.016476,-0.005364,-0.436371,0.191449,-0.271765,-166.718754,-88.998896,160.926990
01559,215458,9.790060,-0.072743,-0.265855,-0.070107,-0.003983,-0.006102,-0.436854,0.189512,-0.272867,-167.078657,-88.997579,161.244808
01560,215558,9.815393,-0.058127,-0.279329,-0.071293,0.002402,-0.002688,-0.439840,0.186096,-0.273545,-167.283096,-88.999360,161.406465
01561,215658,9.827983,-0.035616,-0.273150,-0.066896,-0.000956,-0.002459,-0.434869,0.190453,-0.272316,-167.502012,-88.999218,161.585126
01562,215758,9.856187,-0.019392,-0.172305,-0.058648,-0.008589,-0.001940,-0.438854,0.190516,-0.272317,-167.752431,-88.994728,161.800025
01563,215858,9.888583,-0.004641,-0.061409,-0.056132,-0.021639,-0.001869,-0.437860,0.189504,-0.272367,-168.084559,-88.982905,162.098088
01564,215958,9.994307,-0.002878,-0.027124,-0.050902,-0.022364,0.000840,-0.439860,0.190508,-0.271817,-168.326259,-88.970340,162.308708
01565,216058,9.971196,0.035240,-0.011825,-0.043489,-0.005772,0.003490,-0.437837,0.192043,-0.273240,-168.370950,-88.966780,162.326534
01566,216158,9.893380,-0.014915,-0.078156,-0.048146,0.011470,0.003680,-0.440802,0.189672,-0.274867,-168.301125,-88.972878,162.227158
01567,216258,9.865414,-0.047465,-0.174344,-0.048925,0.027423,0.006344,-0.437831,0.190074,-0.273841,-168.040232,-88.987604,161.936243
01568,216358,9.798315,-0.077178,-0.140723,-0.056788,0.041028,0.006329,-0.439336,0.189576,-0.273367,-167.680180,-89.009924,161.541654
01569,216458,9.730321,-0.141816,-0.223525,-0.061507,0.041542,0.007161,-0.437840,0.190548,-0.273316,-167.273474,-89.032376,161.097713
01570,216558,9.733313,-0.127352,-0.180169,-0.062615,0.034573,0.012940,-0.440757,0.194252,-0.276638,-166.707066,-89.050125,160.493423
01571,216658,9.817236,-0.068352,-0.141172,-0.048573,0.034736,0.020816,-0.438730,0.192822,-0.278713,-165.839623,-89.066766,159.596112
01572,216758,9.873399,0.000818,-0.190766,-0.038552,0.040299,0.027521,-0.437696,0.192903,-0.280712,-164.650216,-89.085243,158.382544
01573,216858,9.915109,0.060567,-0.169143,-0.032968,0.039782,0.031420,-0.437191,0.196881,-0.280508,-163.277475,-89.102375,156.988826
01574,216958,9.923464,0.125128,-0.046917,-0.031758,0.033904,0.033791,-0.438617,0.199066,-0.283906,-161.835736,-89.115350,155.526797
01575,217058,9.860513,0.136639,0.038748,-0.031110,0.032912,0.031645,-0.440131,0.198045,-0.282957,-160.440226,-89.127629,154.111372
01576,217158,9.774563,0.105785,0.030597,-0.030751,0.026659,0.025185,-0.440091,0.199636,-0.284880,-159.320111,-89.137349,152.971579
01577,217258,9.741084,0.054437,0.001768,-0.030759,0.020087,0.016388,-0.439112,0.200568,-0.283829,-158.582056,-89.145093,152.213885
01578,217358,9.753102,0.020906,-0.056763,-0.030245,0.017250,0.010639,-0.442057,0.199242,-0.286406,-158.077695,-89.152423,151.690207
01579,217458,9.727760,0.052834,-0.106461,-0.026583,0.022254,0.005184,-0.444560,0.202721,-0.285229,-157.685248,-89.163527,151.280554
01580,217558,9.739521,0.107811,-0.164939,-0.021482,0.029355,0.004191,-0.441526,0.202295,-0.287753,-157.206441,-89.178562,150.787453
01581,217658,9.808025,0.076264,-0.200754,-0.015080,0.031743,0.003828,-0.440517,0.203798,-0.288176,-156.681238,-89.194871,150.251622
01582,217758,9.854466,0.001324,-0.157481,-0.017371,0.030983,0.005093,-0.440971,0.202930,-0.290726,-156.100137,-89.210415,149.658579
01583,217858,9.920062,-0.076164,-0.043083,-0.020088,0.026104,0.012014,-0.440508,0.203822,-0.288676,-155.316355,-89.221682,148.861284
01584,217958,9.949934,-0.111706,0.065412,-0.029326,0.023605,0.018647,-0.441995,0.202874,-0.289227,-154.304633,-89.229871,147.830741
01585,218058,9.920039,-0.143795,0.128260,-0.039578,0.027186,0.023264,-0.445985,0.205404,-0.288601,-153.028915,-89.238454,146.530310
01586,218158,9.841147,-0.088499,0.126267,-0.040949,0.032359,0.027787,-0.443985,0.203902,-0.289176,-151.443534,-89.248025,144.919408
01587,218258,9.800923,-0.005851,0.094966,-0.035223,0.036588,0.031111,-0.445509,0.203355,-0.287703,-149.593239,-89.258138,143.046854
01588,218358,9.783606,0.098033,0.030344,-0.033496,0.042891,0.032538,-0.445994,0.205380,-0.288101,-147.486867,-89.270066,140.919192
01589,218458,9.774398,0.126103,-0.058363,-0.035605,0.060183,0.026504,-0.447515,0.206328,-0.286551,-145.088784,-89.291081,138.498591
01590,218558,9.775386,0.168319,-0.095286,-0.034065,0.060221,0.025670,-0.446005,0.204360,-0.287652,-142.578485,-89.311082,135.966652
01591,218658,9.813581,0.160266,-0.094994,-0.037537,0.057409,0.022211,-0.450506,0.204881,-0.286629,-140.143913,-89.329716,133.508462
01592,218758,9.858183,0.051826,-0.080160,-0.040292,0.054249,0.021631,-0.452435,0.204084,-0.290179,-137.704746,-89.345950,131.044106
01593,218858,9.884089,-0.051759,-0.021176,-0.048649,0.048410,0.024434,-0.453514,0.204382,-0.285655,-135.259094,-89.357424,128.568485
01594,218958,9.869957,-0.166129,0.056338,-0.049592,0.044537,0.029061,-0.454996,0.206422,-0.286054,-132.713207,-89.364215,125.992093
01595,219058,9.866154,-0.191481,0.098348,-0.045390,0.048725,0.031591,-0.455033,0.206326,-0.284055,-129.861749,-89.370139,123.112529
01596,219158,9.833511,-0.139886,0.111790,-0.040530,0.054556,0.031176,-0.454487,0.206937,-0.286528,-126.727129,-89.376652,119.952578
01597,219258,9.763666,-0.073728,0.112257,-0.033863,0.063693,0.028986,-0.459023,0.208358,-0.283455,-123.189021,-89.385176,116.392942
01598,219358,9.723532,-0.036514,0.097588,-0.027842,0.066119,0.024864,-0.459464,0.209507,-0.286403,-119.557120,-89.394023,112.742963
01599,219458,9.722933,0.028674,0.095696,-0.022878,0.064802,0.021031,-0.460545,0.208808,-0.281930,-115.986253,-89.402008,109.156870
01600,219558,9.756450,0.055917,0.112468,-0.022035,0.068898,0.020845,-0.459512,0.208390,-0.283955,-112.125778,-89.408597,105.281637
01601,219658,9.831593,0.036945,0.125536,-0.031353,0.077173,0.020179,-0.459514,0.207394,-0.284005,-107.772254,-89.414273,100.907992
01602,219758,9.862742,-0.041165,0.107027,-0.041569,0.075842,0.024625,-0.461543,0.207827,-0.281981,-103.379705,-89.413847,96.489469
01603,219858,9.892149,-0.092553,0.077651,-0.052989,0.068787,0.030911,-0.464011,0.209908,-0.282880,-99.355830,-89.405771,92.433095
01604,219958,9.854245,-0.112103,0.112276,-0.063440,0.061295,0.037006,-0.465005,0.211418,-0.282804,-95.835146,-89.390930,88.873945
01605,220058,9.814872,-0.089430,0.152500,-0.065182,0.052728,0.040404,-0.464012,0.209409,-0.282906,-92.934627,-89.371702,85.933990
01606,220158,9.805873,-0.075883,0.170695,-0.058272,0.043950,0.037298,-0.464031,0.209361,-0.281906,-90.655067,-89.352682,83.618981
01607,220258,9.811317,-0.056358,0.166345,-0.044875,0.039987,0.034268,-0.467528,0.208894,-0.281433,-88.693006,-89.334470,81.629159
01608,220358,9.817106,-0.013711,0.144679,-0.036127,0.038554,0.029140,-0.467045,0.210831,-0.280331,-86.887916,-89.318489,79.801324
01609,220458,9.817207,0.006657,0.111331,-0.028982,0.045670,0.026776,-0.467039,0.208862,-0.280933,-84.819896,-89.302849,77.714624
01610,220558,9.780999,0.051134,0.089041,-0.029048,0.050869,0.022680,-0.467562,0.210791,-0.279332,-82.583695,-89.288289,75.459683
01611,220658,9.764779,0.052712,0.066818,-0.034253,0.050252,0.019967,-0.470077,0.207295,-0.278511,-80.450436,-89.274279,73.304700
01612,220758,9.770680,0.102453,0.064833,-0.046816,0.035279,0.022050,-0.468611,0.206700,-0.277036,-79.077029,-89.259809,71.902418
01613,220858,9.762352,0.139902,0.141488,-0.064070,0.026030,0.024521,-0.470653,0.205117,-0.274614,-78.182270,-89.244654,70.968927
01614,220958,9.771650,0.097780,0.182574,-0.077409,0.025193,0.021160,-0.469148,0.206114,-0.275063,-77.333783,-89.231306,70.074059
01615,221058,9.800965,-0.007549,0.190853,-0.086432,0.037134,0.018329,-0.472630,0.203702,-0.275691,-76.004710,-89.217736,68.693385
01616,221158,9.785280,-0.159918,0.154805,-0.091777,0.051682,0.013883,-0.473166,0.203115,-0.273717,-74.098186,-89.203947,66.732141
01617,221258,9.746252,-0.235506,0.139446,-0.099763,0.060646,0.011720,-0.473162,0.205606,-0.273590,-71.891766,-89.188867,64.466396
01618,221358,9.692134,-0.245373,0.143720,-0.109120,0.051743,0.012263,-0.477190,0.202086,-0.271770,-70.114745,-89.174047,62.624732
01619,221458,9.766605,-0.185866,0.162674,-0.109003,0.038587,0.014693,-0.475240,0.204425,-0.269143,-68.915730,-89.159873,61.361200
01620,221558,9.798766,-0.066830,0.181605,-0.101833,0.039771,0.015304,-0.474733,0.203943,-0.269668,-67.720408,-89.144741,60.105464
01621,221658,9.772146,0.104083,0.137834,-0.099785,0.035987,0.013343,-0.475721,0.203484,-0.270194,-66.668142,-89.131131,58.993963
01622,221758,9.786705,0.200428,0.099536,-0.096530,0.032532,0.002172,-0.476793,0.202810,-0.266221,-65.592325,-89.123881,57.860760
01623,221858,9.785412,0.172035,0.124616,-0.095825,0.030739,-0.007382,-0.478813,0.202769,-0.264722,-64.440807,-89.121704,56.652241
01624,221958,9.810536,0.058151,0.165424,-0.103882,0.026073,-0.011852,-0.476855,0.204136,-0.262646,-63.380384,-89.122650,55.530206
01625,222058,9.849896,-0.054285,0.222490,-0.111319,0.022353,-0.010427,-0.480330,0.205710,-0.263071,-62.469935,-89.123539,54.553899
01626,222158,9.835638,-0.113871,0.212099,-0.112867,0.031049,-0.007711,-0.479863,0.203637,-0.261673,-61.321399,-89.120434,53.338592
01627,222258,9.733049,-0.151151,0.119896,-0.111683,0.043646,-0.007731,-0.482397,0.205549,-0.259073,-59.776195,-89.113346,51.727250
01628,222358,9.656446,-0.142072,0.054173,-0.111704,0.047774,-0.007179,-0.483951,0.202937,-0.256202,-58.139547,-89.104077,50.024442
01629,222458,9.630319,-0.087121,0.066216,-0.104448,0.039475,-0.006838,-0.484982,0.204849,-0.254101,-56.792739,-89.096513,48.615668
01630,222558,9.643307,-0.042469,0.123087,-0.091959,0.017665,-0.005485,-0.488483,0.201891,-0.253755,-56.141487,-89.094821,47.909690
01631,222658,9.711991,-0.054979,0.161296,-0.081297,-0.003093,-0.007981,-0.490542,0.201256,-0.250282,-56.059176,-89.100875,47.778835
01632,222758,9.831410,-0.132942,0.215886,-0.075174,-0.021582,-0.008326,-0.494042,0.198796,-0.249910,-56.531477,-89.112972,48.206168
01633,222858,9.933554,-0.206962,0.201930,-0.065719,-0.018171,-0.004407,-0.497575,0.198731,-0.247412,-56.983660,-89.122054,48.618803
01634,222958,9.961579,-0.270293,0.149668,-0.051381,-0.004097,-0.000818,-0.498086,0.196722,-0.247015,-57.064502,-89.124980,48.668276
01635,223058,9.859787,-0.287056,0.078279,-0.046370,0.018039,0.004474,-0.500646,0.189143,-0.244398,-56.558150,-89.118417,48.133368
01636,223158,9.710655,-0.255413,0.000591,-0.044869,0.025258,0.001872,-0.503168,0.192574,-0.242221,-55.784786,-89.110691,47.332286
01637,223258,9.628057,-0.171765,0.049740,-0.045941,0.018271,0.001920,-0.504710,0.186523,-0.240527,-55.237143,-89.105062,46.756340
01638,223358,9.649240,-0.081807,0.145416,-0.049603,0.002118,-0.000252,-0.507710,0.190508,-0.239325,-55.136297,-89.105686,46.625150
01639,223458,9.714098,-0.025486,0.231605,-0.052354,-0.016319,-0.004344,-0.512193,0.185621,-0.240081,-55.509328,-89.114250,46.966314
01640,223558,9.848212,0.009753,0.274445,-0.055291,-0.025326,-0.003266,-0.511227,0.184038,-0.238657,-56.192784,-89.125149,47.616251
01641,223658,9.913499,-0.000097,0.271837,-0.060551,-0.031189,-0.001273,-0.511748,0.186963,-0.237005,-57.123477,-89.136796,48.510434
01642,223758,9.873447,0.027578,0.226414,-0.065052,-0.028554,0.000462,-0.515228,0.185548,-0.237583,-58.030184,-89.146574,49.378040
01643,223858,9.810216,0.094362,0.161837,-0.068726,-0.016121,-0.001542,-0.515712,0.188071,-0.237955,-58.505739,-89.153431,49.812335
01644,223958,9.834233,0.098632,0.113126,-0.077752,0.001086,-0.004731,-0.520199,0.186149,-0.238058,-58.355568,-89.156670,49.615657
01645,224058,9.797550,0.067278,0.114372,-0.081785,0.003264,-0.009033,-0.523700,0.183689,-0.237687,-58.044837,-89.161340,49.256086
01646,224158,9.799081,0.040585,0.139330,-0.087147,-0.002586,-0.010973,-0.524233,0.184597,-0.235637,-57.887451,-89.168712,49.046800
01647,224258,9.789914,-0.015084,0.141026,-0.087607,0.001993,-0.015426,-0.526201,0.183206,-0.237213,-57.477589,-89.176822,48.584748
01648,224358,9.784232,-0.049647,0.132046,-0.095717,0.000329,-0.018544,-0.526709,0.182692,-0.236739,-57.051487,-89.186899,48.101807
01649,224458,9.827711,-0.067368,0.147136,-0.095575,-0.009360,-0.018961,-0.528223,0.182169,-0.235765,-56.936277,-89.200165,47.929874
01650,224558,9.865055,-0.047257,0.158969,-0.091591,-0.022323,-0.016536,-0.529204,0.180240,-0.236867,-57.323617,-89.216298,48.262820
01651,224658,9.882887,0.000423,0.181415,-0.082059,-0.034340,-0.014549,-0.532711,0.179251,-0.235919,-58.201643,-89.235088,49.091955
01652,224758,9.867446,-0.004303,0.172429,-0.079793,-0.039250,-0.013125,-0.539252,0.173728,-0.233202,-59.338400,-89.254438,50.181137
01653,224858,9.770532,0.051702,0.133452,-0.079691,-0.033426,-0.013566,-0.541189,0.173905,-0.236201,-60.295147,-89.272065,51.090342
01654,224958,9.708613,0.081033,0.087207,-0.077013,-0.031111,-0.018509,-0.545220,0.168889,-0.234457,-61.092017,-89.291337,51.841183
01655,225058,9.678347,0.057619,0.077885,-0.079307,-0.034093,-0.023293,-0.547231,0.168873,-0.233458,-61.951229,-89.313699,52.653050
01656,225158,9.671074,-0.017562,0.100801,-0.082555,-0.042057,-0.027938,-0.551733,0.163439,-0.233239,-63.115362,-89.340349,53.767995
01657,225258,9.703861,-0.088177,0.140874,-0.088603,-0.052788,-0.032676,-0.552195,0.163045,-0.235264,-64.776623,-89.371803,55.376627
01658,225358,9.757527,-0.125673,0.202604,-0.096375,-0.061258,-0.027005,-0.560709,0.158101,-0.233521,-67.162744,-89.401601,57.705699
01659,225458,9.788043,-0.178345,0.220437,-0.104166,-0.060803,-0.018040,-0.562683,0.158181,-0.234522,-69.947830,-89.425357,60.429284
01660,225558,9.802689,-0.211370,0.192946,-0.103259,-0.056271,-0.006440,-0.562744,0.155047,-0.231675,-72.907450,-89.440542,63.327929
01661,225658,9.804273,-0.237255,0.150848,-0.097737,-0.049428,0.006121,-0.571184,0.155254,-0.233177,-75.805148,-89.446237,66.167814
01662,225758,9.791225,-0.247249,0.082142,-0.084408,-0.041692,0.009685,-0.570730,0.151164,-0.231381,-78.337941,-89.447621,68.650420
01663,225858,9.809204,-0.211473,0.061111,-0.066776,-0.039428,0.009943,-0.573230,0.151179,-0.230882,-80.738091,-89.447579,71.010487
01664,225958,9.856948,-0.115710,0.021183,-0.048895,-0.041037,0.002776,-0.577689,0.148831,-0.232510,-83.167795,-89.450769,73.410358
01665,226058,9.902997,-0.009017,0.034299,-0.039783,-0.038906,-0.006185,-0.579753,0.145705,-0.229164,-85.445758,-89.457997,75.663699
01666,226158,9.958944,0.026586,0.064037,-0.028518,-0.034715,-0.016042,-0.580253,0.144717,-0.229215,-87.491428,-89.469903,77.691184
01667,226258,9.935648,-0.037361,0.070359,-0.013977,-0.022708,-0.024562,-0.585211,0.141878,-0.230869,-88.848816,-89.485897,79.038687
01668,226358,9.935836,-0.105099,0.071776,-0.004796,-0.010265,-0.023468,-0.588726,0.141861,-0.229370,-89.467843,-89.500940,79.653060
01669,226458,9.858233,-0.148931,0.083056,0.002525,-0.005670,-0.021076,-0.592189,0.139498,-0.230998,-89.809504,-89.514542,79.994255
01670,226558,9.788731,-0.158913,0.084713,0.006541,-0.003941,-0.016731,-0.591712,0.138445,-0.230049,-90.047666,-89.525629,80.234253
01671,226658,9.798776,-0.132374,0.113938,0.005409,-0.007165,-0.010799,-0.597642,0.138660,-0.232550,-90.521993,-89.533289,80.709777
01672,226758,9.830812,-0.081140,0.154282,0.003099,-0.008979,-0.005043,-0.601694,0.137559,-0.229103,-91.134204,-89.537595,81.321867
01673,226858,9.821893,-0.031078,0.184832,-0.004322,-0.009009,0.004773,-0.601197,0.137053,-0.229128,-91.741831,-89.536225,81.925120
01674,226958,9.823768,0.008412,0.218894,-0.009087,-0.003488,0.016272,-0.602682,0.137100,-0.229629,-91.930619,-89.528339,82.106786
01675,227058,9.810857,0.029110,0.197163,-0.012217,-0.001201,0.021519,-0.605157,0.135693,-0.230705,-91.945346,-89.517494,82.112588
01676,227158,9.773275,0.073484,0.207493,-0.012414,-0.004167,0.027481,-0.606122,0.137276,-0.232129,-92.141041,-89.503180,82.299247
01677,227258,9.643838,-0.053994,0.310289,0.002513,0.007390,0.033907,-0.608563,0.139429,-0.234527,-91.562676,-89.485405,81.720366
01678,227358,10.024931,0.341751,0.014081,0.023995,0.037371,0.013197,-0.610549,0.137492,-0.235129,-89.143341,-89.479494,79.312735
01679,227458,9.584258,0.143493,0.049616,0.040055,0.007459,0.016115,-0.613040,0.137531,-0.235130,-88.639248,-89.471702,78.829620
01680,227558,9.858648,-0.044388,0.210457,0.009259,0.000544,0.007332,-0.612569,0.137949,-0.233605,-88.576007,-89.469014,78.769727
01681,227658,9.837474,-0.078621,0.205473,-0.013610,0.009031,0.003762,-0.615473,0.138712,-0.238079,-87.996051,-89.468219,78.179994
01682,227758,9.866743,-0.157171,0.272900,-0.033744,0.022278,0.000868,-0.616945,0.140777,-0.238977,-86.602526,-89.468621,76.765124
01683,227858,9.885571,-0.169297,0.278010,-0.042604,0.029475,0.004143,-0.618930,0.139836,-0.239528,-84.787073,-89.466465,74.923232
01684,227958,9.895899,-0.135733,0.254889,-0.034464,0.038802,0.012396,-0.619374,0.138992,-0.242578,-82.482489,-89.458395,72.596854
01685,228058,9.881047,-0.058222,0.128079,-0.032957,0.043761,0.015630,-0.621337,0.140092,-0.244027,-79.990550,-89.447151,70.083972
01686,228158,9.831274,0.039200,0.093999,-0.035248,0.043812,0.014500,-0.621255,0.144769,-0.247797,-77.586687,-89.435526,67.657850
01687,228258,9.778912,0.160464,0.080475,-0.028637,0.035553,0.010937,-0.626244,0.140364,-0.248027,-75.685149,-89.426113,65.737854
01688,228358,9.685871,0.202016,0.022501,-0.015963,0.010259,0.003950,-0.622764,0.141281,-0.247475,-75.113301,-89.423831,65.154868
01689,228458,9.657246,0.191848,0.024240,-0.005826,-0.016436,-0.008495,-0.626165,0.143048,-0.251899,-75.836146,-89.432309,65.872439
01690,228558,9.659810,0.045929,0.127423,0.008941,-0.029080,-0.023647,-0.623698,0.139971,-0.251051,-77.096603,-89.450801,67.136106
01691,228658,9.784947,-0.138520,0.151079,0.023173,-0.032869,-0.038651,-0.623169,0.141530,-0.252474,-78.480032,-89.477858,68.530901
01692,228758,9.773901,-0.227518,0.192645,0.028717,-0.021349,-0.041734,-0.625653,0.140099,-0.253051,-79.222480,-89.505112,69.287867
01693,228858,9.837047,-0.354927,0.140605,0.027902,-0.003849,-0.060685,-0.625597,0.140243,-0.256049,-78.585525,-89.541065,68.664924
01694,228958,9.865851,-0.404426,0.179356,0.020197,0.007738,-0.047908,-0.627582,0.139801,-0.256575,-77.189122,-89.568347,67.278111
01695,229058,9.942575,-0.214443,0.184152,0.003587,0.022296,-0.048431,-0.627560,0.141343,-0.257499,-74.466150,-89.593464,64.555187
01696,229158,9.978551,0.010409,0.108529,0.000366,0.028924,-0.045071,-0.630499,0.138048,-0.260676,-70.950536,-89.614497,61.037765
01697,229258,9.883110,0.149000,-0.016906,-0.001090,0.024782,-0.037036,-0.629488,0.141045,-0.261023,-67.664247,-89.630590,57.748841
01698,229358,9.842735,0.161675,-0.043109,-0.002718,0.014544,-0.027305,-0.626970,0.141078,-0.262522,-65.330066,-89.642833,55.411112
01699,229458,9.799081,0.104849,-0.103465,0.005808,0.003776,-0.015731,-0.628961,0.142106,-0.262472,-64.230062,-89.651263,54.312472
01700,229558,9.751424,-0.037613,-0.103089,0.025227,0.000089,-0.013667,-0.631939,0.142676,-0.262947,-63.473418,-89.659452,53.568328
01701,229658,9.725418,-0.151552,-0.002250,0.043902,0.004400,-0.018363,-0.629910,0.142740,-0.264946,-62.077311,-89.668812,52.195419
01702,229758,9.697718,-0.315534,0.007445,0.066501,0.007928,-0.022845,-0.630389,0.142797,-0.265945,-60.051224,-89.679183,50.205484
01703,229858,9.884016,-0.181989,0.142754,0.092430,0.012415,-0.040674,-0.634922,0.140754,-0.263550,-56.444227,-89.696315,46.649481
01704,229958,9.903691,-0.170123,0.218505,0.122098,-0.002840,-0.049315,-0.634348,0.141936,-0.267497,-53.213716,-89.721332,43.486979
01705,230058,9.900020,-0.077333,0.261297,0.122386,-0.020320,-0.048738,-0.633410,0.140281,-0.264574,-51.169299,-89.751446,41.510757
01706,230158,9.910175,0.075200,0.222307,0.103750,-0.022334,-0.044512,-0.633906,0.141285,-0.264523,-49.226980,-89.780103,39.625957
01707,230258,9.830377,0.167999,0.091908,0.102927,-0.014669,-0.040334,-0.632412,0.141261,-0.264523,-46.259115,-89.803688,36.715130
01708,230358,9.786889,0.249267,-0.085877,0.107011,-0.007379,-0.043200,-0.634885,0.140851,-0.265549,-41.180476,-89.824616,31.695856
01709,230458,9.756246,0.214386,-0.118058,0.104800,-0.009048,-0.048314,-0.636912,0.142281,-0.263474,-34.107415,-89.846287,24.680886
01710,230558,9.731547,0.180819,-0.179784,0.096952,-0.015580,-0.053279,-0.634385,0.141839,-0.265497,-24.482401,-89.869517,15.109464
01711,230658,9.713643,0.092398,-0.053943,0.094765,-0.026122,-0.052900,-0.636343,0.140473,-0.267574,-12.023468,-89.893513,2.702873
01712,230758,9.737262,0.102666,0.056016,0.091443,-0.045094,-0.056448,-0.633849,0.141928,-0.267496,8.477496,-89.920481,-17.747654
01713,230858,9.807361,0.123416,0.155013,0.095596,-0.053418,-0.057891,-0.637402,0.141814,-0.263999,43.842105,-89.932961,-53.059453
01714,230958,9.894873,0.133024,0.179020,0.098403,-0.045852,-0.061171,-0.634383,0.142836,-0.265447,74.923513,-89.914033,-84.086445
01715,231058,9.906791,0.131491,0.095406,0.101907,-0.040961,-0.060071,-0.634846,0.141944,-0.267497,90.416765,-89.881068,-99.523275
01716,231158,9.915551,0.131001,0.064535,0.097968,-0.037292,-0.060820,-0.635862,0.141413,-0.266523,98.071788,-89.843185,-107.124133
01717,231258,9.873501,0.153689,0.094743,0.096996,-0.031675,-0.062296,-0.635333,0.142972,-0.267946,101.738938,-89.803465,-110.737675
01718,231358,9.837069,0.106521,0.118441,0.090399,-0.026423,-0.060739,-0.635317,0.141526,-0.269022,103.513764,-89.764805,-112.462670
01719,231458,9.841611,0.136990,0.119277,0.068978,-0.020684,-0.059367,-0.633875,0.143350,-0.265921,104.154873,-89.727568,-113.066216
01720,231558,9.867471,0.199828,0.126987,0.049804,-0.013877,-0.057168,-0.633859,0.141904,-0.266997,103.991124,-89.692487,-112.875888
01721,231658,9.842418,0.248083,0.118740,0.027898,-0.008845,-0.054093,-0.631307,0.140040,-0.270596,103.450250,-89.659790,-112.320985
01722,231758,9.831957,0.343830,0.069067,0.009372,-0.004220,-0.050999,-0.635776,0.142626,-0.270971,102.657151,-89.629371,-111.524476
01723,231858,9.803423,0.414864,0.019110,-0.010626,-0.007481,-0.050933,-0.634798,0.142562,-0.269971,102.235272,-89.598521,-111.110662
01724,231958,9.755155,0.417575,-0.049268,-0.022108,-0.010457,-0.049322,-0.630286,0.143560,-0.271418,102.113413,-89.568184,-111.003464
01725,232058,9.732697,0.416693,-0.056453,-0.035034,-0.014142,-0.051062,-0.632278,0.143591,-0.271418,102.229151,-89.536412,-111.141284
01726,232158,9.726045,0.365841,0.032738,-0.050014,-0.010018,-0.051640,-0.633245,0.144178,-0.272893,102.044683,-89.504802,-110.987482
01727,232258,9.803201,0.319322,0.058370,-0.065591,-0.002502,-0.052479,-0.632782,0.145568,-0.270817,101.402027,-89.473578,-110.384405
01728,232358,9.861267,0.276987,0.040622,-0.078645,0.010881,-0.049733,-0.632265,0.145608,-0.271816,100.074436,-89.445235,-109.103844
01729,232458,9.844823,0.230297,-0.023441,-0.086800,0.010972,-0.046941,-0.628769,0.145577,-0.272316,98.889084,-89.418217,-107.970197
01730,232558,9.853502,0.190955,-0.044613,-0.087547,-0.000088,-0.042067,-0.631735,0.148164,-0.273189,98.435234,-89.392847,-107.568515
01731,232658,9.850736,0.162807,-0.040435,-0.081565,-0.007371,-0.032529,-0.629760,0.148582,-0.272163,98.466289,-89.372256,-107.648335
01732,232758,9.759519,0.104933,-0.028440,-0.075814,-0.014659,-0.023827,-0.629230,0.150640,-0.273561,98.930431,-89.355962,-108.157970
01733,232858,9.615302,0.064045,0.090063,-0.062518,-0.010443,-0.014344,-0.633194,0.152246,-0.274485,99.246862,-89.345385,-108.512263
01734,232958,9.789389,0.093334,0.093590,-0.080113,-0.011630,-0.013419,-0.629227,0.152632,-0.273459,99.607675,-89.335202,-108.921022
01735,233058,9.876746,0.214697,0.101731,-0.078891,-0.008404,-0.009651,-0.630756,0.154054,-0.271384,99.833921,-89.327434,-109.194509
01736,233158,9.695381,0.099407,0.172096,-0.087754,-0.001042,-0.001281,-0.629694,0.154706,-0.274857,99.767417,-89.325111,-109.180301
01737,233258,9.740047,0.207189,0.014874,-0.103702,-0.022111,0.002588,-0.629194,0.155694,-0.274806,100.730420,-89.322824,-110.204812
01738,233358,9.836088,0.220305,0.143228,-0.114268,-0.027923,0.001828,-0.631222,0.156128,-0.272782,101.946740,-89.319225,-111.488715
01739,233458,9.863026,0.178778,0.127274,-0.130118,-0.014685,0.010401,-0.628170,0.155751,-0.276305,102.610447,-89.321792,-112.229051
01740,233558,9.881809,0.180790,0.084417,-0.146492,-0.013076,0.016660,-0.631673,0.156754,-0.275256,103.263499,-89.327962,-112.968114
01741,233658,9.904919,0.203829,0.115557,-0.151966,-0.004314,0.024841,-0.630693,0.158185,-0.274180,103.601021,-89.339782,-113.394762
01742,233758,9.858298,0.224498,0.113761,-0.139773,0.013482,0.027481,-0.630672,0.159728,-0.275103,103.112005,-89.355436,-112.987834
01743,233858,9.828674,0.181029,0.101027,-0.131882,0.023462,0.025016,-0.631141,0.160306,-0.276577,102.068466,-89.370896,-112.021830
01744,233958,9.845723,0.127207,0.153749,-0.109740,0.023724,0.021326,-0.629691,0.161158,-0.274027,100.935514,-89.384112,-110.953722
01745,234058,9.876513,-0.016050,0.173881,-0.087951,0.019249,0.015813,-0.632175,0.159727,-0.274604,99.954656,-89.393553,-110.025230
01746,234158,9.896221,-0.123404,0.108238,-0.075965,0.014225,0.012388,-0.631669,0.159245,-0.275129,99.193059,-89.400445,-109.309132
01747,234258,9.883877,-0.192255,0.063354,-0.075581,0.008949,0.012790,-0.631646,0.161286,-0.276027,98.706896,-89.407034,-108.868251
01748,234358,9.848635,-0.183460,0.032237,-0.075512,0.009075,0.019298,-0.629634,0.161801,-0.277000,98.256077,-89.417303,-108.462663
01749,234458,9.779469,-0.071456,-0.011804,-0.072074,0.016806,0.026835,-0.634108,0.162395,-0.277476,97.408522,-89.432421,-107.658339
01750,234558,9.614325,0.094630,-0.034234,-0.070670,0.024897,0.029734,-0.632587,0.161447,-0.279026,96.057448,-89.449578,-106.349665
01751,234658,9.484217,0.267336,-0.029348,-0.070732,0.021165,0.026687,-0.633103,0.161905,-0.278001,94.834728,-89.464496,-105.169395
01752,234758,9.485163,0.278269,-0.007462,-0.065290,0.002112,0.018055,-0.633603,0.160916,-0.278052,94.699107,-89.473438,-105.073158
01753,234858,9.541645,0.156689,0.050264,-0.053448,-0.016625,0.012193,-0.636121,0.160883,-0.276554,95.711556,-89.478067,-106.118254
01754,234958,9.631310,-0.004876,0.065971,-0.041903,-0.031781,0.007134,-0.632628,0.164316,-0.276375,97.658683,-89.478568,-108.091447
01755,235058,9.766295,-0.144416,0.083663,-0.031396,-0.035496,0.001186,-0.631627,0.161833,-0.277001,99.780094,-89.474756,-110.232900
01756,235158,9.866408,-0.189879,0.061838,-0.013426,-0.031547,0.000331,-0.634613,0.163375,-0.276926,101.628021,-89.470228,-112.090549
01757,235258,9.899374,-0.123417,0.055696,0.002751,-0.029873,0.001091,-0.632122,0.163834,-0.276900,103.363021,-89.465816,-113.825989
01758,235358,9.920969,-0.028115,0.056062,0.012145,-0.030114,0.004150,-0.633127,0.163825,-0.276400,105.136324,-89.462587,-115.594346
01759,235458,9.921642,0.045660,0.048311,0.006127,-0.029262,0.003692,-0.634650,0.163777,-0.274901,106.825938,-89.458749,-117.282455
01760,235558,9.924715,0.116099,0.093114,0.002968,-0.029046,0.005651,-0.632625,0.160852,-0.277052,108.513301,-89.455554,-118.970125
01761,235658,9.903482,0.115790,0.083127,-0.004030,-0.028166,0.005833,-0.634090,0.161944,-0.278501,110.129563,-89.452168,-120.590701
01762,235758,9.858571,0.076212,0.027606,-0.007209,-0.018609,0.004781,-0.634120,0.160378,-0.277078,111.170011,-89.449797,-121.637257
01763,235858,9.820502,0.000407,-0.010864,-0.009119,-0.010396,0.001926,-0.633601,0.161912,-0.278001,111.684654,-89.447493,-122.159071
01764,235958,9.805828,-0.049034,0.008092,-0.006010,-0.008291,0.001773,-0.631638,0.160812,-0.276552,112.078370,-89.445528,-122.558164
01765,236058,9.823752,-0.051342,0.025367,0.002347,-0.008520,0.001310,-0.633139,0.162307,-0.275977,112.476467,-89.443252,-122.956844
01766,236158,9.808904,-0.030885,0.009832,0.009179,-0.010783,0.002640,-0.631118,0.162846,-0.277450,113.028463,-89.441154,-123.505507
01767,236258,9.786708,0.014099,0.003609,0.020470,-0.013308,0.003610,-0.633065,0.162001,-0.280000,113.741208,-89.438940,-124.208454
01768,236358,9.762741,0.060014,-0.002708,0.031427,-0.013883,0.003328,-0.634148,0.160804,-0.275553,114.478512,-89.436360,-124.929679
01769,236458,9.710212,0.122970,0.003163,0.038703,-0.013541,0.002602,-0.633096,0.160434,-0.278577,115.177454,-89.433398,-125.608371
01770,236558,9.715813,0.183061,0.019420,0.042309,-0.016478,-0.001814,-0.634100,0.161422,-0.278027,115.912157,-89.427341,-126.320761
01771,236658,9.758307,0.205015,0.052359,0.034921,-0.020120,-0.003444,-0.633097,0.159936,-0.278603,116.769810,-89.419422,-127.160345
01772,236758,9.784300,0.230291,0.071199,0.024269,-0.020727,-0.005726,-0.630102,0.163376,-0.278424,117.568999,-89.410056,-127.947572
01773,236858,9.817287,0.225240,0.077469,0.015009,-0.019791,-0.004377,-0.631085,0.160451,-0.279576,118.327392,-89.401513,-128.699312
01774,236958,9.877024,0.203391,0.086977,0.002855,-0.014985,-0.003043,-0.630613,0.161367,-0.278026,118.864245,-89.394871,-129.236469
01775,237058,9.865295,0.199382,0.048601,-0.005597,-0.007487,0.003376,-0.633103,0.161905,-0.278001,119.201105,-89.393486,-129.578468
01776,237158,9.842691,0.187984,0.019827,-0.007989,0.002434,0.004047,-0.633613,0.160394,-0.277578,119.084244,-89.395196,-129.468093
01777,237258,9.793365,0.174155,-0.002643,-0.006502,0.008104,0.006541,-0.631085,0.160451,-0.279576,118.762320,-89.399722,-129.151792
01778,237358,9.758840,0.132002,-0.026321,-0.002049,0.006201,0.004379,-0.633106,0.159912,-0.278103,118.473655,-89.402621,-128.866201
01779,237458,9.782238,0.102188,-0.012969,-0.000042,-0.000962,0.002887,-0.634049,0.158577,-0.281178,118.491871,-89.402807,-128.886354
01780,237558,9.786412,0.093282,-0.000942,0.004392,-0.008131,0.005475,-0.633540,0.159590,-0.281627,118.926617,-89.402321,-129.320518
01781,237658,9.791688,0.116095,0.018132,0.012561,-0.008010,0.005801,-0.631581,0.156497,-0.280279,119.368308,-89.401999,-129.756946
01782,237758,9.736685,0.148926,0.009566,0.017329,-0.006365,0.004463,-0.633073,0.158015,-0.280204,119.697388,-89.401445,-130.078025
01783,237858,9.706670,0.196266,0.032556,0.012851,-0.005881,-0.000692,-0.633621,0.160868,-0.277052,119.859406,-89.398448,-130.234602
01784,237958,9.745784,0.273550,0.064398,0.002645,-0.008947,-0.001217,-0.633094,0.156472,-0.279280,120.143023,-89.394302,-130.518638
01785,238058,9.793915,0.276483,0.070025,-0.011449,-0.015257,0.001365,-0.634616,0.156424,-0.277781,120.776989,-89.389569,-131.161125
01786,238158,9.867869,0.242038,0.091010,-0.027427,-0.016375,0.007202,-0.632584,0.157983,-0.279704,121.605362,-89.387278,-132.007192
01787,238258,9.919176,0.166228,0.071639,-0.039214,-0.019774,0.016611,-0.630564,0.157526,-0.281228,122.844964,-89.388347,-133.271267
01788,238358,9.928485,0.065356,0.052082,-0.045295,-0.018561,0.026906,-0.633627,0.157380,-0.277230,124.343217,-89.394397,-134.797489
01789,238458,9.907587,0.052345,0.040418,-0.037717,-0.016565,0.038347,-0.635564,0.157557,-0.280230,126.156587,-89.405997,-136.634498
01790,238558,9.879580,0.013142,-0.016967,-0.022496,-0.003967,0.042158,-0.634090,0.156488,-0.279281,127.619083,-89.423127,-138.111883
01791,238658,9.760131,0.003305,-0.026841,0.000575,0.006457,0.041224,-0.634088,0.157983,-0.279204,128.673230,-89.443195,-139.167669
01792,238758,9.752393,0.017957,-0.053575,0.024533,0.011134,0.038160,-0.636096,0.154503,-0.278883,129.480639,-89.463419,-139.962969
01793,238858,9.750528,0.007719,-0.054225,0.049439,0.017969,0.032479,-0.637541,0.156142,-0.281306,129.800889,-89.483563,-140.256811
01794,238958,9.749203,0.017427,-0.029221,0.052996,0.016668,0.031050,-0.636577,0.153562,-0.279933,130.153563,-89.502587,-140.581035
01795,239058,9.757119,-0.002350,0.031509,0.047170,0.002479,0.036465,-0.638060,0.154607,-0.280383,131.505554,-89.518606,-141.907945
01796,239158,9.795229,0.081730,0.139325,0.035424,-0.005930,0.044427,-0.637580,0.155049,-0.279358,133.757899,-89.534361,-144.141967
01797,239258,9.843174,0.116985,0.167028,0.018652,-0.006002,0.058105,-0.640528,0.151729,-0.282036,136.883641,-89.554724,-147.259021
01798,239358,9.844565,0.113167,0.120739,0.010902,-0.003920,0.068145,-0.639597,0.151545,-0.278537,140.789660,-89.578224,-151.160807
01799,239458,9.799608,0.167671,0.054025,0.025469,0.004690,0.081575,-0.639034,0.151705,-0.282035,145.651725,-89.607971,-156.010306
01800,239558,9.699111,0.188296,-0.087604,0.046378,0.015351,0.079126,-0.639537,0.154180,-0.281409,150.613370,-89.639102,-160.947393
01801,239658,9.570478,0.138053,-0.214871,0.056203,0.006376,0.072555,-0.643535,0.151728,-0.281037,156.226262,-89.660816,-166.530093
01802,239758,9.616344,0.093491,-0.105483,0.058048,-0.016296,0.065407,-0.645040,0.151230,-0.280563,162.535459,-89.665247,-172.808045
01803,239858,9.728965,0.087759,0.012491,0.049652,-0.042113,0.066907,-0.643563,0.151656,-0.279538,169.534991,-89.651193,-179.781158
01804,239958,9.807070,0.119279,0.050640,0.052547,-0.069971,0.070572,-0.643055,0.152170,-0.280012,176.392271,-89.616610,173.389621
01805,240058,9.835332,0.073304,0.146724,0.018718,-0.084911,0.082046,-0.645092,0.153078,-0.277462,-177.134515,-89.568675,166.925055
01806,240158,10.027513,0.106316,0.112601,0.014667,-0.084685,0.091139,-0.646090,0.152097,-0.277514,-171.396080,-89.515752,161.192925
01807,240258,10.097713,0.061574,0.058453,0.026098,-0.053574,0.098803,-0.645131,0.151985,-0.275514,-165.906811,-89.475242,155.716478
01808,240358,10.009457,0.104925,-0.053299,0.052678,-0.017789,0.098625,-0.646550,0.147742,-0.280241,-160.548040,-89.450037,150.385733
01809,240458,9.862131,0.105050,-0.094196,0.083009,0.008233,0.092100,-0.650079,0.150168,-0.277617,-155.402310,-89.435599,145.285399
01810,240558,9.801889,0.118326,-0.098724,0.107674,0.013846,0.087220,-0.650069,0.150690,-0.278091,-150.619935,-89.421061,140.562555
01811,240658,9.726726,0.126020,-0.015929,0.110300,0.005825,0.081127,-0.650103,0.147130,-0.276770,-146.620688,-89.400858,136.624365
01812,240758,9.626572,0.096789,0.080077,0.098644,-0.016727,0.079895,-0.650079,0.150168,-0.277617,-143.660658,-89.368045,133.718750
01813,240858,9.617474,0.141836,0.140716,0.084842,-0.047295,0.089002,-0.648596,0.148625,-0.277193,-141.587739,-89.316824,131.692364
01814,240958,9.747340,0.290712,0.210550,0.049696,-0.057034,0.089957,-0.653079,0.149194,-0.277169,-140.068801,-89.260252,130.199823
01815,241058,9.852294,0.398572,0.136867,0.025647,-0.044762,0.093502,-0.651526,0.150312,-0.280116,-138.333451,-89.207194,128.477034
01816,241158,9.829468,0.392252,0.091010,0.016312,-0.031130,0.098263,-0.655093,0.147185,-0.276271,-136.323603,-89.157326,126.474330
01817,241258,9.842922,0.342157,0.040373,0.004424,-0.023414,0.101939,-0.654128,0.145602,-0.274848,-134.249858,-89.108148,124.400867
01818,241358,9.857137,0.250630,0.025999,0.003985,-0.019627,0.101747,-0.651636,0.146061,-0.274822,-132.302592,-89.059485,122.453608
01819,241458,9.921902,0.133399,0.081229,0.014086,-0.024199,0.098312,-0.657095,0.147192,-0.275772,-130.732332,-89.009641,120.889160
01820,241558,9.940578,0.041132,0.057775,0.029021,-0.017736,0.091569,-0.656070,0.147747,-0.277246,-129.281730,-88.964469,119.452919
01821,241658,9.945527,-0.028973,0.055398,0.036718,-0.008929,0.084816,-0.656554,0.150769,-0.277593,-127.862858,-88.924854,118.052802
01822,241758,9.953251,-0.018888,0.066820,0.040186,-0.007913,0.081220,-0.655108,0.149130,-0.275170,-126.581871,-88.886643,116.792561
01823,241858,9.915556,0.035752,0.082798,0.040584,-0.010270,0.078341,-0.656544,0.150793,-0.278093,-125.487750,-88.848492,115.719428
01824,241958,9.828127,0.143972,0.121085,0.039290,-0.010489,0.073572,-0.653095,0.150143,-0.276118,-124.543765,-88.812153,114.795695
01825,242058,9.767849,0.250281,0.155332,0.029955,-0.015908,0.070883,-0.656096,0.148672,-0.275695,-123.821615,-88.775097,114.088467
01826,242158,9.761324,0.319504,0.189488,0.018342,-0.022506,0.066075,-0.656092,0.151163,-0.275568,-123.360268,-88.738120,113.635418
01827,242258,9.806400,0.378219,0.219657,0.003060,-0.026099,0.059934,-0.659071,0.151234,-0.276069,-123.094526,-88.702927,113.369235
01828,242358,9.819548,0.352422,0.160329,-0.008139,-0.020103,0.054171,-0.658111,0.151620,-0.274044,-122.802088,-88.672373,113.069907
01829,242458,9.776835,0.236419,0.087345,-0.020394,-0.017067,0.047551,-0.656662,0.152472,-0.271494,-122.554285,-88.645941,112.808183
01830,242558,9.771717,0.125844,0.038095,-0.031129,-0.014527,0.043668,-0.659596,0.151668,-0.274544,-122.320740,-88.622155,112.554554
01831,242658,9.759332,0.089226,0.020746,-0.033493,-0.011117,0.040405,-0.660613,0.150639,-0.273596,-122.069772,-88.600978,112.282131
01832,242758,9.722677,0.081590,-0.004337,-0.027849,-0.011474,0.036242,-0.657121,0.153573,-0.273443,-121.881310,-88.581703,112.075455
01833,242858,9.720092,0.038968,-0.015697,-0.023713,-0.019058,0.030478,-0.659124,0.152584,-0.272994,-121.912423,-88.562938,112.090785
01834,242958,9.708064,-0.021672,0.039989,-0.022059,-0.035935,0.025187,-0.660112,0.152126,-0.273520,-122.327241,-88.541605,112.490883
01835,243058,9.727458,-0.042145,0.083899,-0.029768,-0.047436,0.021273,-0.661106,0.153637,-0.273444,-122.995732,-88.518518,113.140319
01836,243158,9.769890,-0.043125,0.119430,-0.034232,-0.051708,0.019119,-0.658587,0.154167,-0.274917,-123.749812,-88.494919,113.872814
01837,243258,9.786602,-0.065373,0.101690,-0.041597,-0.048473,0.016590,-0.659131,0.154055,-0.272418,-124.458232,-88.473325,114.555413
01838,243358,9.775023,-0.075540,0.019982,-0.047604,-0.040193,0.016188,-0.660643,0.154529,-0.271393,-125.011592,-88.454432,115.079457
01839,243458,9.745975,-0.079662,0.003643,-0.055005,-0.036351,0.014052,-0.657641,0.151540,-0.272545,-125.516421,-88.437686,115.550711
01840,243558,9.722804,-0.070267,-0.015187,-0.056517,-0.032080,0.012315,-0.663134,0.154568,-0.271394,-125.960979,-88.423076,115.960803
01841,243658,9.721230,-0.060502,-0.024517,-0.057479,-0.027754,0.013564,-0.660641,0.155525,-0.271343,-126.311026,-88.409277,116.275796
01842,243758,9.809739,-0.086819,-0.013243,-0.052654,-0.028919,0.008906,-0.659138,0.155526,-0.271842,-126.728565,-88.397173,116.661071
01843,243858,9.854234,-0.132632,-0.039373,-0.042664,-0.031205,0.007183,-0.660153,0.154995,-0.270868,-127.192439,-88.384990,117.098427
01844,243958,9.864883,-0.198482,-0.018292,-0.035466,-0.036848,0.010054,-0.661099,0.157124,-0.273266,-127.699884,-88.369430,117.583500
01845,244058,9.873640,-0.217934,0.007628,-0.040798,-0.034263,0.012664,-0.662597,0.155155,-0.273368,-128.128030,-88.353490,117.986191
01846,244158,9.854029,-0.278132,-0.029928,-0.046635,-0.029790,0.015231,-0.659193,0.155879,-0.268818,-128.450576,-88.337905,118.279900
01847,244258,9.782070,-0.303451,-0.075680,-0.051289,-0.028270,0.020826,-0.662136,0.155549,-0.271343,-128.678179,-88.320309,118.475966
01848,244358,9.704137,-0.318226,-0.092659,-0.048560,-0.022324,0.027416,-0.661117,0.157574,-0.272241,-128.730192,-88.301877,118.497938
01849,244458,9.701517,-0.269218,-0.098283,-0.051525,-0.025993,0.032990,-0.661165,0.156457,-0.269793,-128.770904,-88.279632,118.506910
01850,244558,9.756855,-0.245939,-0.125021,-0.048813,-0.019177,0.041026,-0.661674,0.155943,-0.269319,-128.614575,-88.256231,118.320310
01851,244658,9.752971,-0.241480,-0.178757,-0.039580,-0.012028,0.051044,-0.662659,0.156979,-0.269768,-128.238075,-88.230848,117.918729
01852,244758,9.712561,-0.261650,-0.179728,-0.048460,-0.023427,0.055590,-0.663596,0.159132,-0.272665,-127.990750,-88.199311,117.641296
01853,244858,9.754997,-0.333803,-0.158052,-0.050620,-0.036365,0.058343,-0.658682,0.157888,-0.269216,-127.906105,-88.161939,117.525387
01854,244958,9.820022,-0.372237,-0.069804,-0.048149,-0.039240,0.059207,-0.664147,0.160491,-0.269590,-127.854215,-88.123153,117.443673
01855,245058,9.841113,-0.420845,-0.044425,-0.062304,-0.036030,0.059512,-0.661657,0.159953,-0.269615,-127.766006,-88.085346,117.317511
01856,245158,9.796679,-0.475929,-0.034817,-0.072432,-0.032433,0.060797,-0.660142,0.161472,-0.270538,-127.626199,-88.048200,117.133925
01857,245258,9.781944,-0.500623,-0.021384,-0.076053,-0.023376,0.071037,-0.660204,0.162798,-0.266963,-127.272826,-88.009516,116.734577
01858,245358,9.719595,-0.463250,-0.075378,-0.082123,-0.015410,0.079309,-0.660677,0.161383,-0.268539,-126.753671,-87.969681,116.165867
01859,245458,9.675966,-0.387350,-0.115116,-0.087929,-0.013041,0.080701,-0.662659,0.162436,-0.268988,-126.215226,-87.929824,115.574518
01860,245558,9.722302,-0.378535,-0.032578,-0.087118,-0.017922,0.079198,-0.660676,0.161882,-0.268513,-125.772668,-87.888836,115.079576
01861,245658,9.774874,-0.422441,0.040614,-0.076876,-0.022316,0.076846,-0.662670,0.166373,-0.267786,-125.417162,-87.847351,114.677612
01862,245758,9.861387,-0.496638,0.053274,-0.074142,-0.034369,0.075637,-0.659660,0.162911,-0.269462,-125.231681,-87.802364,114.447359
01863,245858,9.903532,-0.642880,0.105446,-0.076364,-0.041055,0.070247,-0.661684,0.165835,-0.267311,-125.180593,-87.757663,114.350333
01864,245958,10.092061,-0.506334,-0.008588,-0.090048,-0.028322,0.063830,-0.663664,0.167884,-0.267709,-125.043006,-87.720154,114.158901
01865,246058,10.040572,-0.698660,0.023533,-0.039083,-0.037283,0.062207,-0.662151,0.167908,-0.268709,-124.998360,-87.680435,114.089720
01866,246158,10.181329,-0.688048,0.068562,-0.040834,-0.024677,0.055363,-0.661635,0.167450,-0.269734,-124.866613,-87.648051,113.932372
01867,246258,10.120088,-0.706934,0.035165,-0.038501,-0.010771,0.049664,-0.663684,0.166839,-0.266761,-124.624019,-87.622859,113.665434
01868,246358,10.108063,-0.686391,0.010122,-0.043700,-0.005987,0.047992,-0.662169,0.167860,-0.267709,-124.348192,-87.599945,113.362263
01869,246458,9.960313,-0.697453,0.018217,-0.044201,0.002895,0.045655,-0.664622,0.168494,-0.269684,-123.995622,-87.580916,112.982003
01870,246558,9.872326,-0.739495,0.035297,-0.037032,-0.003161,0.049578,-0.662668,0.167370,-0.267735,-123.682746,-87.557982,112.645596
01871,246658,9.844453,-0.713533,0.075304,-0.021947,-0.016458,0.048497,-0.663705,0.165795,-0.265812,-123.522300,-87.531278,112.470418
01872,246758,9.822911,-0.737713,0.073094,-0.003266,-0.026194,0.051146,-0.662157,0.169379,-0.268133,-123.441902,-87.500201,112.386088
01873,246858,9.848042,-0.728511,0.065444,0.022491,-0.038983,0.050603,-0.664649,0.168920,-0.268159,-123.490514,-87.465331,112.445677
01874,246958,9.766447,-0.822574,0.064358,0.053203,-0.050419,0.053461,-0.667141,0.167963,-0.268211,-123.620996,-87.425454,112.604853
01875,247058,9.846025,-0.759004,0.051406,0.068841,-0.055246,0.052887,-0.666633,0.168478,-0.268685,-123.792036,-87.384286,112.813617
01876,247158,9.764528,-0.741191,0.075004,0.097016,-0.059770,0.049750,-0.663184,0.167828,-0.266710,-124.008683,-87.343121,113.084217
01877,247258,9.776616,-0.666269,0.034191,0.115383,-0.068049,0.046683,-0.666163,0.168397,-0.267185,-124.311233,-87.300683,113.451371
01878,247358,9.668208,-0.632825,-0.010119,0.128133,-0.067888,0.040252,-0.665656,0.167916,-0.267710,-124.638049,-87.261234,113.850154
01879,247458,9.633120,-0.558636,0.001028,0.132271,-0.076281,0.036133,-0.665676,0.166871,-0.266762,-125.060967,-87.220847,114.347545
01880,247558,9.612955,-0.474010,0.062138,0.136878,-0.077536,0.027655,-0.664232,0.164734,-0.264364,-125.537058,-87.183824,114.900833
01881,247658,9.630075,-0.430957,0.159786,0.143505,-0.070079,0.019563,-0.667686,0.167851,-0.265712,-125.981062,-87.152854,115.425813
01882,247758,9.661604,-0.448259,0.211261,0.149435,-0.056564,0.015916,-0.667151,0.167441,-0.267736,-126.311474,-87.127972,115.840472
01883,247858,9.724741,-0.505630,0.262429,0.151910,-0.042547,0.010688,-0.666682,0.166862,-0.266262,-126.541496,-87.110178,116.156043
01884,247958,9.794046,-0.580989,0.273337,0.148984,-0.030094,0.009505,-0.668650,0.164973,-0.267864,-126.664740,-87.097140,116.363030
01885,248058,9.824110,-0.653588,0.239733,0.149264,-0.024659,0.010561,-0.670178,0.166894,-0.265764,-126.729784,-87.085463,116.511910
01886,248158,9.844314,-0.697953,0.249527,0.142316,-0.017634,0.011615,-0.668687,0.165375,-0.265839,-126.727283,-87.075707,116.589183
01887,248258,9.803669,-0.696571,0.204159,0.139190,-0.010348,0.013743,-0.667682,0.164886,-0.266364,-126.646320,-87.067469,116.586107
01888,248358,9.734287,-0.682559,0.153191,0.140839,-0.006542,0.016600,-0.668208,0.164821,-0.264865,-126.511149,-87.059215,116.529708
01889,248458,9.617880,-0.680258,0.145964,0.141123,-0.011861,0.021027,-0.669684,0.169851,-0.265111,-126.394284,-87.047102,116.491811
01890,248558,9.552951,-0.564196,0.121786,0.143440,-0.024898,0.017607,-0.671148,0.165986,-0.267314,-126.414888,-87.032134,116.592901
01891,248658,9.587423,-0.493313,0.160582,0.139983,-0.033050,0.006737,-0.669674,0.164917,-0.266365,-126.579787,-87.019393,116.836500
01892,248758,9.637617,-0.493927,0.249384,0.148351,-0.031894,-0.002682,-0.671169,0.164941,-0.266365,-126.789528,-87.011344,117.129805
01893,248858,9.681147,-0.515399,0.362466,0.155717,-0.030139,-0.013170,-0.671660,0.163478,-0.266941,-127.047153,-87.008654,117.475288
01894,248958,9.722602,-0.538818,0.392067,0.157618,-0.032538,-0.022606,-0.671148,0.161027,-0.268068,-127.386343,-87.009357,117.903537
01895,249058,9.704842,-0.592385,0.456612,0.161131,-0.036299,-0.028921,-0.670156,0.163478,-0.267441,-127.798195,-87.011479,118.406565
01896,249158,9.696078,-0.642938,0.517733,0.167657,-0.037921,-0.030367,-0.670203,0.163358,-0.264941,-128.230114,-87.013502,118.933434
01897,249258,9.661185,-0.689661,0.535081,0.178675,-0.035763,-0.032295,-0.671694,0.165375,-0.264840,-128.650396,-87.016965,119.454975
01898,249358,9.600458,-0.714220,0.505160,0.189690,-0.039365,-0.031315,-0.671149,0.160529,-0.268093,-129.088698,-87.018503,120.000887
01899,249458,9.544319,-0.721148,0.483254,0.204807,-0.054774,-0.032509,-0.671693,0.160915,-0.265569,-129.657012,-87.014729,120.685668
01900,249558,9.518322,-0.664806,0.450065,0.211711,-0.065493,-0.035042,-0.673688,0.159451,-0.265646,-130.326701,-87.007745,121.475934
01901,249658,9.517671,-0.583200,0.498133,0.216810,-0.069213,-0.039006,-0.672189,0.161919,-0.265518,-131.048541,-87.000610,122.321354
01902,249758,9.490799,-0.536965,0.490500,0.217020,-0.067297,-0.044419,-0.673151,0.160038,-0.267619,-131.789696,-86.995981,123.186241
01903,249858,9.473573,-0.477416,0.460941,0.211316,-0.069442,-0.047051,-0.675222,0.157884,-0.263723,-132.567654,-86.991065,124.084712
01904,249958,9.445485,-0.420376,0.475841,0.205475,-0.077616,-0.054676,-0.674717,0.156406,-0.264299,-133.467233,-86.985481,125.101620
01905,250058,9.459117,-0.395090,0.504189,0.209394,-0.089858,-0.061105,-0.674144,0.157089,-0.268272,-134.504001,-86.976798,126.258158
01906,250158,9.482520,-0.348617,0.617621,0.202459,-0.098943,-0.072220,-0.674728,0.155385,-0.263850,-135.692248,-86.967774,127.562408
01907,250258,9.535485,-0.335117,0.712457,0.199100,-0.102023,-0.083547,-0.675207,0.155940,-0.264824,-136.985924,-86.960499,128.970307
01908,250358,9.596737,-0.302276,0.682088,0.202245,-0.093846,-0.090966,-0.676707,0.152974,-0.264977,-138.271303,-86.957910,130.371697
01909,250458,9.562407,-0.345936,0.670836,0.183990,-0.091678,-0.098693,-0.674282,0.152268,-0.261503,-139.611960,-86.957497,131.817963
01910,250558,9.505900,-0.385431,0.616282,0.157780,-0.102150,-0.105014,-0.672301,0.151216,-0.261054,-141.089753,-86.952919,133.386517
01911,250658,9.380472,-0.404053,0.687065,0.139675,-0.108970,-0.107924,-0.676319,0.153175,-0.258954,-142.641018,-86.944129,135.018262
01912,250758,9.361664,-0.397503,0.745664,0.117171,-0.112164,-0.110464,-0.677768,0.147365,-0.262258,-144.236266,-86.932391,136.681151
01913,250858,9.253110,-0.384493,0.797143,0.099437,-0.119168,-0.111182,-0.675322,0.148201,-0.259707,-145.875507,-86.915135,138.377937
01914,250958,9.324661,-0.363215,0.909555,0.099236,-0.129587,-0.111309,-0.678287,0.146328,-0.261309,-147.554497,-86.890344,140.114438
01915,251058,9.429913,-0.397512,0.965922,0.102429,-0.129672,-0.116719,-0.676286,0.145822,-0.261834,-149.251674,-86.864430,141.871021
01916,251158,9.520968,-0.431220,0.954024,0.113935,-0.123451,-0.120811,-0.673370,0.146579,-0.257784,-150.917657,-86.840026,143.603000
01917,251258,9.591697,-0.477000,0.969217,0.123741,-0.112395,-0.123882,-0.673834,0.144690,-0.259885,-152.525588,-86.819376,145.282500
01918,251358,9.683686,-0.474683,1.045130,0.128550,-0.098244,-0.125751,-0.677360,0.143652,-0.257938,-154.061586,-86.803965,146.892739
01919,251458,9.776401,-0.436979,1.092413,0.129331,-0.083942,-0.126375,-0.678889,0.145075,-0.255863,-155.525731,-86.793839,148.431476
01920,251558,9.819583,-0.344592,1.188304,0.128796,-0.077862,-0.129112,-0.677359,0.144151,-0.257912,-156.980702,-86.785412,149.960719
01921,251658,9.864704,-0.315094,1.345115,0.138127,-0.074235,-0.133278,-0.677404,0.140069,-0.256116,-158.446926,-86.777705,151.506588
01922,251758,9.904838,-0.381308,1.481140,0.152420,-0.066478,-0.137039,-0.677906,0.137585,-0.256243,-159.905070,-86.772785,153.052564
01923,251858,9.951896,-0.450149,1.530962,0.172769,-0.050458,-0.144635,-0.676368,0.136187,-0.258818,-161.366619,-86.775835,154.613621
01924,251958,9.942876,-0.540954,1.515901,0.193170,-0.025744,-0.150390,-0.676887,0.140109,-0.257116,-162.799492,-86.791232,156.157647
01925,252058,9.926335,-0.679757,1.442369,0.207040,-0.001647,-0.152446,-0.678405,0.137095,-0.256269,-164.190211,-86.818136,157.667383
01926,252158,9.873191,-0.764744,1.327482,0.221122,0.011536,-0.149022,-0.677907,0.132129,-0.257023,-165.527336,-86.849876,159.131491
01927,252258,9.865559,-0.864434,1.192853,0.240216,0.017187,-0.145714,-0.677388,0.133166,-0.257971,-166.832991,-86.882495,160.575010
01928,252358,9.950986,-0.887063,1.136339,0.261750,0.013779,-0.139600,-0.679852,0.132281,-0.259522,-168.097547,-86.910727,161.989700
01929,252458,10.017932,-0.804828,1.058639,0.278596,0.003417,-0.134122,-0.677404,0.129156,-0.257675,-169.338391,-86.930898,163.390295
01930,252558,10.217199,-0.643369,1.035824,0.289788,-0.006446,-0.128572,-0.678842,0.129822,-0.260648,-170.547461,-86.943394,164.765480
01931,252658,10.379339,-0.501624,1.079278,0.295439,-0.012152,-0.127144,-0.680372,0.130746,-0.258599,-171.756379,-86.951041,166.143745
01932,252758,10.579944,-0.446603,1.150701,0.296546,-0.009112,-0.124766,-0.679845,0.126350,-0.260827,-172.940816,-86.958764,167.498120
01933,252858,10.713074,-0.376772,1.166036,0.299725,0.014381,-0.132990,-0.683841,0.124895,-0.260404,-174.192200,-86.978929,168.921340
01934,252958,10.746795,-0.505777,1.179046,0.309015,0.040972,-0.140718,-0.681852,0.123369,-0.260480,-175.517096,-87.013036,170.423472
01935,253058,10.736154,-0.717533,1.049471,0.337369,0.056525,-0.145429,-0.680321,0.122943,-0.262504,-176.900128,-87.054405,172.000049
01936,253158,10.830794,-0.804199,0.808153,0.353757,0.063734,-0.142412,-0.680838,0.117446,-0.262284,-178.277954,-87.097900,173.580775
01937,253258,10.934074,-0.783568,0.462870,0.373183,0.053724,-0.135750,-0.682868,0.116883,-0.260311,-179.612212,-87.133702,175.128993
01938,253358,11.167763,-0.719516,0.177202,0.399295,0.042585,-0.128390,-0.680797,0.114577,-0.264935,179.120979,-87.161382,176.624638
01939,253458,11.444676,-0.662267,-0.073975,0.418507,0.045733,-0.118012,-0.684262,0.116674,-0.265834,177.958815,-87.189442,178.026522
01940,253558,11.626033,-0.785520,-0.361566,0.440897,0.049164,-0.105262,-0.683262,0.113194,-0.266512,176.932626,-87.218463,179.305112
01941,253658,11.669110,-0.954763,-0.665315,0.468418,0.036726,-0.089989,-0.683809,0.112085,-0.264064,176.091163,-87.239865,-179.585436
01942,253758,11.664769,-0.981594,-0.897121,0.484734,-0.005685,-0.074821,-0.685735,0.107826,-0.268291,175.467310,-87.236957,-178.684448
01943,253858,11.663285,-0.765778,-0.951358,0.474681,-0.053427,-0.064013,-0.684788,0.105696,-0.265893,175.018169,-87.206868,-177.964093
01944,253958,11.534411,-0.505071,-0.779766,0.439426,-0.094832,-0.051622,-0.685314,0.105632,-0.264394,174.750157,-87.153542,-177.445257
01945,254058,11.337813,-0.208406,-0.526778,0.385251,-0.126085,-0.032278,-0.686749,0.107793,-0.267292,174.716949,-87.083325,-177.192561
01946,254158,11.250728,0.192899,-0.288111,0.311293,-0.133043,-0.015460,-0.689770,0.105277,-0.265921,174.839119,-87.010023,-177.137872
01947,254258,11.243734,0.554362,-0.216023,0.216384,-0.100305,-0.010068,-0.690772,0.107262,-0.265320,174.931445,-86.955685,-177.107773
01948,254358,10.683777,0.641356,-0.401247,0.156272,-0.053995,0.004352,-0.691753,0.105831,-0.266395,175.097688,-86.928492,-177.186210
01949,254458,10.114693,0.744272,-0.743466,0.073690,-0.024385,0.009663,-0.691272,0.106273,-0.265371,175.243923,-86.918423,-177.292024
01950,254558,9.520030,0.767682,-1.189038,-0.011914,-0.006272,0.014308,-0.689253,0.105816,-0.266895,175.373400,-86.918852,-177.430199
01951,254658,9.054512,0.866808,-1.560559,-0.094565,-0.002782,0.013377,-0.694234,0.105895,-0.266896,175.442145,-86.921152,-177.555006
01952,254758,8.647274,0.930877,-1.869548,-0.162300,-0.006859,0.014936,-0.695723,0.108908,-0.266744,175.491585,-86.921104,-177.699374
01953,254858,8.310545,0.974083,-2.077456,-0.199631,-0.020545,0.014614,-0.694215,0.106441,-0.267870,175.526867,-86.913125,-177.851012
01954,254958,8.146423,1.123091,-2.141765,-0.207164,-0.036224,0.010649,-0.695236,0.107879,-0.266295,175.527561,-86.895915,-177.972369
01955,255058,8.030257,1.279311,-2.112299,-0.207016,-0.053725,0.003416,-0.696729,0.108900,-0.266245,175.465432,-86.868292,-178.030769
01956,255158,8.203933,1.385147,-1.986801,-0.208364,-0.071312,-0.006533,-0.697734,0.108891,-0.265745,175.313437,-86.830084,-177.999991
01957,255258,8.590675,1.416813,-1.858086,-0.197121,-0.072325,-0.006897,-0.697256,0.107839,-0.264796,175.166229,-86.791195,-177.967604
01958,255358,9.248882,1.462455,-1.715096,-0.184308,-0.049537,-0.001564,-0.697705,0.109462,-0.267219,175.061552,-86.765499,-177.970513
01959,255458,9.737515,1.332698,-1.579136,-0.163781,-0.022171,0.011907,-0.696272,0.111761,-0.263593,175.080133,-86.756024,-178.085145
01960,255558,10.195009,1.082101,-1.332470,-0.150074,-0.006854,0.025763,-0.697723,0.109912,-0.266194,175.231926,-86.755906,-178.325375
01961,255658,10.653821,0.931676,-1.044919,-0.148266,0.000081,0.028717,-0.699245,0.109863,-0.264695,175.408339,-86.759812,-178.589258
01962,255758,10.881843,0.831874,-0.731303,-0.161657,0.008967,0.028261,-0.695686,0.113962,-0.267990,175.565544,-86.768713,-178.841616
01963,255858,10.762552,0.784497,-0.583771,-0.188938,0.003986,0.034438,-0.697724,0.114372,-0.265466,175.774082,-86.774979,-179.161071
01964,255958,10.410153,0.808613,-0.469893,-0.246945,-0.018056,0.044043,-0.698708,0.116405,-0.265864,176.062616,-86.768956,-179.593968
01965,256058,10.037148,0.906734,-0.359888,-0.311655,-0.039621,0.053710,-0.697695,0.115441,-0.266914,176.423179,-86.750828,179.863815
01966,256158,9.632971,1.100551,-0.375400,-0.370064,-0.054302,0.062080,-0.699713,0.116894,-0.265339,176.836340,-86.724375,179.235338
01967,256258,9.244120,1.255385,-0.328513,-0.422365,-0.086868,0.056802,-0.698732,0.118325,-0.264263,177.173327,-86.678897,178.653071
01968,256358,8.901257,1.289982,-0.247101,-0.457282,-0.119195,0.051439,-0.698204,0.124843,-0.264932,177.438328,-86.614600,178.122786
01969,256458,8.641426,1.229926,-0.062396,-0.471790,-0.131546,0.046848,-0.703228,0.121338,-0.263113,177.640450,-86.543007,177.647074
01970,256558,8.487016,1.147815,-0.047937,-0.496136,-0.133671,0.045898,-0.701224,0.128281,-0.262756,177.806223,-86.470099,177.193718
01971,256658,8.402267,0.936129,-0.057741,-0.510960,-0.140331,0.045889,-0.700720,0.126305,-0.263358,177.952513,-86.393317,176.751296
01972,256758,8.421959,0.690854,-0.051857,-0.512661,-0.133588,0.049569,-0.700259,0.131158,-0.260604,178.116226,-86.320412,176.290374
01973,256858,8.474623,0.533699,-0.240825,-0.511086,-0.126200,0.062359,-0.701745,0.130708,-0.261130,178.378601,-86.251861,175.731428
01974,256958,8.545540,0.374989,-0.417867,-0.514392,-0.130830,0.073553,-0.699287,0.133063,-0.259003,178.721244,-86.180633,175.090085
01975,257058,8.691887,0.340800,-0.437133,-0.516761,-0.138548,0.083825,-0.700749,0.136149,-0.260350,179.131878,-86.104818,174.379172
01976,257158,8.791970,0.352053,-0.350649,-0.526659,-0.148668,0.087660,-0.700778,0.135578,-0.258876,179.547545,-86.022894,173.657451
01977,257258,8.866712,0.433128,-0.265880,-0.532447,-0.162906,0.085530,-0.701277,0.140046,-0.258148,179.919546,-85.932481,172.976087
01978,257358,8.925563,0.468809,-0.170656,-0.526766,-0.178496,0.080714,-0.701823,0.139435,-0.255675,-179.767026,-85.832871,172.356611
01979,257458,9.022112,0.553763,-0.110097,-0.520217,-0.194459,0.073857,-0.703309,0.143943,-0.255446,-179.525806,-85.723947,171.813195
01980,257558,9.101513,0.561709,0.000760,-0.502719,-0.201603,0.068813,-0.702348,0.144827,-0.253396,-179.332753,-85.610835,171.328033
01981,257658,9.195820,0.534628,0.096221,-0.483153,-0.186848,0.063947,-0.704318,0.147398,-0.254270,-179.179393,-85.506135,170.893829
01982,257758,9.257741,0.525822,0.135400,-0.458830,-0.156308,0.060788,-0.700915,0.147126,-0.249770,-179.044115,-85.418908,170.491660
01983,257858,9.335679,0.504253,0.114424,-0.433531,-0.112872,0.060878,-0.702396,0.149167,-0.250169,-178.897467,-85.356521,170.092557
01984,257958,9.371183,0.477292,0.042745,-0.402583,-0.070021,0.059629,-0.703332,0.151819,-0.253041,-178.742079,-85.318640,169.702424
01985,258058,9.435238,0.452344,-0.011072,-0.368119,-0.037638,0.061728,-0.704364,0.152735,-0.250991,-178.550830,-85.299209,169.296085
01986,258158,9.511033,0.441091,-0.019041,-0.338948,-0.016989,0.063998,-0.703843,0.155266,-0.251863,-178.325277,-85.291471,168.872070
01987,258258,9.668526,0.467700,0.047052,-0.314143,-0.003419,0.064323,-0.705827,0.159781,-0.251636,-178.081145,-85.291380,168.443652
01988,258358,9.791293,0.472402,0.127915,-0.289207,0.013199,0.067236,-0.703318,0.159790,-0.252634,-177.797999,-85.300609,167.990406
01989,258458,9.824423,0.450785,0.234186,-0.269011,0.036952,0.070776,-0.705296,0.162835,-0.252982,-177.469694,-85.323183,167.503453
01990,258558,9.777602,0.499234,0.259427,-0.252913,0.071722,0.068507,-0.703312,0.163278,-0.252456,-177.131728,-85.365512,167.016063
01991,258658,9.726659,0.520631,0.286612,-0.233576,0.103075,0.066211,-0.702790,0.166307,-0.253304,-176.778714,-85.425636,166.524707
01992,258758,9.745867,0.551081,0.425055,-0.202883,0.126507,0.057771,-0.704239,0.165455,-0.255854,-176.447367,-85.499239,166.072752
01993,258858,9.808510,0.521862,0.496578,-0.165436,0.154271,0.048733,-0.702233,0.167939,-0.256226,-176.134258,-85.588880,165.660643
01994,258958,9.814971,0.431873,0.521487,-0.135940,0.183697,0.044687,-0.702200,0.170502,-0.257599,-175.803284,-85.695346,165.247606
01995,259058,9.879286,0.347052,0.481544,-0.119810,0.209547,0.052927,-0.701642,0.173130,-0.260470,-175.363660,-85.816026,164.734941
01996,259158,9.934515,0.354481,0.394510,-0.112230,0.235082,0.067976,-0.702619,0.173692,-0.261445,-174.751689,-85.950202,164.053915
01997,259258,9.937842,0.409236,0.302376,-0.118473,0.253377,0.088806,-0.699054,0.176320,-0.265315,-173.909629,-86.093010,163.138770
01998,259358,9.965416,0.497527,0.262135,-0.124695,0.268964,0.110328,-0.700535,0.178361,-0.265713,-172.802048,-86.242170,161.954088
01999,259458,10.074642,0.582133,0.313272,-0.128288,0.282695,0.128932,-0.699483,0.178490,-0.268712,-171.416966,-86.395913,160.489465
02000,259558,10.262623,0.651403,0.461823,-0.119367,0.307964,0.143282,-0.697430,0.181094,-0.271583,-169.724100,-86.560030,158.721840
02001,259658,10.615390,0.600935,0.589857,-0.100803,0.349380,0.153630,-0.696386,0.182195,-0.274031,-167.659473,-86.742633,156.592784
02002,259758,11.139733,0.387812,0.632533,-0.065851,0.411079,0.159846,-0.699351,0.184782,-0.274905,-165.095818,-86.953621,153.984417
02003,259858,11.773847,0.103936,0.445407,-0.010333,0.493968,0.164198,-0.696218,0.188085,-0.282248,-161.774683,-87.201832,150.650008
02004,259958,12.236641,-0.113289,0.129707,0.045439,0.556570,0.160425,-0.696645,0.191251,-0.285595,-157.527302,-87.472729,146.421110
02005,260058,12.785191,-0.230684,-0.213441,0.082986,0.591155,0.144874,-0.694604,0.192336,-0.288043,-152.243345,-87.748166,141.177195
02006,260158,13.379729,-0.308567,-0.640654,0.109254,0.619307,0.127034,-0.691017,0.196507,-0.292836,-145.532905,-88.018469,134.521917
02007,260258,13.898393,-0.194637,-1.287686,0.125340,0.602255,0.115578,-0.686912,0.196259,-0.299358,-137.242577,-88.250929,126.296195
02008,260358,13.903667,0.043252,-1.990633,0.113681,0.486933,0.118997,-0.687865,0.199859,-0.301180,-128.578657,-88.394728,117.690902
02009,260458,13.573086,0.371785,-2.273693,0.051090,0.316221,0.107859,-0.685786,0.201538,-0.305601,-121.832124,-88.451952,110.968290
02010,260558,12.765527,0.396824,-2.122974,-0.020964,0.159336,0.101939,-0.688298,0.204993,-0.303924,-117.792781,-88.449651,106.912664
02011,260658,11.818965,0.353098,-1.717430,-0.057777,0.019041,0.089588,-0.688755,0.207589,-0.305797,-116.566902,-88.411851,105.650437
02012,260758,10.924705,0.274000,-1.400547,-0.069975,-0.068957,0.078834,-0.686278,0.210490,-0.304644,-117.089046,-88.356543,106.129928
02013,260858,9.830243,0.160669,-1.365994,-0.062560,-0.146765,0.063858,-0.686804,0.215384,-0.302391,-119.031752,-88.287501,108.034876
02014,260958,8.663764,0.022149,-1.380591,-0.033573,-0.238200,0.042872,-0.686303,0.216871,-0.302315,-122.436955,-88.199407,111.419728
02015,261058,7.756567,-0.048237,-1.139230,0.032991,-0.308017,-0.005613,-0.686852,0.219724,-0.299163,-126.951780,-88.104336,115.953133
02016,261158,7.096164,-0.117005,-0.774451,0.141881,-0.325437,-0.081640,-0.687913,0.219571,-0.295665,-131.999206,-88.024629,121.082119
02017,261258,6.507913,-0.362873,-0.434805,0.278204,-0.271204,-0.160664,-0.686398,0.221090,-0.296588,-136.871438,-87.984320,126.114171
02018,261358,6.087376,-0.769854,-0.480528,0.410430,-0.176753,-0.219046,-0.685417,0.217563,-0.296266,-141.228864,-87.992822,130.707003
02019,261458,6.041935,-1.188732,-0.841000,0.501801,-0.071476,-0.243927,-0.686904,0.216614,-0.296817,-144.892606,-88.046748,134.658093
02020,261558,6.466989,-1.593442,-1.162816,0.549551,0.019908,-0.231636,-0.684424,0.215554,-0.296367,-147.710687,-88.132422,137.790345
02021,261658,7.365161,-1.965528,-1.264701,0.569230,0.105328,-0.202061,-0.683887,0.211183,-0.299095,-149.532263,-88.246639,139.936791
02022,261758,8.478144,-2.097731,-1.144060,0.567699,0.212168,-0.157325,-0.682873,0.211215,-0.300094,-149.782487,-88.399370,140.510279
02023,261858,9.703449,-1.992247,-1.042335,0.537266,0.335190,-0.083395,-0.684316,0.208394,-0.303246,-147.220721,-88.590318,138.253411
02024,261958,10.892549,-1.698754,-0.860928,0.496377,0.440603,0.001896,-0.682237,0.210073,-0.307667,-140.365402,-88.795842,131.678719
02025,262058,11.778180,-1.286636,-0.706060,0.432071,0.496301,0.094948,-0.682182,0.209720,-0.310691,-127.731787,-88.957447,119.288292
02026,262158,12.094628,-0.902048,-0.787504,0.355276,0.457694,0.180093,-0.681071,0.211986,-0.316587,-111.795138,-89.000340,103.550763
02027,262258,12.005982,-0.358983,-0.984147,0.287135,0.336277,0.239208,-0.682545,0.213054,-0.317536,-99.291540,-88.921094,91.207726
02028,262358,11.604225,0.234326,-0.981391,0.210997,0.230571,0.264379,-0.677482,0.217154,-0.321330,-91.805863,-88.784236,83.839538
02029,262458,10.805791,0.559607,-0.957371,0.116242,0.157480,0.252837,-0.680512,0.215112,-0.319433,-87.693343,-88.640192,79.790659
02030,262558,9.988264,0.571946,-0.840505,0.050569,0.082151,0.206923,-0.678965,0.223654,-0.321000,-85.977636,-88.520459,78.101460
02031,262658,9.314939,0.496622,-0.541660,0.027608,0.010388,0.167931,-0.677469,0.224627,-0.320949,-85.943586,-88.425317,78.081266
02032,262758,8.779585,0.430074,-0.168735,0.030888,-0.033247,0.109060,-0.676954,0.223671,-0.321999,-86.701454,-88.365461,78.855171
02033,262858,8.412926,0.297163,0.095560,0.053014,-0.062979,0.034531,-0.680935,0.225727,-0.321899,-87.916486,-88.348706,80.099118
02034,262958,8.174085,0.019687,0.242512,0.083763,-0.099888,-0.036420,-0.679475,0.227600,-0.319798,-89.810958,-88.372057,82.040409
02035,263058,8.202703,-0.272785,0.391222,0.121433,-0.129341,-0.092300,-0.678431,0.228203,-0.322271,-92.386853,-88.424911,84.684952
02036,263158,8.295612,-0.544242,0.446270,0.160657,-0.128783,-0.126580,-0.679917,0.227752,-0.322797,-95.170061,-88.493859,87.559305
02037,263258,8.270476,-0.701423,0.421175,0.202245,-0.111464,-0.136929,-0.679962,0.223172,-0.321026,-97.833649,-88.566046,90.337764
02038,263358,8.348745,-0.799064,0.298880,0.217560,-0.095651,-0.132005,-0.678975,0.223132,-0.320526,-100.373913,-88.633538,93.001581
02039,263458,8.568901,-0.846613,0.213161,0.205148,-0.085530,-0.113085,-0.679485,0.221621,-0.320102,-102.830258,-88.688640,95.574302
02040,263558,8.798996,-0.861790,0.195340,0.177111,-0.074086,-0.084595,-0.681872,0.222922,-0.325550,-105.036461,-88.726950,97.880729
02041,263658,9.005326,-0.856339,0.188680,0.132197,-0.066031,-0.047791,-0.684895,0.224368,-0.323475,-106.915551,-88.744342,99.834227
02042,263758,9.183009,-0.844983,0.259203,0.082649,-0.044074,-0.014967,-0.682376,0.224899,-0.324949,-108.052306,-88.746405,101.016835
02043,263858,9.259227,-0.804746,0.334876,0.032207,-0.018905,0.005669,-0.680913,0.222810,-0.323550,-108.424041,-88.741384,101.405357
02044,263958,9.175369,-0.819786,0.350512,-0.003513,0.002288,0.015881,-0.680889,0.225847,-0.324398,-108.207100,-88.734586,101.184614
02045,264058,9.034339,-0.872886,0.499744,-0.031280,0.015319,0.016485,-0.683350,0.226956,-0.325847,-107.682809,-88.729703,100.640559
02046,264158,8.827458,-0.969072,0.600277,-0.040309,0.021941,0.013915,-0.682347,0.225469,-0.326423,-107.023534,-88.727204,99.956337
02047,264258,8.668570,-0.908388,0.649618,-0.034594,0.014178,0.011320,-0.683299,0.229567,-0.328219,-106.573572,-88.724672,99.484780
02048,264358,8.634509,-0.835586,0.731312,-0.015337,-0.004623,0.009335,-0.682267,0.228651,-0.330269,-106.591072,-88.720095,99.491858
02049,264458,8.690831,-0.752264,0.736702,0.017857,-0.017989,0.000956,-0.684221,0.229776,-0.332218,-106.978007,-88.717884,99.887505
02050,264558,8.923092,-0.707017,0.649724,0.054801,-0.033111,-0.010600,-0.682779,0.231102,-0.329142,-107.800181,-88.719292,100.739689
02051,264658,9.225094,-0.800173,0.605746,0.078294,-0.048886,-0.022413,-0.683765,0.232139,-0.329592,-109.091574,-88.723892,102.074692
02052,264758,9.431219,-0.846581,0.589820,0.099242,-0.071822,-0.034136,-0.682748,0.233167,-0.330540,-111.040143,-88.729430,104.079054
02053,264858,9.630832,-0.863999,0.741187,0.111426,-0.084959,-0.048952,-0.682713,0.231769,-0.332616,-113.461106,-88.738257,106.562923
02054,264958,9.864819,-0.782941,0.929599,0.109850,-0.074625,-0.066391,-0.685741,0.230724,-0.330668,-115.868001,-88.756307,109.031820
02055,265058,9.944294,-0.669649,0.968324,0.094486,-0.050179,-0.081361,-0.686181,0.232371,-0.333591,-117.960645,-88.786209,111.177577
02056,265158,9.841320,-0.513454,0.882798,0.069215,-0.037571,-0.103010,-0.683200,0.232798,-0.333065,-120.170638,-88.828715,113.426204
02057,265258,9.696969,-0.251531,0.874744,0.048479,-0.038691,-0.130490,-0.685127,0.233496,-0.336539,-123.018144,-88.882204,116.300549
02058,265358,9.579860,-0.078051,0.930834,0.038054,-0.051592,-0.163578,-0.686147,0.230474,-0.335691,-127.080161,-88.943444,120.383587
02059,265458,9.484430,0.012484,1.025408,0.037660,-0.070006,-0.191427,-0.686172,0.232395,-0.334090,-132.679474,-89.003473,126.003852
02060,265558,9.540607,-0.013610,1.055500,0.051486,-0.085131,-0.216024,-0.689153,0.230972,-0.334668,-139.909993,-89.055402,133.263375
02061,265658,9.643614,-0.234101,1.017445,0.074771,-0.086183,-0.232954,-0.688106,0.228609,-0.337793,-148.365398,-89.095289,141.761189
02062,265758,9.888138,-0.549503,0.954178,0.118483,-0.082812,-0.239029,-0.684639,0.228008,-0.336818,-157.518391,-89.117009,150.981659
02063,265858,10.358064,-0.823139,0.945501,0.165775,-0.056624,-0.244751,-0.688100,0.226640,-0.338395,-166.838366,-89.130657,160.396205
02064,265958,10.880861,-1.023576,0.987993,0.209145,-0.003230,-0.247977,-0.691144,0.226543,-0.335397,-176.160450,-89.151402,169.837692
02065,266058,11.391959,-1.146128,1.066247,0.251511,0.040779,-0.245317,-0.688592,0.224679,-0.338996,174.274074,-89.173936,179.546848
02066,266158,11.882578,-1.014527,1.304760,0.266656,0.059700,-0.246348,-0.688034,0.221851,-0.342647,164.229566,-89.182533,-170.256254
02067,266258,12.436624,-0.673367,1.705761,0.242664,0.088546,-0.249927,-0.692462,0.221568,-0.345673,153.643045,-89.179518,-159.531032
02068,266358,12.917867,-0.191413,2.314113,0.146444,0.170773,-0.273391,-0.690474,0.219045,-0.345799,140.716011,-89.177729,-146.520196
02069,266458,12.686827,-0.150451,2.438417,0.115097,0.237674,-0.260429,-0.690876,0.220789,-0.350721,126.701099,-89.164440,-132.439317
02070,266558,13.033472,0.338274,2.626381,0.073612,0.314727,-0.264969,-0.693841,0.218915,-0.352323,111.141557,-89.118495,-116.837328
02071,266658,12.907462,0.402634,2.507801,0.031752,0.434097,-0.277309,-0.690263,0.218105,-0.357371,93.950696,-89.015918,-99.627512
02072,266758,11.909747,-0.051729,1.725458,0.068414,0.423835,-0.241310,-0.690185,0.220290,-0.361268,81.073035,-88.865476,-86.709957
02073,266858,11.832465,0.025217,1.250183,0.069828,0.346709,-0.251970,-0.690171,0.217847,-0.362394,73.475500,-88.679378,-79.072158
02074,266958,11.974320,0.053624,0.500102,0.052738,0.280545,-0.259523,-0.690137,0.215950,-0.364495,69.213657,-88.485691,-74.780272
02075,267058,11.821948,-0.240721,-0.386735,0.055059,0.204316,-0.248058,-0.690540,0.217196,-0.369442,67.197611,-88.308932,-72.733344
02076,267158,11.939812,-0.362569,-1.312423,0.049712,0.104093,-0.228152,-0.688010,0.218747,-0.371365,67.049842,-88.164023,-72.558448
02077,267258,11.882666,-0.391305,-2.141779,0.028648,0.020024,-0.204606,-0.691981,0.221326,-0.371739,68.062011,-88.050065,-73.556151
02078,267358,11.272059,-0.209263,-2.694252,-0.007931,-0.042615,-0.182071,-0.690979,0.219341,-0.372340,69.755116,-87.960367,-75.256204
02079,267458,10.410224,0.164147,-2.837779,-0.056063,-0.126939,-0.169924,-0.691948,0.218931,-0.373865,72.461453,-87.890720,-77.997813
02080,267558,9.830619,0.523997,-2.603049,-0.061905,-0.221863,-0.172070,-0.694465,0.219894,-0.372315,76.381564,-87.828880,-81.957497
02081,267658,9.407940,0.992776,-1.960440,-0.038959,-0.273818,-0.194761,-0.695462,0.224370,-0.371587,80.884882,-87.749441,-86.487856
02082,267758,8.673580,1.320501,-1.166431,-0.009494,-0.339397,-0.209016,-0.696520,0.221252,-0.368741,86.003989,-87.651744,-91.617899
02083,267858,8.560585,1.811696,-0.437588,-0.032584,-0.383621,-0.219066,-0.696056,0.222643,-0.366666,91.253375,-87.530632,-96.892016
02084,267958,8.769936,2.252235,0.013675,-0.088085,-0.310769,-0.222730,-0.699577,0.224595,-0.364566,95.027875,-87.392650,-100.722200
02085,268058,8.958213,2.520648,-0.150938,-0.161197,-0.148112,-0.211885,-0.699101,0.222546,-0.363668,96.456680,-87.262625,-102.246541
02086,268158,8.770241,2.604934,-0.718911,-0.225714,0.019538,-0.202599,-0.702122,0.224988,-0.361542,95.818946,-87.147621,-101.739105
02087,268258,8.748433,2.446660,-1.402261,-0.286824,0.134844,-0.200776,-0.703072,0.225124,-0.364042,93.922075,-87.038680,-100.005966
02088,268358,8.920208,2.074997,-1.899705,-0.370077,0.205757,-0.186734,-0.701501,0.226289,-0.367989,91.356966,-86.936255,-97.651297
02089,268458,9.258555,1.464961,-2.138081,-0.458589,0.220599,-0.159246,-0.701030,0.226707,-0.366464,88.747170,-86.844088,-95.302460
02090,268558,9.772995,0.698639,-2.061552,-0.507570,0.182963,-0.132768,-0.699012,0.230710,-0.367260,86.619213,-86.762777,-93.464113
02091,268658,10.188911,0.087778,-1.914676,-0.499762,0.107603,-0.095299,-0.699986,0.227310,-0.368937,85.308082,-86.702914,-92.439281
02092,268758,10.439460,-0.240136,-1.693487,-0.439666,0.023533,-0.050259,-0.700971,0.228845,-0.369361,84.853253,-86.672035,-92.237612
02093,268858,10.659340,-0.187615,-1.355023,-0.366046,-0.034650,-0.023919,-0.697946,0.233354,-0.370631,84.991069,-86.659140,-92.587302
02094,268958,10.606194,0.181256,-1.062773,-0.299381,-0.066856,-0.009924,-0.703003,0.232742,-0.366660,85.469008,-86.655679,-93.239414
02095,269058,10.269029,0.610603,-0.723496,-0.247571,-0.089516,-0.007248,-0.701456,0.236326,-0.368980,86.195558,-86.654297,-94.110821
02096,269158,9.703116,0.935022,-0.478581,-0.219104,-0.107149,-0.028766,-0.704491,0.236253,-0.366482,87.120763,-86.640457,-95.164896
02097,269258,9.252958,1.211749,-0.281012,-0.210620,-0.117581,-0.057016,-0.703535,0.239605,-0.363805,88.152500,-86.609623,-96.320857
02098,269358,8.828438,1.367548,-0.068453,-0.219470,-0.121913,-0.079571,-0.707523,0.238173,-0.363883,89.203470,-86.564674,-97.501228
02099,269458,8.515063,1.466678,0.157973,-0.233593,-0.107583,-0.083013,-0.707541,0.238125,-0.362883,90.082160,-86.516502,-98.517195
02100,269558,8.235642,1.518485,0.254502,-0.253691,-0.073876,-0.074233,-0.706011,0.242658,-0.364153,90.611455,-86.472705,-99.194724
02101,269658,8.012404,1.529397,0.265746,-0.273091,-0.042583,-0.057882,-0.707059,0.239564,-0.361807,90.829948,-86.438206,-99.572047
02102,269758,7.814098,1.459354,0.172406,-0.297378,-0.021491,-0.042532,-0.706556,0.242545,-0.361654,90.838877,-86.412609,-99.753376
02103,269858,7.691608,1.302319,-0.015029,-0.312934,-0.010864,-0.024908,-0.710556,0.239595,-0.361308,90.743564,-86.397184,-99.839208
02104,269958,7.594645,1.069791,-0.130829,-0.309069,-0.018808,0.001259,-0.708039,0.243589,-0.362104,90.725968,-86.396686,-100.000703
02105,270058,7.571945,0.801458,-0.244439,-0.285155,-0.040603,0.029618,-0.711557,0.242078,-0.360682,90.925013,-86.412237,-100.365538
02106,270158,7.465928,0.587901,-0.361043,-0.257865,-0.071282,0.053564,-0.709049,0.246547,-0.360952,91.429632,-86.441005,-101.020861
02107,270258,7.370618,0.358042,-0.389839,-0.224249,-0.111242,0.078656,-0.710071,0.247487,-0.359402,92.343757,-86.482889,-102.067139
02108,270358,7.494260,0.344053,-0.431852,-0.180406,-0.151303,0.101688,-0.712076,0.245999,-0.358979,93.697980,-86.535467,-103.529102
02109,270458,7.906136,0.571773,-0.380117,-0.146600,-0.181201,0.119347,-0.711581,0.248957,-0.358327,95.416382,-86.594369,-105.336403
02110,270558,8.509989,0.918246,-0.320867,-0.131859,-0.187072,0.123960,-0.715106,0.248417,-0.356354,97.266451,-86.652120,-107.267034
02111,270658,9.090077,1.283106,-0.162804,-0.125206,-0.189000,0.128532,-0.716160,0.247791,-0.353381,99.210828,-86.708496,-109.288214
02112,270758,9.611537,1.637815,0.113112,-0.132036,-0.187159,0.126158,-0.714624,0.249856,-0.355278,101.194731,-86.759651,-111.352819
02113,270858,9.954402,1.822594,0.378817,-0.125038,-0.174826,0.126738,-0.715678,0.248731,-0.352330,103.122687,-86.808550,-113.357301
02114,270958,10.238711,1.915236,0.548959,-0.122948,-0.148463,0.118489,-0.716689,0.251190,-0.351204,104.822565,-86.852899,-115.132100
02115,271058,10.270716,1.895560,0.599969,-0.127396,-0.115137,0.114851,-0.714206,0.252123,-0.350653,106.218863,-86.897656,-116.605375
02116,271158,9.885164,1.691042,0.583636,-0.120692,-0.081389,0.121924,-0.716174,0.255192,-0.351501,107.337102,-86.950083,-117.796304
02117,271258,9.502791,1.402935,0.474754,-0.113815,-0.043519,0.130865,-0.715706,0.254115,-0.350052,108.135887,-87.012910,-118.663344
02118,271358,9.252687,1.065445,0.333280,-0.107124,-0.002459,0.146638,-0.716207,0.257587,-0.349374,108.594149,-87.091215,-119.185526
02119,271458,9.067365,0.722140,0.169686,-0.102667,0.012483,0.169014,-0.716715,0.257072,-0.348900,109.002924,-87.184210,-119.655562
02120,271558,9.048794,0.539999,0.033277,-0.100516,-0.008182,0.197542,-0.717174,0.258173,-0.350848,109.793720,-87.288447,-120.506785
02121,271658,9.138746,0.450404,0.116653,-0.101644,-0.046291,0.228115,-0.718675,0.259667,-0.350273,111.235534,-87.400631,-122.010289
02122,271758,9.365466,0.402547,0.349417,-0.102303,-0.076094,0.247037,-0.715214,0.261034,-0.348696,113.267973,-87.514240,-124.105237
02123,271858,9.664242,0.406845,0.722205,-0.101238,-0.087134,0.252168,-0.715190,0.264072,-0.349544,115.663254,-87.624248,-126.562564
02124,271958,9.875217,0.462007,0.933690,-0.092157,-0.075718,0.250943,-0.717211,0.263533,-0.348070,118.139932,-87.732075,-129.095954
02125,272058,10.085803,0.563150,0.994454,-0.092747,-0.031066,0.246052,-0.714706,0.266507,-0.348417,120.238105,-87.845757,-131.250704
02126,272158,10.130394,0.668189,0.858903,-0.106177,0.037263,0.248208,-0.717687,0.265582,-0.348968,121.645758,-87.978029,-132.722009
02127,272258,10.026012,0.824098,0.653442,-0.139362,0.106420,0.257126,-0.715606,0.268258,-0.353339,122.302531,-88.134625,-133.460903
02128,272358,9.911870,0.993235,0.394090,-0.176136,0.153379,0.261408,-0.712649,0.271602,-0.351161,122.347370,-88.307516,-133.608590
02129,272458,9.793164,1.101053,0.234971,-0.198778,0.172690,0.258313,-0.712104,0.271715,-0.353660,122.011146,-88.484801,-133.388042
02130,272558,9.663686,1.088310,0.182301,-0.191459,0.166289,0.251127,-0.711586,0.272751,-0.354608,121.646263,-88.656601,-133.134662
02131,272658,9.680015,1.026439,0.307298,-0.149859,0.149513,0.236116,-0.712558,0.275805,-0.355456,121.397483,-88.815998,-132.973600
02132,272758,9.951950,0.874723,0.548446,-0.083679,0.151059,0.218816,-0.711582,0.274744,-0.354507,120.798678,-88.967333,-132.424540
02133,272858,10.341078,0.698632,0.727921,-0.005964,0.179527,0.193706,-0.711535,0.275363,-0.356980,118.671521,-89.113993,-130.302414
02134,272958,10.727994,0.428530,0.933866,0.062504,0.223622,0.176687,-0.707500,0.277413,-0.359377,113.657524,-89.260668,-125.254012
02135,273058,10.953847,0.111980,1.209198,0.120472,0.281139,0.164968,-0.711962,0.278529,-0.360327,103.076885,-89.400761,-114.605540
02136,273158,11.459580,-0.166575,1.305527,0.175298,0.364594,0.166469,-0.708422,0.277123,-0.363401,81.500630,-89.505035,-92.929785
02137,273258,12.184312,-0.423558,1.044512,0.193095,0.470578,0.176990,-0.705376,0.278217,-0.366348,48.675268,-89.480986,-59.994447
02138,273358,12.648411,-0.501245,0.707073,0.238649,0.537460,0.194020,-0.703762,0.277510,-0.372896,23.359317,-89.291258,-34.542235
02139,273458,13.107359,-0.416728,0.275375,0.261193,0.557109,0.207292,-0.703655,0.280266,-0.378266,9.685869,-89.015922,-20.719513
02140,273558,13.550400,-0.271969,-0.657591,0.270849,0.550677,0.212017,-0.700160,0.279736,-0.378791,2.152582,-88.713064,-13.031373
02141,273658,13.705722,-0.036415,-1.485365,0.283203,0.476216,0.215773,-0.698533,0.281544,-0.385711,-2.572710,-88.438811,-8.144113
02142,273758,13.345794,0.272556,-2.252367,0.268145,0.308978,0.207546,-0.698015,0.282083,-0.386685,-6.024717,-88.252719,-4.538746
02143,273858,12.472128,0.518242,-2.788193,0.206206,0.067789,0.179009,-0.695468,0.282188,-0.389683,-8.987878,-88.200381,-1.457723
02144,273958,11.677487,0.419324,-2.776039,0.126302,-0.164636,0.144499,-0.697950,0.287210,-0.389430,-12.084558,-88.277733,1.711068
02145,274058,10.912099,0.141490,-2.520076,0.084744,-0.353555,0.129504,-0.696541,0.286471,-0.384957,-16.256497,-88.455958,5.931535
02146,274158,10.077113,-0.059492,-2.182806,0.074368,-0.513867,0.119789,-0.698563,0.290392,-0.382755,-22.760642,-88.711000,12.478551
02147,274258,9.190641,-0.245286,-1.729738,0.082537,-0.642005,0.105388,-0.700170,0.290127,-0.376758,-34.139173,-89.007373,23.904881
02148,274358,8.353349,-0.499346,-1.147026,0.137972,-0.728493,0.069320,-0.703203,0.291050,-0.374209,-55.727959,-89.280256,45.573337
02149,274458,7.642577,-0.866252,-0.638679,0.246104,-0.741573,0.016978,-0.705780,0.289378,-0.369788,-91.690820,-89.396847,81.677776
02150,274558,7.097229,-1.211612,-0.510759,0.397000,-0.703644,-0.039355,-0.708361,0.290672,-0.364714,-125.794891,-89.284811,116.009803
02151,274658,6.839101,-1.506146,-0.557888,0.545759,-0.610714,-0.084524,-0.710949,0.287979,-0.359844,-145.088054,-89.067249,135.616022
02152,274758,7.062814,-1.633845,-0.759246,0.673623,-0.458915,-0.118873,-0.709934,0.283053,-0.361597,-155.316446,-88.872843,146.230508
02153,274858,7.663890,-1.610561,-0.950349,0.748543,-0.266334,-0.143513,-0.712501,0.281904,-0.357650,-161.362661,-88.761805,152.705466
02154,274958,8.405539,-1.448542,-1.017207,0.756403,-0.084286,-0.159866,-0.715981,0.275032,-0.359006,-165.631904,-88.742012,157.407733
02155,275058,9.118970,-1.213041,-0.943489,0.695299,0.060936,-0.144009,-0.714921,0.274188,-0.362556,-168.656028,-88.794865,160.829577
02156,275158,9.834246,-0.817041,-0.780368,0.590181,0.177316,-0.095446,-0.715370,0.270853,-0.365732,-170.107369,-88.905193,162.618000
02157,275258,10.497375,-0.335618,-0.761984,0.476345,0.255777,-0.038371,-0.713864,0.266892,-0.366935,-169.653547,-89.053690,162.435661
02158,275358,10.981227,0.299235,-1.011461,0.377855,0.257773,0.014024,-0.712854,0.264433,-0.368061,-167.023350,-89.197115,160.020262
02159,275458,11.179513,0.874986,-1.297944,0.305602,0.183022,0.052841,-0.715366,0.262930,-0.367138,-162.618268,-89.290865,155.788477
02160,275558,11.077162,1.103456,-1.552633,0.246337,0.090419,0.068397,-0.716805,0.262600,-0.370163,-158.042856,-89.326943,151.352431
02161,275658,10.586247,0.949051,-1.594014,0.188954,0.008642,0.063745,-0.716790,0.265613,-0.370511,-155.008430,-89.317429,148.424594
02162,275758,9.949497,0.658422,-1.440903,0.140779,-0.077800,0.064006,-0.714349,0.263958,-0.368087,-153.879676,-89.261902,147.374941
02163,275858,9.383028,0.324433,-1.104737,0.106323,-0.171636,0.066078,-0.718799,0.261635,-0.370214,-154.514078,-89.157386,148.068845
02164,275958,9.055653,0.096583,-0.686040,0.081312,-0.258618,0.055651,-0.718361,0.264448,-0.366563,-156.545970,-89.009762,150.146106
02165,276058,8.908886,-0.033652,-0.349128,0.071184,-0.322716,0.037939,-0.720396,0.261394,-0.364717,-159.182041,-88.830686,152.821953
02166,276158,8.878984,-0.123450,-0.005038,0.072478,-0.358831,0.003878,-0.720875,0.261948,-0.365691,-162.165689,-88.636271,155.846381
02167,276258,8.893205,-0.295287,0.160127,0.095541,-0.352002,-0.027539,-0.724446,0.261288,-0.361220,-164.983484,-88.447582,158.718368
02168,276358,8.891391,-0.457291,0.166111,0.123977,-0.323243,-0.047595,-0.724505,0.259649,-0.358297,-167.415511,-88.274512,161.220983
02169,276458,8.862326,-0.653675,0.137393,0.153085,-0.294103,-0.052038,-0.727084,0.256483,-0.353952,-169.361274,-88.115724,163.254011
02170,276558,8.895842,-0.779966,0.126178,0.177563,-0.257054,-0.044022,-0.725055,0.256049,-0.355976,-170.760252,-87.975272,164.754161
02171,276658,9.143876,-0.813424,0.144837,0.198933,-0.213989,-0.030379,-0.728545,0.254610,-0.356054,-171.659677,-87.857027,165.766817
02172,276758,9.370902,-0.731359,0.155219,0.219593,-0.181843,-0.014605,-0.730574,0.255043,-0.354029,-172.157111,-87.755318,166.389120
02173,276858,9.496128,-0.610626,0.174109,0.222234,-0.164723,0.003692,-0.730594,0.253999,-0.353081,-172.318831,-87.661788,166.677009
02174,276958,9.474775,-0.559528,0.212595,0.209648,-0.160647,0.023195,-0.732118,0.252954,-0.351632,-172.201886,-87.569073,166.678803
02175,277058,9.413219,-0.517419,0.253682,0.176838,-0.161058,0.041143,-0.735153,0.253379,-0.349109,-171.877088,-87.474715,166.453743
02176,277158,9.374144,-0.491001,0.275899,0.124872,-0.154657,0.053629,-0.734620,0.251972,-0.351184,-171.434567,-87.382896,166.081028
02177,277258,9.264424,-0.486336,0.310748,0.065398,-0.135446,0.067419,-0.735146,0.251908,-0.349685,-170.851176,-87.300603,165.533162
02178,277358,9.173760,-0.479686,0.359958,0.019019,-0.096111,0.076758,-0.737663,0.252872,-0.348135,-170.139365,-87.239386,164.830101
02179,277458,9.144151,-0.433750,0.293721,-0.005848,-0.041936,0.084176,-0.738122,0.253973,-0.350084,-169.270263,-87.207505,163.955279
02180,277558,9.125620,-0.399725,0.207321,-0.018093,0.007796,0.089174,-0.737672,0.252848,-0.347636,-168.253396,-87.202333,162.925483
02181,277658,9.178114,-0.430909,0.235952,-0.019029,0.038179,0.079322,-0.742143,0.254438,-0.348061,-167.275072,-87.214508,161.933748
02182,277758,9.259348,-0.443449,0.184289,-0.030683,0.057421,0.063295,-0.742111,0.251545,-0.350212,-166.425668,-87.238745,161.064421
02183,277858,9.335170,-0.568400,0.240657,-0.017292,0.070458,0.040646,-0.741139,0.253449,-0.348611,-165.777979,-87.272809,160.404751
02184,277958,9.397809,-0.655014,0.207083,0.006045,0.076930,0.009396,-0.742110,0.252541,-0.350162,-165.448717,-87.314650,160.077281
02185,278058,9.477128,-0.724398,0.141924,0.036081,0.078854,-0.023634,-0.744630,0.251512,-0.348714,-165.482261,-87.362273,160.130260
02186,278158,9.616223,-0.750425,0.080583,0.072080,0.091124,-0.053037,-0.745066,0.249696,-0.352314,-165.819375,-87.420880,160.507781
02187,278258,9.705511,-0.755718,0.028116,0.099632,0.121082,-0.081754,-0.744058,0.251199,-0.352737,-166.428897,-87.499958,161.173771
02188,278358,9.671766,-0.807219,-0.074599,0.128462,0.146689,-0.099070,-0.746561,0.249719,-0.352314,-167.215171,-87.595221,162.033178
02189,278458,9.641910,-0.838254,-0.149080,0.145380,0.158625,-0.114025,-0.743013,0.247341,-0.355939,-168.232423,-87.698400,163.133411
02190,278558,9.749796,-0.909417,-0.177154,0.163065,0.168079,-0.123274,-0.748489,0.243965,-0.356619,-169.447817,-87.807022,164.442013
02191,278658,10.041056,-0.998327,-0.108991,0.194791,0.189201,-0.132201,-0.747986,0.246946,-0.356466,-170.861134,-87.927241,165.966782
02192,278758,10.468496,-1.078486,0.059385,0.258325,0.235097,-0.141006,-0.751941,0.243120,-0.358670,-172.462574,-88.072686,167.716103
02193,278858,10.873529,-1.069700,0.219606,0.307227,0.304854,-0.144782,-0.751404,0.238748,-0.361397,-174.248314,-88.256230,169.677702
02194,278958,11.161656,-0.986880,0.630753,0.315927,0.375888,-0.150353,-0.750315,0.238475,-0.366420,-176.493727,-88.478311,172.103949
02195,279058,11.539972,-0.664836,1.065234,0.281864,0.437412,-0.160540,-0.749776,0.235598,-0.369072,-179.804205,-88.732290,175.575790
02196,279158,11.742240,-0.185798,1.218007,0.201709,0.484182,-0.165902,-0.750736,0.230254,-0.371850,174.856023,-89.006029,-178.968976
02197,279258,11.636950,0.225010,1.120590,0.106570,0.512856,-0.165105,-0.751634,0.233002,-0.376722,165.227361,-89.280369,-169.279367
02198,279358,11.749038,0.504802,0.630265,0.061838,0.542735,-0.158477,-0.752075,0.228694,-0.380449,144.468154,-89.527415,-148.484856
02199,279458,12.493948,0.671824,-0.168316,0.085598,0.584701,-0.153546,-0.752508,0.228871,-0.383948,97.749970,-89.633523,-101.717720
02200,279558,13.064294,0.738871,-1.268050,0.142424,0.593230,-0.136211,-0.750439,0.225070,-0.388649,56.705402,-89.471146,-60.591646
02201,279658,12.771956,0.362389,-2.426504,0.201338,0.494352,-0.110269,-0.754319,0.226395,-0.394097,41.493442,-89.235056,-45.264606
02202,279758,11.760055,-0.011565,-3.364831,0.225773,0.260226,-0.101788,-0.752308,0.226411,-0.395096,38.188973,-89.082453,-41.831617
02203,279858,11.026182,-0.344251,-3.098417,0.153323,-0.008935,-0.098356,-0.755256,0.223590,-0.397748,41.160334,-89.049762,-44.716705
02204,279958,10.450235,-0.478027,-2.229570,0.087922,-0.227114,-0.074041,-0.756316,0.223935,-0.394225,48.838085,-89.111272,-52.346238
02205,280058,9.975520,-0.201539,-1.581180,0.036796,-0.373882,-0.050516,-0.762365,0.225830,-0.390126,62.057240,-89.208901,-65.546883
02206,280158,9.271171,0.260988,-1.087693,-0.011887,-0.440457,-0.035326,-0.763941,0.226634,-0.385578,80.640918,-89.270526,-84.140152
02207,280258,8.678908,0.838127,-0.387848,-0.056363,-0.447568,-0.034298,-0.766969,0.225588,-0.383630,100.501515,-89.247264,-104.035864
02208,280358,8.413169,1.288189,0.258975,-0.108055,-0.362860,-0.040035,-0.769012,0.228465,-0.380480,114.243235,-89.162035,-117.842025
02209,280458,8.308947,1.484049,0.568620,-0.153063,-0.188645,-0.040708,-0.767546,0.227870,-0.379005,119.746984,-89.091520,-123.435365
02210,280558,8.256762,1.434677,0.422623,-0.203598,0.011181,-0.027687,-0.768026,0.227927,-0.380005,118.758155,-89.080227,-122.564352
02211,280658,8.168855,1.282732,0.059275,-0.246559,0.172704,-0.003481,-0.770504,0.224527,-0.381183,112.849565,-89.120923,-116.797619
02212,280758,8.248073,1.205140,-0.316177,-0.285679,0.273973,0.011268,-0.768008,0.227477,-0.381030,102.727537,-89.174510,-106.839497
02213,280858,8.707217,1.093328,-0.574496,-0.315223,0.330718,0.019967,-0.768947,0.228633,-0.383978,89.254788,-89.205059,-93.547379
02214,280958,9.254369,0.821296,-0.827650,-0.327165,0.342557,0.032433,-0.770394,0.229276,-0.386452,74.915419,-89.195502,-79.395446
02215,281058,9.765433,0.506897,-1.014331,-0.312817,0.293415,0.053178,-0.769398,0.228762,-0.386477,63.011680,-89.162565,-67.671098
02216,281158,10.213992,0.294205,-1.078773,-0.296274,0.223445,0.087625,-0.766859,0.230337,-0.388900,53.731469,-89.137290,-58.560997
02217,281258,10.577022,0.150587,-1.142231,-0.265403,0.148243,0.117019,-0.768848,0.231864,-0.388824,46.435741,-89.133464,-51.417875
02218,281358,10.696738,0.051247,-1.175753,-0.214345,0.050548,0.129602,-0.767334,0.232386,-0.389798,41.395666,-89.163458,-46.501417
02219,281458,10.530358,0.074581,-1.138862,-0.177250,-0.068273,0.136113,-0.770829,0.233414,-0.389248,38.859968,-89.243023,-44.068387
02220,281558,10.240395,0.242458,-0.872433,-0.177465,-0.167938,0.127512,-0.772410,0.236685,-0.384073,39.115441,-89.363175,-44.426914
02221,281658,9.937444,0.390146,-0.484975,-0.191366,-0.225458,0.111696,-0.770905,0.237183,-0.384547,42.726866,-89.502151,-48.149515
02222,281758,9.591840,0.537182,-0.081090,-0.202696,-0.260563,0.092006,-0.775919,0.240155,-0.382397,52.728904,-89.641425,-58.269325
02223,281858,9.277162,0.720035,0.179950,-0.218050,-0.286379,0.071531,-0.777473,0.243000,-0.378746,77.626012,-89.749232,-83.293073
02224,281958,8.963905,0.875799,0.286067,-0.238348,-0.293175,0.050746,-0.777534,0.245322,-0.375120,117.648086,-89.755218,-123.453448
02225,282058,8.611246,0.941917,0.307459,-0.265726,-0.292691,0.035354,-0.779577,0.242742,-0.372749,144.793221,-89.656544,-150.752579
02226,282158,8.364634,0.919305,0.243524,-0.294053,-0.289383,0.026988,-0.781125,0.244116,-0.369674,157.509854,-89.517550,-163.639441
02227,282258,8.218127,0.876975,0.223306,-0.327917,-0.285032,0.024186,-0.780155,0.245024,-0.368124,164.093607,-89.367417,-170.412835
02228,282358,8.284006,0.793683,0.240743,-0.355104,-0.269925,0.026404,-0.784693,0.245450,-0.365101,168.028048,-89.220756,-174.552505
02229,282458,8.527754,0.752590,0.214808,-0.375257,-0.250724,0.031978,-0.784244,0.243826,-0.362678,170.749878,-89.082839,-177.491134
02230,282558,8.719894,0.721816,0.141673,-0.385933,-0.233692,0.040407,-0.784751,0.249267,-0.361399,172.917509,-88.953561,-179.881724
02231,282658,8.857429,0.623529,0.080851,-0.388408,-0.227469,0.040764,-0.787772,0.246751,-0.360028,174.573878,-88.826570,178.237516
02232,282758,8.961717,0.503110,0.020510,-0.372734,-0.230470,0.036421,-0.789343,0.245087,-0.356106,175.788168,-88.696796,176.807826
02233,282858,9.074294,0.400315,0.041439,-0.347631,-0.236965,0.030520,-0.789868,0.250977,-0.353802,176.649630,-88.562558,175.745369
02234,282958,9.134616,0.352003,0.023581,-0.317288,-0.247781,0.026428,-0.790866,0.249997,-0.353853,177.288073,-88.421693,174.923329
02235,283058,9.155735,0.349338,-0.013105,-0.286742,-0.259077,0.019036,-0.791440,0.249314,-0.349880,177.690807,-88.273994,174.354542
02236,283158,9.115660,0.385699,-0.057168,-0.260929,-0.265953,0.018725,-0.794432,0.247368,-0.349983,178.029540,-88.122254,173.864535
02237,283258,9.062985,0.421913,-0.052070,-0.234249,-0.254778,0.023097,-0.793477,0.250221,-0.347331,178.386670,-87.976907,173.371364
02238,283358,9.068142,0.424721,-0.046723,-0.197055,-0.223497,0.028703,-0.796506,0.248180,-0.345434,178.782483,-87.849454,172.860761
02239,283458,9.220209,0.445620,-0.045816,-0.148206,-0.183236,0.038978,-0.796574,0.251973,-0.341233,179.295931,-87.745027,172.260398
02240,283558,9.458954,0.417502,-0.025893,-0.100444,-0.143088,0.050488,-0.798080,0.250478,-0.340810,179.946511,-87.663424,171.550134
02241,283658,9.735694,0.329306,-0.004922,-0.057283,-0.093380,0.056036,-0.798074,0.249007,-0.341386,-179.341465,-87.609959,170.803084
02242,283758,9.899443,0.220200,-0.047676,-0.033923,-0.061652,0.066339,-0.798540,0.251080,-0.342784,-178.498755,-87.574152,169.938600
02243,283858,9.944610,0.287905,0.010267,-0.031924,-0.041979,0.079391,-0.800542,0.251088,-0.342284,-177.494726,-87.548776,168.913773
02244,283958,9.897821,0.403198,0.149113,-0.051117,-0.022941,0.093730,-0.799552,0.252542,-0.341708,-176.317068,-87.533032,167.704125
02245,284058,9.824528,0.513227,0.214766,-0.075033,-0.007261,0.110569,-0.799576,0.250003,-0.340835,-174.928916,-87.524363,166.270050
02246,284158,9.890523,0.577574,0.256326,-0.066710,0.016976,0.127021,-0.799062,0.253507,-0.341157,-173.293751,-87.526926,164.593489
02247,284258,9.936213,0.638567,0.158302,-0.050526,0.059685,0.142250,-0.802501,0.254181,-0.343632,-171.362424,-87.550335,162.629775
02248,284358,9.892398,0.634395,0.051842,-0.036104,0.107040,0.149885,-0.803026,0.254615,-0.342107,-169.166126,-87.596708,160.409162
02249,284458,9.886654,0.605946,0.120061,-0.022039,0.158874,0.153374,-0.803985,0.255225,-0.344082,-166.665110,-87.667832,157.891719
02250,284558,9.946532,0.621412,0.256498,0.000281,0.220218,0.158262,-0.799984,0.253716,-0.345156,-163.681397,-87.767188,154.904132
02251,284658,10.078483,0.660193,0.346680,0.015474,0.261269,0.159242,-0.801349,0.258536,-0.351425,-160.193354,-87.881891,151.420766
02252,284758,10.265572,0.809114,0.586013,0.026977,0.275914,0.164924,-0.800355,0.257026,-0.351501,-156.134600,-87.994259,147.373151
02253,284858,10.598239,0.911173,0.781732,0.028370,0.286889,0.167803,-0.799334,0.255588,-0.353077,-151.486102,-88.100206,142.736497
02254,284958,11.073724,0.938830,0.850467,0.026527,0.322367,0.174502,-0.800696,0.262401,-0.359244,-145.867043,-88.207029,137.127986
02255,285058,11.620921,0.771050,0.642086,0.034919,0.382621,0.178348,-0.795165,0.259968,-0.362368,-138.781306,-88.319295,130.057254
02256,285158,11.936644,0.447548,0.223844,0.057427,0.428301,0.180649,-0.800115,0.261614,-0.363793,-130.062328,-88.418514,121.365899
02257,285258,11.877042,0.243374,-0.138291,0.059825,0.425389,0.170010,-0.795519,0.262828,-0.369738,-120.603454,-88.481391,111.936086
02258,285358,11.938629,0.038113,-0.494476,0.046700,0.396983,0.151653,-0.794440,0.262531,-0.374262,-111.358065,-88.504220,102.712494
02259,285458,12.462490,-0.117524,-0.975806,0.027261,0.380389,0.145947,-0.793386,0.263656,-0.377210,-102.464251,-88.488803,93.829471
02260,285558,12.969573,-0.259516,-1.572850,0.025328,0.334718,0.148168,-0.792367,0.266179,-0.378082,-94.903057,-88.434942,86.278302
02261,285658,12.976744,-0.283059,-2.107884,0.016667,0.231514,0.155165,-0.790277,0.268381,-0.382978,-90.022280,-88.352944,81.403396
02262,285758,12.501944,-0.228143,-2.392661,0.002491,0.091895,0.153618,-0.790776,0.267891,-0.383003,-88.274088,-88.265326,79.654109
02263,285858,11.841489,-0.358047,-2.443979,0.010675,-0.071154,0.142392,-0.792258,0.269932,-0.383402,-89.625868,-88.185674,81.010903
02264,285958,11.224603,-0.532031,-2.275794,0.026413,-0.236744,0.137697,-0.790273,0.270873,-0.382851,-93.723502,-88.103977,85.124082
02265,286058,10.492065,-0.769507,-1.982814,0.031742,-0.350456,0.139072,-0.790820,0.274722,-0.379649,-99.312545,-88.003070,90.732813
02266,286158,9.828392,-0.863200,-1.587706,0.036602,-0.403102,0.133210,-0.789917,0.274465,-0.374650,-105.130472,-87.880578,96.573759
02267,286258,9.176980,-0.745779,-1.103764,0.038222,-0.394921,0.108438,-0.790392,0.277012,-0.375523,-110.277534,-87.753573,101.744765
02268,286358,8.342795,-0.766546,-0.694152,0.065829,-0.360978,0.071763,-0.791435,0.276908,-0.373024,-114.610971,-87.637609,106.117761
02269,286458,7.519453,-0.801633,-0.343941,0.130528,-0.327900,0.023282,-0.795465,0.277349,-0.370501,-118.401718,-87.542819,109.985035
02270,286558,7.086487,-1.005116,-0.055424,0.218334,-0.266773,-0.020627,-0.795993,0.276288,-0.369053,-121.471123,-87.477766,113.180891
02271,286658,6.854062,-1.037111,-0.068503,0.318285,-0.188041,-0.062120,-0.795054,0.275630,-0.366079,-123.783908,-87.450618,115.676841
02272,286758,6.977686,-1.152068,-0.332208,0.412940,-0.089329,-0.090205,-0.795030,0.273211,-0.367706,-125.169959,-87.465192,117.299466
02273,286858,7.351248,-1.291143,-0.711856,0.475506,0.029319,-0.102524,-0.796975,0.268903,-0.370934,-125.372925,-87.523762,117.773735
02274,286958,7.966407,-1.451519,-1.037096,0.499409,0.153513,-0.100078,-0.796988,0.266387,-0.370561,-124.167510,-87.621916,116.852067
02275,287058,8.729076,-1.482760,-1.081410,0.490062,0.272726,-0.082894,-0.794417,0.265070,-0.375134,-121.283952,-87.747261,114.245633
02276,287158,9.523859,-1.435683,-0.924634,0.447494,0.375461,-0.043782,-0.792864,0.261229,-0.378836,-116.427302,-87.874039,109.640515
02277,287258,10.382931,-1.215978,-0.692755,0.372940,0.438497,0.003139,-0.793825,0.260345,-0.380886,-109.830641,-87.972130,103.251862
02278,287358,11.114092,-0.909212,-0.594033,0.302318,0.436663,0.050887,-0.792727,0.260096,-0.386409,-102.571034,-88.014945,96.159661
02279,287458,11.681104,-0.515210,-0.718759,0.242336,0.377954,0.089989,-0.791671,0.257259,-0.390060,-96.051762,-88.000023,89.773917
02280,287558,11.813640,-0.157145,-1.004282,0.186140,0.276168,0.112121,-0.789573,0.258987,-0.395481,-91.366768,-87.947067,85.191239
02281,287658,11.510088,0.051591,-1.136178,0.111026,0.160470,0.117766,-0.792107,0.255443,-0.393660,-88.778241,-87.880656,82.663171
02282,287758,10.865015,0.100028,-0.927814,0.041944,0.062682,0.105144,-0.789601,0.259413,-0.393956,-87.846324,-87.820352,81.753156
02283,287858,10.188516,0.031086,-0.497568,0.007317,-0.013792,0.074250,-0.789589,0.260433,-0.394405,-88.088275,-87.779097,81.997981
02284,287958,9.632247,-0.043640,-0.087928,0.004853,-0.052239,0.037528,-0.791086,0.258963,-0.394482,-88.869802,-87.759382,82.781376
02285,288058,9.151628,-0.182949,0.206028,0.027096,-0.066086,-0.006069,-0.794113,0.258415,-0.392509,-89.823843,-87.764279,83.750172
02286,288158,8.686306,-0.294254,0.330073,0.054219,-0.084998,-0.046693,-0.791578,0.257500,-0.395058,-91.055300,-87.791647,85.012132
02287,288258,8.309336,-0.337995,0.405439,0.086410,-0.111519,-0.083955,-0.791107,0.257918,-0.393533,-92.723853,-87.838606,86.729933
02288,288358,8.134787,-0.366730,0.499597,0.123974,-0.125149,-0.115872,-0.793658,0.255322,-0.390662,-94.695378,-87.901209,88.772393
02289,288458,8.150782,-0.411789,0.554777,0.167663,-0.120271,-0.137889,-0.795609,0.257941,-0.392535,-96.725625,-87.973954,90.898575
02290,288558,8.254090,-0.462741,0.492085,0.210460,-0.112983,-0.152036,-0.794607,0.255458,-0.393161,-98.797940,-88.052507,93.091293
02291,288658,8.534236,-0.487549,0.353832,0.221260,-0.123521,-0.150812,-0.794137,0.250420,-0.392415,-101.216363,-88.126282,95.636408
02292,288758,8.826977,-0.514477,0.347825,0.199522,-0.134997,-0.140767,-0.792138,0.248419,-0.393016,-104.003213,-88.189073,98.537586
02293,288858,9.126923,-0.592421,0.333584,0.160522,-0.137704,-0.121050,-0.793658,0.244907,-0.392195,-106.949156,-88.235812,101.575500
