PacketCounter,SampleTimeFine,Acc_X,Acc_Y,Acc_Z,Gyr_X,Gyr_Y,Gyr_Z,Mag_X,Mag_Y,Mag_Z,Roll,Pitch,Yaw
00750,182619,9.807072,0.279225,1.095276,-0.039744,0.006755,-0.017461,-0.444388,0.009363,-0.376757,9.006185,-83.604737,-8.951051
00751,182719,9.775943,0.281255,1.030774,-0.038692,0.028787,-0.017580,-0.444431,0.006277,-0.374911,9.075129,-83.589098,-9.039445
00752,182819,9.782078,0.288391,1.045023,-0.035428,0.033412,-0.013888,-0.443941,0.006744,-0.374385,9.121359,-83.571291,-9.103614
00753,182919,9.791177,0.263383,1.041915,-0.036572,0.037279,-0.011849,-0.440953,0.006696,-0.374384,9.151676,-83.550483,-9.152576
00754,183019,9.769653,0.231884,1.055615,-0.047896,0.029348,-0.006605,-0.440454,0.007187,-0.374359,9.153440,-83.534559,-9.179773
00755,183119,9.747077,0.183247,1.103369,-0.049783,0.014556,-0.002054,-0.440438,0.005740,-0.375434,9.148801,-83.526893,-9.200192
00756,183219,9.732996,0.169357,1.157574,-0.038505,-0.000086,-0.002430,-0.442942,0.008223,-0.374309,9.156052,-83.529004,-9.228316
00757,183319,9.722930,0.123853,1.159414,-0.022509,-0.006619,-0.004175,-0.441950,0.006214,-0.374410,9.193762,-83.534031,-9.276162
00758,183419,9.693032,0.169005,1.143004,-0.014321,-0.005993,-0.005786,-0.442966,0.005185,-0.373461,9.248470,-83.539231,-9.335765
00759,183519,9.683963,0.199371,1.096711,-0.013568,-0.006486,-0.009160,-0.439480,0.005130,-0.373461,9.317694,-83.542960,-9.409862
00760,183619,9.681943,0.273524,1.095424,-0.014939,-0.000338,-0.012623,-0.441926,0.009251,-0.375257,9.380848,-83.543240,-9.481944
00761,183719,9.694283,0.329013,1.086259,-0.015673,0.003538,-0.014201,-0.440967,0.009139,-0.373258,9.449007,-83.541678,-9.559915
00762,183819,9.733158,0.319078,1.101337,-0.017360,-0.000370,-0.016460,-0.439459,0.006174,-0.374409,9.541598,-83.540760,-9.660553
00763,183919,9.787828,0.265881,1.144122,-0.019259,-0.006882,-0.015698,-0.440960,0.007668,-0.373834,9.629026,-83.544499,-9.758641
00764,184019,9.804495,0.157197,1.176030,-0.017811,-0.007332,-0.015303,-0.437982,0.007099,-0.373358,9.715779,-83.547466,-9.855018
00765,184119,9.761566,0.131229,1.191790,-0.005914,-0.007878,-0.016299,-0.438509,0.006536,-0.371884,9.817766,-83.551465,-9.959782
00766,184219,9.748112,0.186909,1.216196,0.001265,-0.011133,-0.016246,-0.439492,0.008569,-0.372283,9.917169,-83.557555,-10.059648
00767,184319,9.776355,0.274899,1.161271,0.000129,-0.017195,-0.019661,-0.436976,0.007107,-0.373857,10.041585,-83.564788,-10.183782
00768,184419,9.831175,0.315167,1.150540,-0.003909,-0.020434,-0.024003,-0.437476,0.006119,-0.373909,10.192630,-83.573479,-10.336222
00769,184519,9.804944,0.362689,1.132346,-0.003289,-0.028801,-0.028837,-0.437997,0.003587,-0.373036,10.387534,-83.586736,-10.530478
00770,184619,9.748688,0.395269,1.122848,0.001518,-0.039606,-0.029925,-0.436482,0.004608,-0.373985,10.593420,-83.604815,-10.734123
00771,184719,9.714489,0.291284,1.126210,0.002708,-0.037504,-0.027343,-0.437000,0.004070,-0.373011,10.788277,-83.622494,-10.925950
00772,184819,9.728913,0.176671,1.128158,0.010478,-0.022287,-0.029716,-0.438013,0.005034,-0.371961,10.981277,-83.632249,-11.112821
00773,184919,9.682752,0.091355,1.118435,0.011705,-0.011924,-0.026084,-0.437011,0.003049,-0.372561,11.153380,-83.635642,-11.276223
00774,185019,9.657834,0.099118,1.100314,0.009188,-0.013484,-0.022315,-0.436514,0.002543,-0.372587,11.307087,-83.640042,-11.422404
00775,185119,9.693197,0.160636,1.143909,0.000932,-0.022979,-0.017756,-0.435546,0.002455,-0.371087,11.442198,-83.650560,-11.555279
00776,185219,9.726645,0.177303,1.163255,-0.001305,-0.028963,-0.020076,-0.434064,0.000414,-0.370689,11.601441,-83.663504,-11.712246
00777,185319,9.727426,0.257428,1.148623,0.000930,-0.028157,-0.027370,-0.436087,-0.001121,-0.369266,11.806810,-83.676467,-11.913594
00778,185419,9.707125,0.343961,1.093779,0.007814,-0.023827,-0.033275,-0.434582,-0.000124,-0.369714,12.032916,-83.685426,-12.133194
00779,185519,9.669658,0.395196,1.034072,0.012169,-0.024474,-0.038742,-0.433098,-0.001168,-0.369265,12.291722,-83.693528,-12.382928
00780,185619,9.699247,0.417377,1.044444,0.010468,-0.030320,-0.040196,-0.434593,-0.001145,-0.369265,12.562537,-83.705226,-12.646152
00781,185719,9.775892,0.441017,1.081747,0.006183,-0.038985,-0.040571,-0.433134,-0.000268,-0.367215,12.837030,-83.722022,-12.917557
00782,185819,9.921276,0.535072,1.184125,-0.003671,-0.034656,-0.036878,-0.435140,-0.002752,-0.366843,13.093895,-83.737367,-13.175021
00783,185919,9.780419,0.110537,1.198066,-0.012017,-0.042162,-0.025983,-0.435100,-0.001161,-0.368766,13.288644,-83.757383,-13.375930
00784,186019,9.736467,0.077418,1.146213,-0.031209,-0.022338,-0.006085,-0.432625,-0.004712,-0.368443,13.357680,-83.768006,-13.459254
00785,186119,9.629276,0.181863,1.151729,-0.022909,0.002679,0.006481,-0.434110,-0.004664,-0.368943,13.333920,-83.766917,-13.445006
00786,186219,9.556101,0.304104,0.991319,-0.013816,0.019603,0.012008,-0.432649,-0.002791,-0.366842,13.257243,-83.757825,-13.374816
00787,186319,9.618675,0.422349,0.911658,-0.017177,0.029954,0.004762,-0.434121,-0.005685,-0.368494,13.210025,-83.741859,-13.334343
00788,186419,9.633467,0.490531,0.894377,-0.031186,0.025092,-0.003931,-0.431649,-0.005773,-0.367494,13.200298,-83.727391,-13.340687
00789,186519,9.750494,0.476424,1.008429,-0.051499,-0.007129,-0.003821,-0.434115,-0.007654,-0.369096,13.218354,-83.731100,-13.386049
00790,186619,9.866437,0.478807,1.101420,-0.058961,-0.028895,0.001691,-0.432147,-0.005266,-0.367469,13.221558,-83.747864,-13.422691
00791,186719,9.898766,0.440906,1.087039,-0.046125,-0.032893,0.000989,-0.433163,-0.006295,-0.366520,13.241608,-83.767059,-13.468803
00792,186819,9.856674,0.332260,1.061645,-0.027834,-0.021562,-0.002759,-0.433676,-0.004343,-0.365419,13.273850,-83.779651,-13.517439
00793,186919,9.780793,0.254041,1.065502,-0.013547,-0.006012,-0.003186,-0.434167,-0.005307,-0.365970,13.298431,-83.783361,-13.549823
00794,187019,9.720170,0.223419,1.022417,-0.004398,0.000165,-0.005059,-0.432192,-0.004889,-0.364944,13.329095,-83.783287,-13.583271
00795,187119,9.610453,0.217587,0.920020,-0.001439,-0.015568,-0.008444,-0.431160,-0.005805,-0.366994,13.397946,-83.791286,-13.653231
00796,187219,9.620117,0.250102,0.882841,-0.006672,-0.045874,-0.010536,-0.432695,-0.007372,-0.365072,13.513284,-83.816172,-13.772876
00797,187319,9.701196,0.259887,0.980892,-0.014229,-0.069021,-0.010995,-0.430671,-0.005338,-0.366469,13.654242,-83.853665,-13.922975
00798,187419,9.773791,0.165811,1.051079,-0.021490,-0.079432,-0.001389,-0.431702,-0.004422,-0.364419,13.756181,-83.898429,-14.038075
00799,187519,9.752295,0.433430,1.130439,-0.028349,-0.074222,0.000316,-0.431187,-0.004880,-0.365444,13.840508,-83.940375,-14.139286
00800,187619,9.767454,0.525114,1.115990,-0.028394,-0.056069,0.000726,-0.430182,-0.005370,-0.365969,13.900585,-83.972206,-14.216073
00801,187719,9.766209,0.531583,1.093783,-0.030675,-0.037399,0.003787,-0.429672,-0.003860,-0.366392,13.918847,-83.994081,-14.252253
00802,187819,9.726991,0.497975,1.029214,-0.041784,-0.026601,0.007798,-0.429707,-0.002959,-0.364342,13.895815,-84.010624,-14.253332
00803,187919,9.708953,0.445289,0.957602,-0.053586,-0.023460,0.011270,-0.429662,-0.003337,-0.366866,13.843730,-84.025774,-14.231892
00804,188019,9.749023,0.389143,0.952619,-0.064424,-0.021533,0.013345,-0.430697,-0.004414,-0.364918,13.772632,-84.040267,-14.197478
00805,188119,9.782271,0.310359,0.950286,-0.064631,-0.020747,0.016313,-0.431677,-0.000388,-0.365215,13.682583,-84.054757,-14.144448
00806,188219,9.784282,0.335654,0.980065,-0.056618,-0.022711,0.015604,-0.430683,-0.001899,-0.365291,13.604251,-84.070149,-14.098355
00807,188319,9.787276,0.328480,1.006598,-0.053009,-0.025266,0.014552,-0.430644,-0.000806,-0.367240,13.536118,-84.086743,-14.060500
00808,188419,9.744901,0.307791,1.025635,-0.045790,-0.019191,0.013810,-0.432133,0.002207,-0.367088,13.467085,-84.099960,-14.017789
00809,188519,9.677367,0.344425,1.025189,-0.042934,-0.027880,0.013082,-0.430163,0.000134,-0.366189,13.416102,-84.117836,-13.991298
00810,188619,9.649685,0.412035,0.981185,-0.046989,-0.038767,0.010297,-0.429145,0.001661,-0.367112,13.390963,-84.141340,-13.993248
00811,188719,9.685763,0.443871,0.979809,-0.055635,-0.043578,0.011942,-0.430643,0.005148,-0.366435,13.356938,-84.167895,-13.991524
00812,188819,9.735624,0.443792,0.960446,-0.051821,-0.045825,0.015459,-0.433181,0.004570,-0.363962,13.310336,-84.196369,-13.974758
00813,188919,9.766484,0.416642,0.928557,-0.040035,-0.043583,0.017312,-0.434128,0.006200,-0.366385,13.256200,-84.223676,-13.943726
00814,189019,9.835477,0.320336,0.909110,-0.035705,-0.037970,0.015904,-0.435174,0.004601,-0.363963,13.206667,-84.247809,-13.914551
00815,189119,9.846489,0.227424,0.930082,-0.037100,-0.036708,0.015687,-0.434217,0.002994,-0.362039,13.156811,-84.271188,-13.885636
00816,189219,9.832303,0.183146,0.925402,-0.040775,-0.028557,0.010254,-0.439189,0.003097,-0.362541,13.124476,-84.289513,-13.876461
00817,189319,9.752334,0.164477,0.948541,-0.039057,-0.025018,0.002098,-0.437222,0.003990,-0.360990,13.132800,-84.304712,-13.907341
00818,189419,9.749621,0.229830,0.984343,-0.029957,-0.032936,-0.006586,-0.437744,0.001458,-0.360117,13.207780,-84.323163,-13.999567
00819,189519,9.774429,0.284865,1.028601,-0.017040,-0.037494,-0.014034,-0.438744,-0.001017,-0.360245,13.340333,-84.343082,-14.141888
00820,189619,9.785166,0.286502,1.030100,-0.004627,-0.039958,-0.017192,-0.441309,-0.001170,-0.356247,13.502304,-84.364350,-14.306836
00821,189719,9.786866,0.300096,1.016172,0.000748,-0.037199,-0.016572,-0.436329,-0.001747,-0.356271,13.659369,-84.383566,-14.463842
00822,189819,9.804766,0.313961,0.999492,-0.005782,-0.033760,-0.009936,-0.438311,-0.000695,-0.356721,13.769629,-84.401794,-14.577856
00823,189919,9.813152,0.321846,0.949164,-0.012768,-0.025291,-0.005336,-0.439359,-0.003789,-0.354374,13.841087,-84.416029,-14.656539
00824,190019,9.793912,0.288464,0.936190,-0.025687,-0.014308,-0.001989,-0.438896,-0.002897,-0.352324,13.868965,-84.424609,-14.699216
00825,190119,9.772866,0.317575,0.925095,-0.036931,-0.004470,0.001358,-0.441387,-0.003356,-0.352350,13.857253,-84.428147,-14.708594
00826,190219,9.755864,0.342165,0.912198,-0.040284,0.003042,0.002627,-0.439841,-0.005228,-0.355450,13.825489,-84.427336,-14.699639
00827,190319,9.729770,0.389145,0.919828,-0.036046,0.002787,-0.000791,-0.440861,-0.003291,-0.353850,13.814827,-84.426364,-14.709742
00828,190419,9.702211,0.459810,0.938121,-0.027753,-0.002348,-0.005060,-0.441889,-0.005340,-0.352452,13.841513,-84.427680,-14.752458
00829,190519,9.760852,0.460135,0.980797,-0.018766,-0.010848,-0.009810,-0.442399,-0.006851,-0.352029,13.912494,-84.433018,-14.834500
00830,190619,9.781339,0.396861,1.007882,-0.009825,-0.018116,-0.011768,-0.442905,-0.005871,-0.351478,14.009575,-84.442105,-14.937741
00831,190719,9.868877,0.319866,1.051076,-0.010518,-0.013464,-0.011592,-0.443413,-0.006386,-0.351004,14.098955,-84.448590,-15.033628
00832,190819,9.877090,0.267080,1.031493,-0.015559,-0.002616,-0.006765,-0.441902,-0.007357,-0.352054,14.142310,-84.449646,-15.086156
00833,190919,9.847178,0.253868,1.030950,-0.026068,0.009089,-0.004179,-0.441872,-0.006289,-0.353502,14.147628,-84.444560,-15.106569
00834,191019,9.836418,0.283812,1.020564,-0.036621,0.024896,-0.002434,-0.440889,-0.003363,-0.352350,14.113905,-84.430965,-15.093899
00835,191119,9.788582,0.318518,0.977431,-0.044260,0.038354,-0.003988,-0.443936,-0.004457,-0.349403,14.066277,-84.409732,-15.071568
00836,191219,9.758523,0.386806,0.953059,-0.051212,0.033489,-0.005393,-0.443409,-0.003894,-0.350877,14.029580,-84.390932,-15.064234
00837,191319,9.774326,0.394633,0.978493,-0.052772,0.021882,-0.006668,-0.442921,-0.004425,-0.350402,14.015889,-84.378402,-15.080895
00838,191419,9.783817,0.345179,0.993411,-0.054614,0.015097,-0.008026,-0.444413,-0.003404,-0.350352,14.018257,-84.369466,-15.114779
00839,191519,9.808112,0.278252,1.050963,-0.053496,0.007517,-0.009242,-0.445889,-0.003332,-0.351352,14.038749,-84.364555,-15.166218
00840,191619,9.826862,0.182526,1.063517,-0.054390,0.018215,-0.012034,-0.444404,-0.003380,-0.350852,14.059174,-84.353291,-15.218105
00841,191719,9.777051,0.198455,1.024811,-0.051032,0.042592,-0.008897,-0.443930,-0.000969,-0.349225,14.029272,-84.328934,-15.217533
00842,191819,9.635643,0.207789,0.899464,-0.043637,0.052883,-0.009046,-0.445321,-0.000182,-0.354698,13.990165,-84.298785,-15.203427
00843,191919,9.599688,0.369454,0.793136,-0.039003,0.044454,-0.013280,-0.444320,0.002293,-0.354571,13.989028,-84.272773,-15.224850
00844,192019,9.643805,0.501623,0.827357,-0.038499,0.029822,-0.022138,-0.444815,0.003795,-0.354495,14.057448,-84.253687,-15.315885
00845,192119,9.716210,0.460428,1.019699,-0.046074,-0.002539,-0.030119,-0.445342,0.003731,-0.352995,14.210434,-84.251458,-15.496239
00846,192219,9.904769,0.383304,1.197936,-0.046170,-0.018485,-0.028547,-0.444302,0.007299,-0.354817,14.376423,-84.258187,-15.689808
00847,192319,10.022022,0.320986,1.181243,-0.037278,-0.011939,-0.024560,-0.446296,0.006335,-0.354868,14.517217,-84.261818,-15.852833
00848,192419,9.937312,0.211793,1.007143,-0.018539,0.011663,-0.021544,-0.445287,0.008336,-0.355266,14.617729,-84.252742,-15.964657
00849,192519,9.785840,0.061014,0.928796,-0.007338,0.040540,-0.018413,-0.444280,0.009340,-0.355715,14.665311,-84.228092,-16.016839
00850,192619,9.661349,0.071429,0.922912,-0.000025,0.054164,-0.012065,-0.443240,0.012908,-0.357536,14.661490,-84.196793,-16.013277
00851,192719,9.594338,0.247595,0.926804,-0.007179,0.047018,-0.013055,-0.441728,0.012435,-0.358560,14.669714,-84.169276,-16.025822
00852,192819,9.618169,0.411962,0.920000,-0.011816,0.008593,-0.018691,-0.445714,0.012000,-0.358587,14.761195,-84.162366,-16.124659
00853,192919,9.721329,0.429829,1.041892,-0.007961,-0.020533,-0.026767,-0.446685,0.015551,-0.359409,14.939046,-84.170378,-16.308332
00854,193019,9.794411,0.436954,1.065089,0.006670,-0.023038,-0.035999,-0.445667,0.017576,-0.360307,15.178954,-84.178251,-16.546030
00855,193119,9.817363,0.372358,1.010165,0.010401,-0.012159,-0.039028,-0.445160,0.017095,-0.360832,15.422523,-84.179504,-16.785119
00856,193219,9.762491,0.294727,0.968668,0.004631,-0.004313,-0.033982,-0.445164,0.020060,-0.360180,15.622630,-84.177195,-16.984071
00857,193319,9.751859,0.242852,0.981853,-0.005234,0.002391,-0.027649,-0.447621,0.023659,-0.361502,15.771439,-84.172182,-17.137335
00858,193419,9.739060,0.198608,1.009775,-0.010631,0.007016,-0.023984,-0.447135,0.022132,-0.361078,15.891888,-84.165100,-17.264852
00859,193519,9.698586,0.204932,1.001303,-0.009216,0.007530,-0.022692,-0.447612,0.023185,-0.362027,16.004877,-84.157882,-17.384059
00860,193619,9.700919,0.244447,0.995457,-0.003147,0.000279,-0.022976,-0.447094,0.024222,-0.362976,16.133592,-84.154526,-17.515579
00861,193719,9.751148,0.280535,0.985089,0.004035,-0.004469,-0.023662,-0.447582,0.024752,-0.363450,16.277731,-84.153659,-17.658414
00862,193819,9.767816,0.305486,0.986578,0.009487,-0.008094,-0.024193,-0.450542,0.030328,-0.364172,16.431902,-84.154807,-17.808548
00863,193919,9.754819,0.298866,1.002904,0.004073,-0.006791,-0.018806,-0.450014,0.031389,-0.365620,16.553033,-84.155952,-17.928348
00864,194019,9.707384,0.314932,1.009614,-0.004238,-0.002212,-0.015528,-0.450515,0.029902,-0.365696,16.646137,-84.155087,-18.024485
00865,194119,9.668581,0.499901,1.081173,-0.012391,-0.008437,-0.009467,-0.451999,0.035905,-0.365392,16.711275,-84.158673,-18.097398
00866,194219,9.742831,0.661745,1.047503,-0.018015,-0.018126,-0.011170,-0.457466,0.037510,-0.365817,16.799277,-84.167269,-18.196372
00867,194319,9.778607,0.684897,0.996394,-0.022170,-0.023843,-0.013795,-0.452429,0.037576,-0.368814,16.908881,-84.178433,-18.319379
00868,194419,9.823417,0.569580,0.962833,-0.020097,-0.027074,-0.016613,-0.453376,0.039207,-0.371238,17.040890,-84.190897,-18.463715
00869,194519,9.816003,0.382875,0.960229,-0.004173,-0.028746,-0.019443,-0.456373,0.045185,-0.369934,17.200691,-84.203787,-18.626833
00870,194619,9.846524,0.225932,0.998420,0.012390,-0.019802,-0.015955,-0.453355,0.045707,-0.371407,17.336800,-84.212315,-18.756567
00871,194719,9.773289,0.096072,0.965075,0.019826,-0.005938,-0.011725,-0.457265,0.051420,-0.374627,17.431019,-84.213974,-18.839921
00872,194819,9.673952,-0.021989,0.940008,0.015709,0.002941,-0.003136,-0.453786,0.052337,-0.374076,17.461284,-84.212253,-18.861360
00873,194919,9.578756,0.038284,0.950676,-0.006145,0.008318,0.008729,-0.456176,0.057101,-0.378846,17.405712,-84.209638,-18.809113
00874,195019,9.533691,0.354039,0.982455,-0.031476,-0.001725,0.018652,-0.454193,0.057045,-0.378345,17.299061,-84.214199,-18.720110
00875,195119,9.513252,0.826135,0.979944,-0.047619,-0.028650,0.022111,-0.456613,0.060243,-0.381692,17.209781,-84.234050,-18.657861
00876,195219,9.646614,1.037446,0.979502,-0.057478,-0.057456,0.020655,-0.457112,0.064711,-0.380964,17.171229,-84.269396,-18.652272
00877,195319,9.844474,1.031644,0.991238,-0.068874,-0.061934,0.019790,-0.458594,0.066752,-0.381363,17.138714,-84.307027,-18.659306
00878,195419,9.951237,0.811018,0.947808,-0.075724,-0.057232,0.015978,-0.456527,0.071871,-0.384607,17.115510,-84.341430,-18.679638
00879,195519,9.940194,0.522328,0.907210,-0.072946,-0.051255,0.015268,-0.458020,0.077850,-0.383802,17.087747,-84.372440,-18.693787
00880,195619,9.824779,0.178709,0.932602,-0.062984,-0.047672,0.019683,-0.456478,0.078444,-0.386276,17.034679,-84.402234,-18.676774
00881,195719,9.757192,-0.046594,0.970511,-0.050989,-0.048047,0.025602,-0.456423,0.083547,-0.388521,16.955183,-84.433229,-18.626307
00882,195819,9.731950,-0.135606,1.003766,-0.034018,-0.053912,0.020113,-0.456902,0.089060,-0.388741,16.925456,-84.466522,-18.616083
00883,195919,9.744304,-0.050430,1.002723,-0.010261,-0.058918,0.015312,-0.455329,0.091222,-0.392638,16.944830,-84.501759,-18.641517
00884,196019,9.685520,0.106389,1.028868,0.012045,-0.056807,0.004956,-0.453821,0.094211,-0.392985,17.032720,-84.534100,-18.722946
00885,196119,9.649617,0.335178,1.002500,0.030064,-0.057185,-0.003610,-0.449781,0.098752,-0.395254,17.181926,-84.565179,-18.855594
00886,196219,9.711890,0.512753,0.934435,0.027792,-0.058281,-0.004773,-0.446288,0.102185,-0.395075,17.340290,-84.596620,-18.998742
00887,196319,9.771759,0.535333,0.902335,0.016220,-0.052462,0.000766,-0.445180,0.107914,-0.400293,17.451107,-84.625791,-19.100782
00888,196419,9.863476,0.475447,0.834735,-0.002503,-0.042148,0.007791,-0.435716,0.112722,-0.399536,17.492453,-84.650523,-19.143816
00889,196519,9.906779,0.325561,0.804823,-0.022308,-0.028547,0.016355,-0.432175,0.116773,-0.401831,17.447532,-84.669301,-19.111601
00890,196619,9.842494,0.202609,0.854706,-0.032126,-0.020916,0.020090,-0.426171,0.121709,-0.402575,17.360605,-84.684550,-19.042850
00891,196719,9.818002,0.189736,0.920104,-0.036609,-0.018217,0.020671,-0.422694,0.126089,-0.401345,17.262160,-84.698412,-18.965115
00892,196819,9.841822,0.219566,0.950223,-0.037985,-0.021819,0.018000,-0.414185,0.133501,-0.402461,17.184749,-84.713779,-18.909300
00893,196919,9.771498,0.269311,0.941559,-0.033545,-0.025771,0.012754,-0.410188,0.134956,-0.402884,17.147815,-84.730413,-18.891580
00894,197019,9.682673,0.316808,0.901774,-0.026523,-0.027752,0.010878,-0.398753,0.138190,-0.401203,17.129538,-84.747812,-18.888557
00895,197119,9.638953,0.335694,0.912989,-0.020050,-0.018128,0.007360,-0.388315,0.140941,-0.399547,17.118214,-84.759342,-18.888794
00896,197219,9.614501,0.416089,0.926839,-0.023820,-0.004539,0.008596,-0.384319,0.142397,-0.399970,17.072392,-84.763632,-18.856555
00897,197319,9.730081,0.597733,0.907495,-0.028593,0.000368,0.015967,-0.376440,0.143026,-0.394919,16.970924,-84.766456,-18.771182
00898,197419,9.883848,0.831834,0.865590,-0.035046,0.011394,0.022560,-0.371454,0.145936,-0.394764,16.806629,-84.764304,-18.626428
00899,197519,9.880870,0.877578,0.752345,-0.063973,0.012119,0.023699,-0.361636,0.142427,-0.387417,16.618273,-84.761898,-18.474149
00900,197619,9.937224,0.764707,0.679161,-0.093359,0.011794,0.022110,-0.355820,0.139930,-0.379020,16.423763,-84.759370,-18.332592
00901,197719,9.856650,0.565522,0.755678,-0.109348,0.003841,0.018849,-0.350971,0.133559,-0.372826,16.253956,-84.760651,-18.225039
00902,197819,9.769706,0.368073,0.924521,-0.115050,-0.026068,0.014309,-0.348110,0.129213,-0.366531,16.160223,-84.777633,-18.197160
00903,197919,9.810319,0.253893,1.034578,-0.106470,-0.045245,0.009629,-0.343755,0.124843,-0.360235,16.132768,-84.804409,-18.230901
00904,198019,9.799463,0.151243,0.980657,-0.088371,-0.032509,0.002426,-0.343939,0.115441,-0.351696,16.136941,-84.823023,-18.285987
00905,198119,9.702487,0.099111,0.820543,-0.072633,-0.000826,-0.004915,-0.337603,0.110019,-0.344951,16.138980,-84.823038,-18.329877
00906,198219,9.595150,0.039602,0.746181,-0.063832,0.026502,-0.012295,-0.337814,0.100545,-0.334912,16.142585,-84.806850,-18.370280
00907,198319,9.548886,0.062716,0.735693,-0.065081,0.045491,-0.014609,-0.338473,0.093193,-0.327271,16.125956,-84.779856,-18.391085
00908,198419,9.507527,0.173759,0.694714,-0.072331,0.029227,-0.011653,-0.336611,0.087866,-0.321027,16.115576,-84.762299,-18.422337
00909,198519,9.557111,0.278014,0.725823,-0.075284,-0.016678,-0.004344,-0.335761,0.083503,-0.313733,16.139313,-84.771181,-18.489548
00910,198619,9.771842,0.362006,0.894005,-0.065652,-0.058404,0.006975,-0.333904,0.075186,-0.307641,16.173568,-84.804824,-18.561777
00911,198719,9.994428,0.403241,1.002486,-0.054387,-0.071709,0.012707,-0.336986,0.069537,-0.303423,16.203705,-84.846688,-18.623385
00912,198819,10.077355,0.417768,0.931491,-0.050749,-0.061351,0.015781,-0.338118,0.066226,-0.296578,16.199334,-84.883337,-18.648251
00913,198919,10.039837,0.388837,0.861960,-0.052727,-0.042315,0.010782,-0.339683,0.063092,-0.293233,16.190745,-84.908713,-18.670018
00914,199019,9.919555,0.311437,0.815617,-0.058023,-0.027921,0.004308,-0.338314,0.060264,-0.286862,16.193407,-84.925137,-18.706127
00915,199119,9.803433,0.241162,0.796305,-0.060404,-0.032996,0.000414,-0.340336,0.059226,-0.285414,16.228176,-84.943734,-18.775838
00916,199219,9.691740,0.198946,0.794839,-0.062511,-0.042147,-0.006191,-0.341448,0.056961,-0.279518,16.319972,-84.966302,-18.904008
00917,199319,9.597742,0.181168,0.794720,-0.066241,-0.049950,-0.010080,-0.344431,0.055039,-0.280121,16.449348,-84.992513,-19.072045
00918,199419,9.581956,0.152694,0.810318,-0.073636,-0.048353,-0.011305,-0.344972,0.056920,-0.277520,16.580631,-85.017617,-19.246244
00919,199519,9.620701,0.176218,0.803027,-0.072538,-0.043882,-0.005390,-0.345513,0.053344,-0.275699,16.668078,-85.041211,-19.375805
00920,199619,9.717884,0.257304,0.797438,-0.071835,-0.039088,0.001163,-0.349011,0.052378,-0.275251,16.706140,-85.063241,-19.455388
00921,199719,9.754341,0.348315,0.830979,-0.065956,-0.041457,0.009706,-0.349067,0.052234,-0.272252,16.698167,-85.087973,-19.485382
00922,199819,9.818380,0.377205,0.871415,-0.063253,-0.049999,0.019570,-0.351091,0.050200,-0.270855,16.645016,-85.119011,-19.468477
00923,199919,9.856936,0.368073,0.830977,-0.063472,-0.046067,0.023741,-0.353620,0.049645,-0.268882,16.556776,-85.148567,-19.416483
00924,200019,9.832558,0.362397,0.820326,-0.070959,-0.045564,0.026313,-0.354632,0.046149,-0.268560,16.445718,-85.178255,-19.345897
00925,200119,9.787105,0.341766,0.816017,-0.070439,-0.047298,0.021919,-0.358202,0.045988,-0.264063,16.366033,-85.208173,-19.306498
00926,200219,9.737975,0.347187,0.844558,-0.068920,-0.051759,0.015151,-0.360722,0.045457,-0.262590,16.339820,-85.239443,-19.319888
00927,200319,9.746288,0.300790,0.837512,-0.065203,-0.045052,0.008421,-0.366226,0.042008,-0.261770,16.347295,-85.265936,-19.364944
00928,200419,9.722049,0.274937,0.772395,-0.062069,-0.036294,0.002456,-0.366801,0.040329,-0.257848,16.379473,-85.286651,-19.432984
00929,200519,9.731287,0.280603,0.741923,-0.063186,-0.035273,0.000148,-0.365806,0.039815,-0.257873,16.424897,-85.306430,-19.514955
00930,200619,9.763100,0.305395,0.757278,-0.065611,-0.039403,0.000918,-0.372328,0.039797,-0.255376,16.472536,-85.328600,-19.600540
00931,200719,9.799276,0.278395,0.803816,-0.066479,-0.045683,0.003311,-0.372770,0.039949,-0.258375,16.516731,-85.354600,-19.683167
00932,200819,9.862222,0.255289,0.810090,-0.065691,-0.045757,0.005554,-0.371814,0.038343,-0.256452,16.546958,-85.381001,-19.751325
00933,200919,9.902285,0.239324,0.862580,-0.065321,-0.043120,0.007194,-0.371839,0.039765,-0.254876,16.561318,-85.406213,-19.803350
00934,201019,9.880027,0.178895,0.882017,-0.070789,-0.035205,0.008691,-0.375302,0.042858,-0.255724,16.546307,-85.427317,-19.829054
00935,201119,9.802919,0.141036,0.845648,-0.079024,-0.020816,0.008877,-0.376814,0.043332,-0.254700,16.495730,-85.440545,-19.823813
00936,201219,9.700830,0.084839,0.733508,-0.082939,-0.010530,0.010481,-0.376317,0.042825,-0.254725,16.410516,-85.448386,-19.786076
00937,201319,9.659294,0.110139,0.675418,-0.079498,-0.004204,0.012917,-0.380322,0.041844,-0.253777,16.297257,-85.453146,-19.718230
00938,201419,9.594159,0.243868,0.615193,-0.065726,-0.006491,0.011660,-0.380358,0.042744,-0.251727,16.205033,-85.458962,-19.663568
00939,201519,9.616094,0.363522,0.648246,-0.057035,-0.021546,0.010428,-0.380833,0.045292,-0.252600,16.156558,-85.472865,-19.647798
00940,201619,9.684634,0.435031,0.709598,-0.056524,-0.035186,0.010736,-0.382908,0.045604,-0.248077,16.133752,-85.494323,-19.657483
00941,201719,9.813071,0.420369,0.826489,-0.061085,-0.049299,0.016570,-0.383819,0.046834,-0.252525,16.096063,-85.524468,-19.654858
00942,201819,9.927718,0.359233,0.897214,-0.065373,-0.054546,0.021791,-0.385350,0.046761,-0.250526,16.029393,-85.558317,-19.625630
00943,201919,9.955933,0.291660,0.937665,-0.067819,-0.054438,0.026597,-0.388853,0.048263,-0.249451,15.925987,-85.592846,-19.560965
00944,202019,9.912458,0.230850,0.947317,-0.069331,-0.045222,0.028206,-0.391343,0.048801,-0.249426,15.789881,-85.622522,-19.464377
00945,202119,9.815773,0.189148,0.892323,-0.068545,-0.028777,0.024514,-0.386856,0.050722,-0.249324,15.645855,-85.642527,-19.359398
00946,202219,9.701334,0.199028,0.863022,-0.069292,-0.016664,0.022423,-0.390791,0.052899,-0.251722,15.490908,-85.655494,-19.243901
00947,202319,9.638182,0.223267,0.791666,-0.065801,-0.015065,0.019588,-0.392773,0.053951,-0.252172,15.354584,-85.667119,-19.145076
00948,202419,9.620136,0.257609,0.707815,-0.056668,-0.018179,0.014950,-0.393736,0.056530,-0.253545,15.263033,-85.679748,-19.085907
00949,202519,9.664983,0.295043,0.654521,-0.047796,-0.021512,0.017355,-0.395761,0.053998,-0.252172,15.165181,-85.694578,-19.015321
00950,202619,9.755562,0.292578,0.648656,-0.041049,-0.031741,0.017874,-0.394690,0.054674,-0.256145,15.087215,-85.715139,-18.960801
00951,202719,9.833607,0.233086,0.730307,-0.041633,-0.041690,0.020259,-0.396184,0.054697,-0.256146,15.010381,-85.741555,-18.907754
00952,202819,9.920929,0.117629,0.828886,-0.043265,-0.049536,0.021497,-0.398196,0.059141,-0.254418,14.938045,-85.772486,-18.860160
00953,202919,9.957754,0.100654,0.844846,-0.036207,-0.030824,0.023991,-0.397743,0.055051,-0.252622,14.812501,-85.793410,-18.755162
00954,203019,9.840230,0.027798,0.823272,-0.033865,-0.012935,0.025917,-0.401732,0.058079,-0.251971,14.636906,-85.804677,-18.598636
00955,203119,9.801706,0.033412,0.717837,-0.040753,-0.006094,0.022481,-0.401814,0.053402,-0.248202,14.468917,-85.811625,-18.453697
00956,203219,9.729439,0.150422,0.716186,-0.046540,-0.001815,0.023204,-0.407766,0.057531,-0.249000,14.283243,-85.816268,-18.294352
00957,203319,9.637668,0.293476,0.745065,-0.053189,-0.014095,0.022214,-0.406793,0.054478,-0.248152,14.124482,-85.827554,-18.165813
00958,203419,9.641373,0.434430,0.704414,-0.052356,-0.033882,0.021862,-0.407750,0.056085,-0.250076,14.006096,-85.849760,-18.077279
00959,203519,9.686565,0.439045,0.626466,-0.037958,-0.044488,0.020370,-0.409806,0.056446,-0.246552,13.926894,-85.877647,-18.019761
00960,203619,9.745477,0.319716,0.526947,-0.023018,-0.038434,0.017527,-0.408757,0.060536,-0.248847,13.865986,-85.901781,-17.972004
00961,203719,9.777567,0.174340,0.538191,-0.013176,-0.029692,0.014586,-0.411263,0.062023,-0.247773,13.816260,-85.920659,-17.929804
00962,203819,9.801323,0.093864,0.669771,-0.012594,-0.015702,0.015945,-0.412210,0.069110,-0.249417,13.728857,-85.931937,-17.849499
00963,203919,9.775097,0.054928,0.702058,-0.019042,-0.012338,0.019438,-0.409777,0.067929,-0.246468,13.603292,-85.941807,-17.734642
00964,204019,9.713579,0.150272,0.697616,-0.031347,-0.033928,0.025429,-0.412702,0.072605,-0.249239,13.463572,-85.964488,-17.612665
00965,204119,9.727922,0.239949,0.733548,-0.049641,-0.058709,0.031332,-0.413691,0.076607,-0.249036,13.311620,-86.001739,-17.488940
00966,204219,9.776542,0.365089,0.748848,-0.063497,-0.076046,0.034785,-0.415736,0.078487,-0.245936,13.154133,-86.049079,-17.367629
00967,204319,9.791093,0.499981,0.797379,-0.071532,-0.088274,0.032272,-0.415682,0.082593,-0.248232,13.032684,-86.102882,-17.287063
00968,204419,9.774391,0.514626,0.812648,-0.070814,-0.084880,0.026793,-0.415130,0.092148,-0.249748,12.948182,-86.154056,-17.243121
00969,204519,9.773696,0.405023,0.760353,-0.068481,-0.069188,0.014226,-0.415080,0.094261,-0.252146,12.938903,-86.194841,-17.273231
00970,204619,9.799714,0.228101,0.703467,-0.066886,-0.046905,0.002605,-0.418071,0.098271,-0.251443,12.985720,-86.221685,-17.358645
00971,204719,9.753675,0.063708,0.629037,-0.067646,-0.031137,-0.005894,-0.420522,0.104859,-0.252614,13.074003,-86.238626,-17.486051
00972,204819,9.689894,-0.050311,0.582598,-0.065337,-0.034750,-0.009247,-0.420511,0.111336,-0.252283,13.200118,-86.257138,-17.650044
00973,204919,9.631218,-0.059575,0.606979,-0.064782,-0.050577,-0.007551,-0.423443,0.111528,-0.255283,13.345374,-86.284681,-17.832896
00974,205019,9.642447,-0.008981,0.666433,-0.062733,-0.068068,-0.000801,-0.425461,0.118439,-0.252929,13.471920,-86.322840,-17.995818
00975,205119,9.669641,0.113638,0.683350,-0.077422,-0.080797,0.011112,-0.426408,0.125028,-0.254598,13.515429,-86.369665,-18.083960
00976,205219,9.710025,0.186428,0.717262,-0.094711,-0.090999,0.018697,-0.428932,0.127462,-0.252473,13.505021,-86.423179,-18.128002
00977,205319,9.812793,0.304642,0.780452,-0.102793,-0.107541,0.030370,-0.429902,0.131512,-0.253269,13.420710,-86.487454,-18.102636
00978,205419,9.896135,0.382377,0.749702,-0.111797,-0.111052,0.036523,-0.434446,0.133906,-0.249645,13.280099,-86.554482,-18.026037
00979,205519,9.915446,0.450776,0.649955,-0.128109,-0.101978,0.039330,-0.434930,0.136429,-0.250018,13.079553,-86.616791,-17.898764
00980,205619,9.730432,0.515100,0.624904,-0.155602,-0.106591,0.038050,-0.441472,0.141321,-0.245768,12.879887,-86.681473,-17.788160
00981,205719,9.515749,0.486946,0.622851,-0.172213,-0.127347,0.029001,-0.442981,0.143290,-0.244667,12.800269,-86.756570,-17.807341
00982,205819,9.507521,0.387475,0.618323,-0.171393,-0.144765,0.023823,-0.445988,0.148745,-0.242889,12.812338,-86.840731,-17.917881
00983,205919,9.619446,0.292092,0.676495,-0.166700,-0.155025,0.022775,-0.449500,0.150223,-0.241314,12.865952,-86.930472,-18.067326
00984,206019,9.657279,0.232031,0.669531,-0.155971,-0.150087,0.018700,-0.452972,0.153291,-0.241663,12.963415,-87.016909,-18.254515
00985,206119,9.585053,0.245466,0.631398,-0.143267,-0.131786,0.004132,-0.456442,0.157855,-0.241935,13.189965,-87.091203,-18.563662
00986,206219,9.510903,0.176748,0.500327,-0.123656,-0.113231,-0.013751,-0.457952,0.164782,-0.240080,13.592449,-87.152692,-19.037696
00987,206319,9.526349,0.079882,0.338081,-0.109061,-0.103575,-0.021677,-0.464406,0.166427,-0.241006,14.085379,-87.207547,-19.593892
00988,206419,9.694283,0.051805,0.360851,-0.109199,-0.121869,-0.013011,-0.465898,0.172904,-0.240176,14.553763,-87.273565,-20.125564
00989,206519,9.934234,0.058924,0.438797,-0.125267,-0.156410,0.011352,-0.467393,0.177886,-0.239423,14.856577,-87.362099,-20.500669
00990,206619,10.134412,0.127176,0.451158,-0.144301,-0.194189,0.042590,-0.469371,0.180931,-0.239771,14.908803,-87.476095,-20.635819
00991,206719,10.243308,0.142859,0.482254,-0.162956,-0.208801,0.067080,-0.474351,0.186965,-0.238968,14.687040,-87.601775,-20.507416
00992,206819,10.170952,0.178977,0.474394,-0.177323,-0.200071,0.077728,-0.477871,0.189415,-0.236843,14.257347,-87.724098,-20.179161
00993,206919,9.811190,0.243111,0.459316,-0.190283,-0.177261,0.075028,-0.478384,0.191367,-0.235742,13.734259,-87.833243,-19.764899
00994,207019,9.512076,0.291609,0.414588,-0.187207,-0.165414,0.058312,-0.482858,0.196421,-0.235489,13.378965,-87.933409,-19.516813
00995,207119,9.365131,0.332891,0.296890,-0.168976,-0.157277,0.037214,-0.487291,0.198605,-0.237888,13.315271,-88.026212,-19.550072
00996,207219,9.469292,0.315817,0.194645,-0.142835,-0.156979,0.024012,-0.492301,0.203072,-0.235661,13.488621,-88.117101,-19.805520
00997,207319,9.709556,0.282537,0.181742,-0.124863,-0.165797,0.017880,-0.495814,0.204550,-0.234087,13.842479,-88.212037,-20.231252
00998,207419,9.900291,0.134906,0.235317,-0.123516,-0.184635,0.024516,-0.500304,0.205594,-0.233537,14.206027,-88.318283,-20.665885
00999,207519,9.986608,-0.025288,0.339689,-0.135688,-0.204717,0.038813,-0.505799,0.207625,-0.232438,14.431861,-88.437634,-20.969704
01000,207619,10.037520,-0.089091,0.439123,-0.144656,-0.214598,0.052955,-0.511803,0.208146,-0.230915,14.440116,-88.564459,-21.060995
01001,207719,10.003882,-0.103796,0.443038,-0.145492,-0.205098,0.065802,-0.512829,0.207093,-0.229466,14.085995,-88.687819,-20.790283
01002,207819,9.861350,-0.016000,0.427604,-0.139885,-0.183672,0.070889,-0.517842,0.210065,-0.227317,13.395734,-88.799870,-20.180153
01003,207919,9.722805,0.165624,0.343732,-0.127732,-0.167779,0.069826,-0.521821,0.208159,-0.227919,12.506360,-88.902704,-19.363930
01004,208019,9.598561,0.325330,0.279209,-0.114305,-0.164556,0.058301,-0.525374,0.207548,-0.224447,11.800368,-89.002093,-18.723455
01005,208119,9.549116,0.399060,0.249076,-0.111377,-0.174464,0.049444,-0.528853,0.207129,-0.224973,11.337307,-89.105889,-18.324286
01006,208219,9.584386,0.349266,0.266577,-0.109060,-0.190163,0.036182,-0.532917,0.204010,-0.221129,11.433220,-89.216968,-18.482837
01007,208319,9.664480,0.296987,0.293259,-0.096751,-0.195207,0.022520,-0.537868,0.200698,-0.223307,12.284686,-89.329232,-19.389945
01008,208419,9.786439,0.234587,0.270080,-0.088784,-0.189012,0.010870,-0.543377,0.199218,-0.221886,14.070331,-89.436219,-21.226703
01009,208519,9.825572,0.119857,0.141735,-0.095620,-0.183260,0.006863,-0.544325,0.200351,-0.224334,16.851219,-89.538559,-24.062629
01010,208619,9.894166,0.047891,0.082558,-0.109101,-0.178969,0.009532,-0.550856,0.200807,-0.221312,20.838994,-89.637422,-28.113160
01011,208719,9.866996,0.008033,0.088238,-0.124832,-0.179410,0.015402,-0.553334,0.197407,-0.222490,27.140244,-89.734964,-34.486170
01012,208819,9.885788,0.040577,0.192636,-0.138186,-0.186766,0.024873,-0.555355,0.202325,-0.220237,39.881833,-89.832354,-47.307165
01013,208919,9.898835,0.179427,0.210236,-0.142889,-0.197492,0.039283,-0.561293,0.203513,-0.222188,79.918811,-89.912660,-87.426243
01014,209019,9.851187,0.314631,0.118153,-0.144298,-0.210857,0.044719,-0.562795,0.204509,-0.221638,149.795263,-89.877637,-157.385610
01015,209119,9.821876,0.407641,0.071815,-0.150302,-0.220540,0.046031,-0.563730,0.208157,-0.224459,171.050486,-89.764773,-178.727193
01016,209219,9.746346,0.488152,0.024189,-0.169237,-0.223505,0.043206,-0.568712,0.207737,-0.224486,177.852563,-89.639045,174.373522
01017,209319,9.666785,0.528698,0.187160,-0.153959,-0.236439,0.037743,-0.571228,0.208701,-0.222936,-179.282612,-89.503493,171.420247
01018,209419,9.577714,0.431399,0.175557,-0.171082,-0.257202,0.028253,-0.573173,0.209850,-0.225385,-178.205944,-89.355545,170.245339
01019,209519,9.583738,0.337759,0.143203,-0.178431,-0.286981,0.020226,-0.576180,0.209849,-0.224387,-177.932963,-89.190600,169.869932
01020,209619,9.703970,0.104668,0.130116,-0.173511,-0.304116,0.015505,-0.580726,0.205790,-0.221592,-177.947404,-89.015952,169.784779
01021,209719,9.837056,-0.160045,0.119063,-0.162597,-0.301126,0.018119,-0.582700,0.205371,-0.222618,-177.888592,-88.842983,169.632606
01022,209819,9.935821,-0.282724,0.075757,-0.148515,-0.288058,0.019268,-0.588220,0.203867,-0.220697,-177.807552,-88.677489,169.466257
01023,209919,10.046564,-0.258930,0.031939,-0.138887,-0.276879,0.017849,-0.588760,0.200789,-0.218850,-177.769312,-88.518442,169.348224
01024,210019,10.109653,-0.107952,0.034923,-0.142613,-0.271327,0.008035,-0.589781,0.197768,-0.218003,-177.939879,-88.362810,169.436928
01025,210119,10.107007,0.119361,0.054602,-0.152784,-0.268867,0.000039,-0.591749,0.195380,-0.219630,-178.238531,-88.208757,169.647946
01026,210219,9.975625,0.237080,0.022398,-0.170665,-0.269250,-0.004645,-0.594320,0.192238,-0.215785,-178.586205,-88.054552,169.897775
01027,210319,9.846012,0.245552,-0.007586,-0.185173,-0.267916,-0.002657,-0.598293,0.188363,-0.216989,-178.866884,-87.901068,170.072268
01028,210419,9.727214,0.185529,0.014085,-0.192746,-0.254036,-0.000275,-0.599284,0.186411,-0.217591,-179.082845,-87.755514,170.177666
01029,210519,9.686820,0.080242,-0.029973,-0.185731,-0.229030,0.001992,-0.601317,0.184353,-0.215694,-179.239351,-87.624282,170.227590
01030,210619,9.735884,0.035849,-0.080094,-0.180709,-0.210118,0.004487,-0.603793,0.181949,-0.216821,-179.346493,-87.503887,170.230985
01031,210719,9.756168,-0.027184,-0.216319,-0.176315,-0.196016,0.002301,-0.603279,0.180495,-0.217897,-179.471532,-87.391600,170.254813
01032,210819,9.751633,-0.050842,-0.217328,-0.172234,-0.200393,0.001744,-0.604790,0.181965,-0.216821,-179.595073,-87.276821,170.279482
01033,210919,9.796173,-0.104394,-0.175539,-0.163319,-0.204344,0.000063,-0.609260,0.178597,-0.218000,-179.727014,-87.159804,170.317674
01034,211019,9.896638,-0.168082,-0.165709,-0.154794,-0.198563,0.001098,-0.609791,0.176041,-0.216628,-179.835352,-87.046116,170.337125
01035,211119,9.981287,-0.195539,-0.114304,-0.153930,-0.185567,0.013250,-0.610730,0.176700,-0.219602,-179.807573,-86.939882,170.220767
01036,211219,10.012115,-0.138917,-0.109469,-0.144434,-0.167069,0.028334,-0.613221,0.176739,-0.219603,-179.621351,-86.844222,169.951166
01037,211319,10.000868,-0.025816,-0.172385,-0.134410,-0.149203,0.042084,-0.611676,0.173871,-0.222754,-179.301762,-86.758688,169.553718
01038,211419,9.876932,0.109750,-0.237717,-0.122872,-0.138656,0.047070,-0.616152,0.172472,-0.223331,-178.943035,-86.679045,169.123653
01039,211519,9.739389,0.282444,-0.276780,-0.111450,-0.136041,0.044095,-0.615191,0.173854,-0.221255,-178.624683,-86.600812,168.740552
01040,211619,9.676617,0.403653,-0.283147,-0.103346,-0.141951,0.035892,-0.613636,0.176466,-0.224127,-178.396890,-86.519230,168.452790
01041,211719,9.739418,0.439222,-0.263133,-0.103528,-0.142796,0.027696,-0.620062,0.173225,-0.227305,-178.257134,-86.437270,168.253100
01042,211819,9.844429,0.348059,-0.258819,-0.107725,-0.143987,0.026795,-0.619087,0.171667,-0.226381,-178.136205,-86.354641,168.069842
01043,211919,9.899033,0.220071,-0.251212,-0.115740,-0.143052,0.026027,-0.621526,0.174816,-0.228729,-178.033223,-86.272567,167.899946
01044,212019,10.019249,0.074502,-0.253388,-0.121448,-0.133281,0.030937,-0.620003,0.174865,-0.230228,-177.894006,-86.195993,167.690442
01045,212119,10.176587,-0.053728,-0.263315,-0.118400,-0.111838,0.038177,-0.622001,0.177363,-0.229601,-177.691299,-86.131523,167.419036
01046,212219,10.195011,-0.043191,-0.316853,-0.110228,-0.093099,0.042122,-0.620026,0.177782,-0.228576,-177.451731,-86.077640,167.115357
01047,212319,10.118830,0.010109,-0.324550,-0.101186,-0.082983,0.042912,-0.623510,0.174374,-0.229254,-177.203719,-86.029463,166.808386
01048,212419,10.016810,0.146368,-0.301485,-0.093157,-0.080483,0.040440,-0.623940,0.176045,-0.232677,-176.976944,-85.982728,166.527296
01049,212519,9.939821,0.220364,-0.246940,-0.087415,-0.074704,0.035016,-0.625463,0.175498,-0.231204,-176.793981,-85.939430,166.293407
01050,212619,9.890303,0.177953,-0.179939,-0.082993,-0.069698,0.032520,-0.625960,0.176004,-0.231178,-176.630564,-85.899065,166.081639
01051,212719,9.852248,0.088445,-0.117636,-0.083417,-0.065610,0.030783,-0.627916,0.176132,-0.233178,-176.482808,-85.861098,165.885315
01052,212819,9.877940,0.018278,-0.051176,-0.083553,-0.053485,0.032819,-0.627405,0.178141,-0.233576,-176.316115,-85.829999,165.669916
01053,212919,9.835983,0.024996,-0.026101,-0.086182,-0.037929,0.038327,-0.629371,0.177248,-0.235127,-176.102555,-85.807582,165.406004
01054,213019,9.844726,0.103390,-0.066730,-0.085756,-0.014415,0.042718,-0.628873,0.177241,-0.235127,-175.843962,-85.798394,165.097176
01055,213119,9.806422,0.279706,-0.164047,-0.076801,0.009281,0.043600,-0.630881,0.178719,-0.234052,-175.560547,-85.802639,164.768599
01056,213219,9.716291,0.450120,-0.280322,-0.061288,0.028287,0.040723,-0.631418,0.178132,-0.232078,-175.278211,-85.817782,164.450019
01057,213319,9.628868,0.556559,-0.428234,-0.041745,0.031533,0.027106,-0.629385,0.179692,-0.234000,-175.087561,-85.835356,164.234601
01058,213419,9.734237,0.498914,-0.516712,-0.026318,0.021566,0.011096,-0.629415,0.178623,-0.232552,-175.019748,-85.848006,164.151209
01059,213519,9.974185,0.250463,-0.468256,-0.021018,0.018803,0.000672,-0.631885,0.179707,-0.233501,-175.032800,-85.859608,164.151938
01060,213619,10.106755,0.012893,-0.305904,-0.023831,0.023530,-0.000931,-0.632388,0.177224,-0.233629,-175.056930,-85.874014,164.162157
01061,213719,10.101299,-0.038514,-0.255345,-0.026654,0.031992,0.004411,-0.633873,0.177271,-0.234129,-175.034454,-85.893016,164.124028
01062,213819,10.013702,0.077809,-0.220975,-0.029142,0.046744,0.010159,-0.634428,0.176138,-0.231181,-174.956857,-85.920179,164.029207
01063,213919,9.882087,0.264424,-0.325610,-0.029043,0.065533,0.013503,-0.635886,0.175760,-0.233206,-174.837686,-85.957906,163.892767
01064,214019,9.711807,0.428279,-0.425033,-0.029026,0.076946,0.014749,-0.637367,0.178299,-0.233579,-174.697769,-86.002074,163.735545
01065,214119,9.589558,0.498522,-0.537179,-0.034828,0.083389,0.004940,-0.636854,0.176347,-0.234681,-174.634390,-86.050426,163.651723
01066,214219,9.464228,0.464107,-0.507332,-0.046770,0.079179,-0.004936,-0.634845,0.174868,-0.235755,-174.662503,-86.096910,163.652753
01067,214319,9.499599,0.356493,-0.473359,-0.061761,0.069401,-0.004888,-0.637348,0.173389,-0.235333,-174.707277,-86.137820,163.661874
01068,214419,9.511171,0.227396,-0.543362,-0.062050,0.071094,0.000714,-0.637805,0.175984,-0.237205,-174.703852,-86.179402,163.622521
01069,214519,9.472938,0.139093,-0.702385,-0.045600,0.077525,0.003144,-0.640336,0.173935,-0.235308,-174.664448,-86.224510,163.556558
01070,214619,9.498062,-0.009906,-0.712680,-0.014136,0.077462,0.001690,-0.640788,0.174063,-0.237808,-174.618390,-86.269643,163.501999
01071,214719,9.560736,-0.114410,-0.596809,0.032941,0.081044,-0.006824,-0.641308,0.172030,-0.236910,-174.616237,-86.317267,163.518472
01072,214819,9.509098,-0.278469,-0.522518,0.077616,0.065793,-0.021287,-0.642767,0.170655,-0.238985,-174.730627,-86.356955,163.677377
01073,214919,9.474945,-0.478658,-0.431486,0.105214,0.030867,-0.031919,-0.643787,0.168132,-0.238113,-174.955654,-86.377232,163.962981
01074,215019,9.414459,-0.713472,-0.342427,0.112789,-0.006493,-0.040096,-0.643327,0.167031,-0.236165,-175.280240,-86.376499,164.352693
01075,215119,9.392666,-0.869636,-0.299708,0.108331,-0.029294,-0.040042,-0.646308,0.166604,-0.236691,-175.621271,-86.362607,164.756327
01076,215219,9.371009,-0.913358,-0.399324,0.103676,-0.031678,-0.035314,-0.646256,0.164258,-0.239817,-175.920146,-86.347011,165.115055
01077,215319,9.420157,-0.904559,-0.524268,0.100971,-0.026092,-0.024367,-0.645793,0.165648,-0.237741,-176.115696,-86.334068,165.368701
01078,215419,9.594828,-0.813011,-0.614062,0.105838,-0.017733,-0.014891,-0.645798,0.162659,-0.237893,-176.216758,-86.325486,165.530466
01079,215519,9.814099,-0.745680,-0.635173,0.128728,-0.016741,-0.013635,-0.650289,0.163702,-0.237344,-176.291493,-86.317397,165.678995
01080,215619,9.985036,-0.713696,-0.625587,0.167297,-0.039066,-0.014245,-0.650347,0.162063,-0.234422,-176.360651,-86.296541,165.844084
01081,215719,10.412009,-0.547017,-0.562017,0.193838,-0.082870,-0.026529,-0.650302,0.161685,-0.236946,-176.543507,-86.251047,166.138360
01082,215819,10.092744,-0.813548,-0.316702,0.292567,-0.114761,-0.020104,-0.649867,0.157547,-0.234150,-176.623891,-86.187064,166.386649
01083,215919,10.384508,-0.725265,0.085530,0.309222,-0.150606,-0.039186,-0.650327,0.157651,-0.236150,-176.865789,-86.103200,166.806402
01084,216019,10.724944,-0.622115,0.240565,0.299462,-0.122005,-0.038239,-0.650366,0.157057,-0.234176,-177.079169,-86.035625,167.191999
01085,216119,10.666625,-0.483587,0.152967,0.283359,-0.107688,-0.030782,-0.654370,0.156574,-0.233203,-177.225137,-85.976008,167.500797
01086,216219,10.564270,-0.190816,0.131949,0.273711,-0.119244,-0.029350,-0.650853,0.152629,-0.235404,-177.362453,-85.909744,167.795401
01087,216319,10.446051,0.127344,0.108329,0.271673,-0.121266,-0.037779,-0.654385,0.153560,-0.232856,-177.561283,-85.842533,168.150527
01088,216419,10.113471,0.336641,0.081695,0.269531,-0.115416,-0.054993,-0.654906,0.151029,-0.231983,-177.884759,-85.779001,168.629425
01089,216519,9.699278,0.357962,0.059133,0.281698,-0.133001,-0.071657,-0.654444,0.151423,-0.229958,-178.320986,-85.705536,169.228411
01090,216619,9.409828,0.229744,0.115145,0.295320,-0.163758,-0.085866,-0.652910,0.152492,-0.231906,-178.843195,-85.614340,169.921514
01091,216719,9.233723,0.015772,0.165371,0.308437,-0.185654,-0.094878,-0.655454,0.148923,-0.229586,-179.400596,-85.510245,170.657535
01092,216819,9.052374,-0.218986,0.115185,0.319554,-0.209219,-0.096892,-0.659954,0.144486,-0.229316,-179.936451,-85.392170,171.378437
01093,216919,8.971927,-0.358353,0.071170,0.319775,-0.242433,-0.084683,-0.658520,0.147284,-0.225665,179.645969,-85.254663,171.980922
01094,217019,8.976701,-0.439498,0.092455,0.316127,-0.264646,-0.065872,-0.658520,0.147284,-0.225665,179.383433,-85.104288,172.425837
01095,217119,8.971086,-0.449129,0.069483,0.304736,-0.275853,-0.046761,-0.658062,0.145186,-0.223767,179.260960,-84.947552,172.723705
01096,217219,9.033576,-0.408566,0.048700,0.289332,-0.281329,-0.029454,-0.659628,0.141554,-0.220447,179.252018,-84.787835,172.898794
01097,217319,9.129001,-0.360362,0.079053,0.273442,-0.280207,-0.012434,-0.660623,0.142566,-0.220396,179.343459,-84.628951,172.963967
01098,217419,9.275341,-0.278312,0.061238,0.257841,-0.272879,-0.000134,-0.660135,0.142036,-0.219921,179.497888,-84.474413,172.956901
01099,217519,9.423303,-0.236648,0.093174,0.249792,-0.267888,0.009900,-0.663136,0.140066,-0.219524,179.701152,-84.322841,172.896125
01100,217619,9.604003,-0.214149,0.122232,0.242315,-0.259965,0.017338,-0.662691,0.141409,-0.216449,179.935107,-84.175873,172.800178
01101,217719,9.777063,-0.240873,0.155390,0.234426,-0.253876,0.023881,-0.663721,0.138363,-0.215102,-179.807452,-84.032428,172.676048
01102,217819,9.903958,-0.255504,0.189579,0.224316,-0.250472,0.028856,-0.663274,0.140702,-0.211976,-179.537779,-83.890945,172.533756
01103,217919,9.939999,-0.284997,0.187344,0.206067,-0.246684,0.038899,-0.665736,0.141312,-0.213451,-179.234807,-83.751582,172.347413
01104,218019,9.857491,-0.312388,0.160421,0.191392,-0.245224,0.046196,-0.666780,0.140709,-0.210978,-178.913149,-83.612966,172.133759
01105,218119,9.685401,-0.275905,0.120798,0.185895,-0.246073,0.047054,-0.664824,0.140581,-0.208978,-178.601610,-83.473806,171.927057
01106,218219,9.519120,-0.282390,0.131451,0.190433,-0.244721,0.043265,-0.667338,0.138081,-0.208106,-178.316536,-83.335443,171.749555
01107,218319,9.430705,-0.259310,0.183065,0.194634,-0.237643,0.033008,-0.668831,0.139101,-0.208056,-178.086478,-83.201313,171.629823
01108,218419,9.500356,-0.211904,0.243298,0.197804,-0.226555,0.019099,-0.665884,0.135968,-0.206208,-177.924945,-83.073856,171.580903
01109,218519,9.622683,-0.131370,0.270759,0.195913,-0.224211,0.009280,-0.669394,0.138941,-0.204557,-177.813279,-82.948035,171.581113
01110,218619,9.793533,-0.091416,0.330960,0.189403,-0.219196,-0.000270,-0.669930,0.138852,-0.202558,-177.749790,-82.825404,171.626109
01111,218719,10.009860,-0.028394,0.339086,0.184450,-0.199046,-0.006767,-0.672410,0.138916,-0.203059,-177.714983,-82.714570,171.697162
01112,218819,10.155911,0.001250,0.307694,0.179439,-0.171532,-0.006993,-0.670421,0.136891,-0.203160,-177.678712,-82.619609,171.763851
01113,218919,10.193203,0.002725,0.285072,0.175569,-0.138641,-0.010007,-0.670974,0.137751,-0.200110,-177.651691,-82.543662,171.837639
01114,219019,10.168120,0.000704,0.294684,0.165660,-0.098043,-0.012508,-0.671958,0.139286,-0.200534,-177.633602,-82.491129,171.914712
01115,219119,10.085584,-0.033475,0.344227,0.149919,-0.064131,-0.019528,-0.671993,0.135227,-0.199238,-177.648496,-82.458289,172.015959
01116,219219,10.025979,-0.016806,0.317743,0.153472,-0.028874,-0.028114,-0.676506,0.134230,-0.197791,-177.691857,-82.445937,172.147972
01117,219319,9.925134,-0.032154,0.390634,0.152929,0.000012,-0.044114,-0.674484,0.134769,-0.199264,-177.799547,-82.450575,172.344557
01118,219419,9.887987,-0.186193,0.415682,0.142514,0.011123,-0.061652,-0.676009,0.133226,-0.197841,-177.987497,-82.461993,172.616072
01119,219519,9.904366,-0.354672,0.513517,0.134494,0.036303,-0.074881,-0.676432,0.133924,-0.201815,-178.234621,-82.488067,172.942621
01120,219619,9.953793,-0.512366,0.575536,0.120760,0.060324,-0.077150,-0.676924,0.132462,-0.202391,-178.498561,-82.527871,173.278165
01121,219719,9.989533,-0.613249,0.610726,0.107531,0.069014,-0.065281,-0.675913,0.130003,-0.203517,-178.720019,-82.572431,173.563183
01122,219819,10.156237,-0.640783,0.689509,0.116088,0.078979,-0.050541,-0.677912,0.132003,-0.202916,-178.873256,-82.622537,173.784316
01123,219919,10.366387,-0.615800,0.667957,0.141939,0.103853,-0.040458,-0.679874,0.128145,-0.205120,-178.967023,-82.686857,173.960389
01124,220019,10.453464,-0.521559,0.601318,0.168593,0.129594,-0.036671,-0.679381,0.130605,-0.204492,-179.028660,-82.765984,174.119432
01125,220119,10.531614,-0.431294,0.779447,0.189700,0.166114,-0.045248,-0.680354,0.127703,-0.206145,-179.117122,-82.866227,174.317665
01126,220219,10.479296,-0.388119,0.934924,0.202395,0.206903,-0.058124,-0.679810,0.127816,-0.208644,-179.259722,-82.990046,174.577724
01127,220319,10.444219,-0.390290,0.984029,0.208676,0.241482,-0.066141,-0.678300,0.125847,-0.209744,-179.442388,-83.133789,174.881686
01128,220419,10.578226,-0.386491,0.907440,0.202843,0.277646,-0.073123,-0.680230,0.124553,-0.213320,-179.671790,-83.298295,175.229242
01129,220519,10.683932,-0.418416,0.730087,0.189569,0.315112,-0.071646,-0.680212,0.124103,-0.214345,-179.915754,-83.484224,175.583668
01130,220619,10.739151,-0.432202,0.427541,0.190756,0.347528,-0.058952,-0.681656,0.121281,-0.217496,179.888669,-83.688673,175.889943
01131,220719,10.758488,-0.559594,0.170429,0.195448,0.377983,-0.039002,-0.682061,0.121530,-0.222495,179.785363,-83.910593,176.105980
01132,220819,10.790370,-0.647411,-0.049883,0.208849,0.401854,-0.023503,-0.682056,0.119063,-0.223121,179.763876,-84.146259,176.247379
01133,220919,10.917208,-0.703895,-0.332129,0.238501,0.406342,-0.010436,-0.681042,0.118597,-0.224146,179.829302,-84.384564,176.318447
01134,221019,11.248907,-0.693728,-0.557434,0.277092,0.391163,-0.002646,-0.681937,0.118380,-0.229670,179.965062,-84.614208,176.341043
01135,221119,11.717646,-0.811844,-0.883948,0.323053,0.367642,0.006628,-0.685377,0.118556,-0.232170,-179.808119,-84.830365,176.298637
01136,221219,12.174653,-1.008791,-1.156245,0.361371,0.328460,0.020967,-0.682381,0.117536,-0.232719,-179.453706,-85.023967,176.150200
01137,221319,12.456560,-1.006399,-1.357724,0.370964,0.280759,0.034281,-0.683839,0.117157,-0.234745,-178.986726,-85.189991,175.894350
01138,221419,12.392734,-0.747668,-1.469543,0.338577,0.224642,0.033634,-0.686742,0.118418,-0.239193,-178.526486,-85.323637,175.626709
01139,221519,12.140531,-0.476748,-1.311460,0.266781,0.178252,0.025409,-0.687736,0.119929,-0.239117,-178.156005,-85.430636,175.407903
01140,221619,11.859308,-0.260888,-0.825486,0.192652,0.146603,0.015917,-0.686284,0.116819,-0.237270,-177.892316,-85.519586,175.253650
01141,221719,11.547541,-0.104030,-0.330307,0.121657,0.152385,0.012396,-0.688235,0.119438,-0.239143,-177.685845,-85.611894,175.116008
01142,221819,11.057496,0.066916,0.064334,0.038119,0.195194,0.007034,-0.691682,0.115628,-0.241846,-177.547476,-85.728851,174.998678
01143,221919,10.463838,0.115235,0.244358,-0.051462,0.260248,-0.000046,-0.689141,0.117702,-0.244243,-177.487274,-85.883261,174.908278
01144,222019,9.771344,0.156651,0.106484,-0.130062,0.333038,0.001827,-0.690597,0.118819,-0.246191,-177.424325,-86.079318,174.769997
01145,222119,9.019574,0.164799,-0.404203,-0.194042,0.383992,0.010036,-0.692044,0.119461,-0.248665,-177.294762,-86.304296,174.528249
01146,222219,8.198917,0.181654,-1.135392,-0.251249,0.376867,0.024730,-0.692993,0.119597,-0.251165,-177.040065,-86.524652,174.128345
01147,222319,7.436062,0.166112,-1.746536,-0.314572,0.301996,0.041357,-0.693923,0.120778,-0.254613,-176.656696,-86.701381,173.563293
01148,222419,6.891387,0.630796,-2.022873,-0.366183,0.203640,0.038592,-0.693384,0.122859,-0.256510,-176.347557,-86.821602,173.043063
01149,222519,6.742336,0.775658,-2.198500,-0.387718,0.105265,0.036662,-0.693851,0.119476,-0.258688,-176.113629,-86.885346,172.585857
01150,222619,6.856310,1.135027,-2.175104,-0.386241,0.010788,0.028576,-0.693835,0.122988,-0.259010,-176.025016,-86.895171,172.275052
01151,222719,7.245665,1.382257,-2.035166,-0.370940,-0.069871,0.014803,-0.693880,0.123864,-0.256460,-176.133048,-86.859287,172.169966
01152,222819,7.920374,1.441757,-1.751443,-0.359782,-0.106677,0.001592,-0.694844,0.120987,-0.258612,-176.397243,-86.802752,172.227682
01153,222919,8.610455,1.298452,-1.556231,-0.327432,-0.110656,-0.012888,-0.698876,0.120929,-0.256114,-176.787114,-86.744317,172.429844
01154,223019,9.318579,1.045206,-1.543824,-0.278342,-0.120512,-0.031035,-0.696890,0.122368,-0.255538,-177.323978,-86.680589,172.807428
01155,223119,9.979138,0.792943,-1.588878,-0.236919,-0.133005,-0.041529,-0.695858,0.121452,-0.257587,-177.927160,-86.609650,173.275244
01156,223219,10.519141,0.574166,-1.518241,-0.199823,-0.135113,-0.051030,-0.697900,0.125325,-0.254385,-178.578416,-86.537286,173.812548
01157,223319,10.842752,0.503662,-1.400597,-0.171349,-0.133586,-0.058472,-0.696410,0.122312,-0.254538,-179.258465,-86.465432,174.395085
01158,223419,10.884035,0.436178,-1.227341,-0.166171,-0.140633,-0.059815,-0.695912,0.122304,-0.254538,-179.923108,-86.389072,174.965205
01159,223519,10.764525,0.400345,-1.073554,-0.205376,-0.156682,-0.057108,-0.696926,0.123268,-0.253487,179.440633,-86.303077,175.484423
01160,223619,10.498224,0.418699,-0.853123,-0.264778,-0.174386,-0.046764,-0.698888,0.124867,-0.254911,178.889138,-86.206657,175.884640
01161,223719,10.110456,0.511283,-0.565547,-0.312725,-0.178234,-0.035745,-0.697412,0.124795,-0.253911,178.427415,-86.107944,176.167390
01162,223819,9.697309,0.632103,-0.363644,-0.341883,-0.167569,-0.028436,-0.697964,0.125655,-0.250862,178.024269,-86.015334,176.374706
01163,223919,9.343099,0.847289,-0.382181,-0.352871,-0.161738,-0.033620,-0.697436,0.126716,-0.252310,177.584550,-85.925850,176.612392
01164,224019,9.078154,0.872821,-0.368817,-0.343304,-0.154442,-0.038599,-0.700993,0.129070,-0.248186,177.122197,-85.840283,176.878287
01165,224119,8.865115,0.811172,-0.401946,-0.336755,-0.152075,-0.045121,-0.699499,0.129046,-0.248185,176.626325,-85.755711,177.181575
01166,224219,8.783521,0.679135,-0.450119,-0.324481,-0.162545,-0.050955,-0.698528,0.130453,-0.246609,176.113773,-85.664745,177.508673
01167,224319,8.831426,0.478155,-0.469767,-0.305128,-0.175295,-0.060482,-0.699049,0.133378,-0.244957,175.566065,-85.565873,177.882186
01168,224419,8.963047,0.226584,-0.446192,-0.288189,-0.180848,-0.059824,-0.699042,0.131907,-0.245533,175.056222,-85.463605,178.227501
01169,224519,9.109862,0.134764,-0.478580,-0.270718,-0.168232,-0.044509,-0.698073,0.137275,-0.243254,174.674801,-85.369120,178.454067
01170,224619,9.121929,0.159945,-0.438407,-0.261808,-0.139222,-0.026512,-0.699567,0.137797,-0.243230,174.415529,-85.292069,178.563223
01171,224719,9.040809,0.263029,-0.405133,-0.281361,-0.125657,-0.007139,-0.699050,0.137838,-0.244229,174.273880,-85.223826,178.543121
01172,224819,8.988158,0.498770,-0.359706,-0.291551,-0.105130,0.005261,-0.700118,0.139155,-0.240155,174.197492,-85.168014,178.451664
01173,224919,8.970218,0.779826,-0.215735,-0.298290,-0.087389,0.014550,-0.698097,0.139694,-0.241628,174.166607,-85.122882,178.310652
01174,225019,8.879622,0.972623,-0.318176,-0.312590,-0.105011,0.023475,-0.700063,0.143760,-0.242425,174.196645,-85.068236,178.100255
01175,225119,8.910238,1.036142,-0.300534,-0.313179,-0.146042,0.025727,-0.699658,0.143511,-0.237427,174.264226,-84.990329,177.851808
01176,225219,9.068211,1.064991,-0.336488,-0.297827,-0.161101,0.023835,-0.699159,0.144500,-0.237376,174.332287,-84.903716,177.611672
01177,225319,9.080981,0.945598,-0.523793,-0.259404,-0.169955,0.014962,-0.700131,0.147553,-0.238224,174.366068,-84.811537,177.428021
01178,225419,9.131846,0.808465,-0.593040,-0.212033,-0.172998,0.004399,-0.698624,0.149048,-0.238647,174.359140,-84.717021,177.312471
01179,225519,9.211509,0.707085,-0.480466,-0.163392,-0.149435,-0.002586,-0.702152,0.151972,-0.235996,174.321129,-84.635558,177.256108
01180,225619,9.213437,0.660647,-0.440159,-0.123005,-0.112902,-0.011527,-0.699187,0.149385,-0.235123,174.230008,-84.574429,177.276323
01181,225719,9.134570,0.566417,-0.463034,-0.080587,-0.082544,-0.015894,-0.700706,0.150832,-0.233547,174.119578,-84.530357,177.340345
01182,225819,9.184650,0.428596,-0.403872,-0.033076,-0.076094,-0.019113,-0.698658,0.150945,-0.236546,174.014435,-84.489775,177.426404
01183,225919,9.468058,0.316566,-0.163721,0.012401,-0.071080,-0.014177,-0.700655,0.153443,-0.235919,173.962297,-84.452373,177.485389
01184,226019,9.798075,0.231177,0.056570,0.051695,-0.057922,-0.008220,-0.700129,0.154006,-0.237394,173.959769,-84.422883,177.517148
01185,226119,10.006444,0.202369,0.162959,0.062167,-0.037697,-0.003262,-0.700630,0.152021,-0.237495,173.979623,-84.405283,177.532443
01186,226219,9.973377,0.184154,0.242058,0.046984,-0.013648,0.007966,-0.698660,0.154906,-0.235843,174.041165,-84.402132,177.497106
01187,226319,9.911576,0.307037,0.309281,0.001038,0.017317,0.026945,-0.700124,0.156497,-0.237267,174.168033,-84.417818,177.369674
01188,226419,9.832671,0.561550,0.395422,-0.048197,0.077105,0.046149,-0.700625,0.155010,-0.237343,174.344752,-84.468738,177.163815
01189,226519,9.825390,0.876516,0.283176,-0.085858,0.138036,0.062592,-0.700534,0.159213,-0.241638,174.566148,-84.555316,176.891416
01190,226619,9.783887,1.137443,0.165590,-0.104529,0.179662,0.073071,-0.702045,0.160185,-0.240588,174.824816,-84.666144,176.570874
01191,226719,9.747491,1.250588,0.019022,-0.102078,0.196553,0.074733,-0.703012,0.161269,-0.242037,175.097602,-84.786598,176.237622
01192,226819,9.712448,1.231477,-0.110255,-0.100940,0.196482,0.071603,-0.701487,0.162813,-0.243459,175.364384,-84.906749,175.911116
01193,226919,9.794682,1.112185,-0.207656,-0.105858,0.196706,0.073314,-0.701439,0.163930,-0.245908,175.652886,-85.026986,175.560038
01194,227019,9.917798,1.019971,-0.125755,-0.100227,0.189059,0.079747,-0.700899,0.166509,-0.247780,176.006551,-85.142978,175.146858
01195,227119,10.070900,0.960835,-0.130108,-0.088501,0.188329,0.086748,-0.698356,0.164621,-0.250880,176.433556,-85.258604,174.666896
01196,227219,10.135649,0.857137,-0.036938,-0.074781,0.187465,0.089855,-0.699834,0.168655,-0.251176,176.912736,-85.373556,174.142552
01197,227319,10.284442,0.708605,0.179023,-0.044227,0.196311,0.087687,-0.703270,0.171322,-0.253550,177.415960,-85.493192,173.611741
01198,227419,10.592540,0.542259,0.378706,-0.000291,0.233205,0.084840,-0.702234,0.172399,-0.255497,177.941229,-85.633570,173.084164
01199,227519,10.998023,0.339218,0.495912,0.058676,0.304042,0.086228,-0.700194,0.172986,-0.257971,178.531978,-85.814215,172.524921
01200,227619,11.485921,0.171868,0.483255,0.120230,0.388093,0.096984,-0.698152,0.175067,-0.260368,179.289450,-86.042703,171.834046
01201,227719,11.847385,0.024279,0.216459,0.164354,0.452346,0.114102,-0.700563,0.178289,-0.264214,-179.685426,-86.307305,170.900476
01202,227819,12.024009,0.054568,-0.012686,0.174871,0.451636,0.126652,-0.699499,0.179936,-0.267637,-178.383704,-86.570098,169.696101
01203,227919,12.550384,0.254037,-0.213156,0.138417,0.420463,0.132026,-0.696406,0.181150,-0.273082,-176.859065,-86.813012,168.247851
01204,228019,13.242592,0.342440,-0.497774,0.082072,0.423869,0.135441,-0.697829,0.184332,-0.276429,-175.083702,-87.055230,166.516544
01205,228119,13.656473,0.559413,-1.248939,0.024604,0.409754,0.137412,-0.696287,0.185425,-0.278877,-173.029026,-87.286002,164.473002
01206,228219,13.366934,0.907185,-1.982496,-0.027331,0.333202,0.141156,-0.695660,0.190214,-0.285146,-170.744390,-87.468944,162.169843
01207,228319,12.357842,1.222608,-2.343468,-0.097515,0.198454,0.130423,-0.697187,0.192633,-0.283020,-168.668995,-87.572718,160.036142
01208,228419,11.340473,1.384302,-2.251068,-0.181003,0.042986,0.093223,-0.695657,0.197165,-0.284290,-167.451307,-87.590905,158.713145
01209,228519,10.774805,1.204507,-1.774911,-0.241817,-0.068931,0.050342,-0.695186,0.202542,-0.282011,-167.168539,-87.551097,158.291031
01210,228619,10.199655,0.955824,-1.316572,-0.271290,-0.121489,0.016161,-0.695626,0.203691,-0.284959,-167.506199,-87.486140,158.473008
01211,228719,9.400247,0.599961,-1.061356,-0.283317,-0.155877,-0.010080,-0.696185,0.206519,-0.281309,-168.254942,-87.404946,159.059590
01212,228819,8.566960,0.281490,-0.845470,-0.262446,-0.188812,-0.036352,-0.694169,0.209525,-0.282155,-169.343176,-87.307705,159.998033
01213,228919,7.802389,-0.004482,-0.705603,-0.198031,-0.215940,-0.074833,-0.694211,0.211896,-0.279529,-170.821770,-87.197959,161.364311
01214,229019,7.236873,-0.343749,-0.667236,-0.086860,-0.220278,-0.120944,-0.692745,0.211302,-0.278055,-172.650434,-87.087654,163.144990
01215,229119,6.845121,-0.744943,-0.747226,0.037444,-0.191084,-0.155813,-0.697233,0.213840,-0.277429,-174.621633,-86.993249,165.139867
01216,229219,6.595188,-1.170220,-0.986035,0.138032,-0.133053,-0.168382,-0.691249,0.212275,-0.278003,-176.507286,-86.929065,167.106932
01217,229319,6.687481,-1.577814,-1.386644,0.211246,-0.068333,-0.153568,-0.693253,0.210787,-0.277580,-178.091863,-86.898292,168.814583
01218,229419,7.180313,-1.944497,-1.772805,0.265716,-0.028399,-0.118213,-0.691747,0.212282,-0.278003,-179.234154,-86.887611,170.110593
01219,229519,7.956536,-2.212559,-1.875536,0.311483,0.001688,-0.065000,-0.695204,0.213406,-0.279453,-179.778966,-86.892739,170.834517
01220,229619,8.834684,-2.235122,-1.768842,0.324637,0.039192,0.003325,-0.693761,0.210273,-0.277106,-179.590629,-86.918895,170.831770
01221,229719,9.643375,-1.934706,-1.566890,0.302809,0.086658,0.079928,-0.691174,0.212467,-0.282001,-178.576404,-86.971437,169.989451
01222,229819,10.366964,-1.277301,-1.423227,0.258076,0.126491,0.158254,-0.692178,0.213455,-0.281451,-176.667207,-87.043673,168.225336
01223,229919,11.136683,-0.604440,-1.196312,0.182835,0.160108,0.210314,-0.689629,0.215055,-0.284373,-174.083674,-87.128978,165.742987
01224,230019,11.800664,0.085461,-1.010080,0.119290,0.199049,0.247928,-0.689134,0.218510,-0.283696,-170.879279,-87.227073,162.602783
01225,230119,12.244126,0.807622,-0.823039,0.055206,0.204555,0.251800,-0.692583,0.219161,-0.285670,-167.431659,-87.318696,159.182581
01226,230219,12.262707,1.248468,-0.799440,-0.043595,0.157141,0.238328,-0.688591,0.223083,-0.285466,-164.142342,-87.376136,155.864401
01227,230319,11.687056,1.362579,-0.804113,-0.133962,0.064903,0.200749,-0.689546,0.225188,-0.287364,-161.597828,-87.381499,153.240063
01228,230419,10.913647,1.171721,-0.691492,-0.190687,-0.005719,0.144255,-0.691524,0.228233,-0.287712,-160.050465,-87.354986,151.581376
01229,230519,10.043242,0.774026,-0.594526,-0.199575,-0.036193,0.077548,-0.691007,0.228274,-0.288711,-159.440354,-87.323895,150.855819
01230,230619,9.234732,0.350526,-0.479941,-0.165372,-0.058917,0.015463,-0.688547,0.232124,-0.286508,-159.627865,-87.292913,150.948365
01231,230719,8.656602,0.011731,-0.298765,-0.114333,-0.059957,-0.034792,-0.689541,0.233136,-0.286458,-160.354306,-87.271185,151.609726
01232,230819,8.329748,-0.254857,-0.076808,-0.059460,-0.049588,-0.078618,-0.689547,0.235105,-0.285856,-161.494181,-87.262773,152.716472
01233,230919,8.062335,-0.402868,0.073195,0.001943,-0.042090,-0.113691,-0.689515,0.232212,-0.288008,-162.965186,-87.263397,154.189947
01234,231019,7.960188,-0.606714,0.166878,0.059377,-0.044909,-0.134165,-0.688022,0.236648,-0.287279,-164.647456,-87.263818,155.907868
01235,231119,7.953011,-0.751698,0.191891,0.109903,-0.047916,-0.140487,-0.686021,0.236142,-0.287804,-166.380641,-87.261046,157.705743
01236,231219,8.121384,-0.855318,0.219364,0.140439,-0.041692,-0.133812,-0.690478,0.235289,-0.289355,-167.996251,-87.258412,159.403423
01237,231319,8.459802,-0.861853,0.223478,0.152840,-0.032912,-0.117305,-0.690016,0.235683,-0.287330,-169.385759,-87.256748,160.881854
01238,231419,8.869428,-0.900144,0.186508,0.148145,-0.012814,-0.092442,-0.687500,0.234221,-0.288905,-170.441342,-87.262437,162.023279
01239,231519,9.145888,-0.826976,0.071972,0.122787,0.000337,-0.053843,-0.687999,0.234229,-0.288906,-171.032114,-87.271232,162.684811
01240,231619,9.173186,-0.748458,-0.076134,0.091343,-0.013068,-0.016047,-0.687985,0.236744,-0.289278,-171.217870,-87.268885,162.922828
01241,231719,9.060862,-0.633474,-0.162361,0.047285,-0.046412,0.019584,-0.687041,0.233619,-0.286931,-171.067124,-87.244514,162.798688
01242,231819,8.887496,-0.539786,-0.149320,0.014664,-0.101449,0.037867,-0.689405,0.236462,-0.293303,-170.827047,-87.187333,162.566396
01243,231919,8.827123,-0.502186,0.021898,-0.007638,-0.170025,0.043715,-0.687477,0.236760,-0.289778,-170.669363,-87.090809,162.403791
01244,232019,8.882893,-0.485888,0.252991,-0.012873,-0.213504,0.040223,-0.687484,0.238231,-0.289202,-170.638906,-86.970051,162.365564
01245,232119,8.975481,-0.483284,0.491397,-0.016079,-0.213407,0.030528,-0.689992,0.238720,-0.288177,-170.711485,-86.850301,162.428676
01246,232219,9.004922,-0.468035,0.554016,-0.007667,-0.187011,0.019283,-0.688977,0.239251,-0.289151,-170.842795,-86.746568,162.555444
01247,232319,9.132985,-0.464306,0.636665,-0.006497,-0.166000,0.002106,-0.688023,0.241108,-0.286551,-171.098712,-86.656313,162.807705
01248,232419,9.269093,-0.512585,0.689678,0.009319,-0.127737,-0.017122,-0.689009,0.242144,-0.287000,-171.458853,-86.589394,163.173466
01249,232519,9.431002,-0.505935,0.614773,0.025013,-0.083031,-0.032020,-0.690500,0.243663,-0.286924,-171.874902,-86.548983,163.604261
01250,232619,9.623454,-0.527986,0.571707,0.038904,-0.052608,-0.045944,-0.690991,0.242698,-0.287475,-172.364162,-86.526795,164.116384
01251,232719,9.799468,-0.515191,0.475523,0.053102,-0.052002,-0.055725,-0.691967,0.243759,-0.288424,-172.928572,-86.505447,164.711955
01252,232819,10.015272,-0.455778,0.421821,0.059609,-0.068815,-0.065939,-0.691461,0.242778,-0.288974,-173.593661,-86.474890,165.412141
01253,232919,10.159136,-0.342742,0.382010,0.063314,-0.065445,-0.076158,-0.690970,0.243743,-0.288424,-174.335082,-86.446403,166.190950
01254,233019,10.181073,-0.252404,0.274899,0.066817,-0.035344,-0.090539,-0.691952,0.241814,-0.289525,-175.170032,-86.435237,167.065491
01255,233119,10.026440,-0.163495,0.092177,0.063320,-0.007142,-0.106192,-0.693381,0.242006,-0.293025,-176.127073,-86.440051,168.060348
01256,233219,9.869900,-0.166080,-0.112672,0.054950,-0.009317,-0.121939,-0.692931,0.240881,-0.290576,-177.237067,-86.443047,169.203640
01257,233319,9.840159,-0.240264,-0.184493,0.053672,-0.038253,-0.134299,-0.692934,0.239387,-0.290652,-178.469962,-86.428302,170.469341
01258,233419,9.826615,-0.368208,-0.110809,0.052942,-0.074020,-0.141057,-0.691426,0.241380,-0.291050,-179.755022,-86.391420,171.786919
01259,233519,9.866891,-0.620408,-0.010166,0.076188,-0.087426,-0.139463,-0.690884,0.239998,-0.293625,179.017321,-86.345092,173.060380
01260,233619,10.075363,-0.985904,0.101062,0.131707,-0.060823,-0.132688,-0.690344,0.243076,-0.295471,177.905442,-86.312511,174.249753
01261,233719,10.508267,-1.306041,0.161175,0.198023,-0.019067,-0.121052,-0.693300,0.240230,-0.297624,176.935767,-86.302805,175.334726
01262,233819,11.100053,-1.488631,0.449653,0.244883,0.042911,-0.107762,-0.691827,0.239161,-0.296675,176.079300,-86.327975,176.333148
01263,233919,11.723023,-1.470314,0.882340,0.253642,0.114031,-0.091993,-0.696763,0.238365,-0.299226,175.304948,-86.393659,177.254264
01264,234019,12.372788,-1.299531,1.329148,0.204190,0.183514,-0.068278,-0.695197,0.237039,-0.303300,174.629751,-86.499599,178.047552
01265,234119,12.992651,-0.820934,1.594184,0.109818,0.263384,-0.038845,-0.693687,0.240527,-0.303622,174.057093,-86.652369,178.683832
01266,234219,13.293190,-0.134049,1.432190,0.018976,0.362923,-0.020964,-0.694120,0.240703,-0.307121,173.438774,-86.862692,179.313588
01267,234319,13.190469,0.604767,0.959675,-0.032215,0.436957,-0.017400,-0.691591,0.241258,-0.309094,172.632770,-87.115012,-179.898232
01268,234419,13.010608,1.280391,0.327040,-0.051794,0.489305,-0.038961,-0.692936,0.242166,-0.317066,171.296284,-87.394534,-178.590383
01269,234519,13.220283,1.661657,-0.475126,-0.066657,0.513300,-0.077637,-0.695335,0.246408,-0.321361,169.031896,-87.681708,-176.362600
01270,234619,13.332291,1.612298,-1.628673,-0.090793,0.502912,-0.105693,-0.696275,0.247066,-0.324335,165.724301,-87.954493,-173.105136
01271,234719,12.833515,1.119373,-2.685772,-0.113278,0.427261,-0.127166,-0.692242,0.247621,-0.326807,161.478960,-88.173289,-168.922773
01272,234819,11.522456,0.380024,-3.511010,-0.128519,0.278788,-0.141650,-0.693670,0.248811,-0.330256,157.021649,-88.297936,-164.537464
01273,234919,9.928327,-0.268950,-3.805212,-0.158970,0.095953,-0.139759,-0.694647,0.249373,-0.331230,153.601177,-88.317957,-161.207048
01274,235019,8.961111,-0.509617,-3.199149,-0.206245,-0.080618,-0.115930,-0.693113,0.250442,-0.333178,152.126523,-88.249752,-159.850369
01275,235119,8.212111,-0.324221,-2.588448,-0.209317,-0.251628,-0.099782,-0.695657,0.251831,-0.330104,152.443970,-88.098552,-160.288371
01276,235219,7.704691,0.073762,-1.914189,-0.152680,-0.390030,-0.107553,-0.697165,0.254298,-0.328978,153.609770,-87.874357,-161.542821
01277,235319,7.663315,0.513375,-0.909742,-0.075635,-0.414433,-0.120209,-0.700700,0.253735,-0.326505,154.573092,-87.633572,-162.550649
01278,235419,7.942270,0.764611,-0.197929,-0.046843,-0.321166,-0.120655,-0.701704,0.254723,-0.325955,154.865918,-87.440562,-162.871013
01279,235519,8.247813,0.993893,-0.136619,-0.081146,-0.190686,-0.094472,-0.701748,0.256097,-0.323380,154.714168,-87.321538,-162.766058
01280,235619,8.509937,1.157772,-0.688885,-0.139916,-0.064904,-0.052704,-0.701764,0.252087,-0.323083,154.343386,-87.277780,-162.475531
01281,235719,8.674980,1.163164,-1.638387,-0.192149,0.045483,-0.006602,-0.703297,0.256474,-0.320356,153.868800,-87.302223,-162.111038
01282,235819,8.734819,1.124218,-2.516050,-0.231239,0.090893,0.027883,-0.703196,0.256241,-0.325879,153.495407,-87.358429,-161.870267
01283,235919,9.002806,0.778428,-2.740881,-0.222162,0.066555,0.044467,-0.703713,0.255703,-0.324905,153.441299,-87.406170,-161.943903
01284,236019,9.578607,0.506819,-2.621077,-0.212994,0.017876,0.059542,-0.703722,0.256177,-0.324380,153.844751,-87.432573,-162.470289
01285,236119,10.276068,0.098717,-2.312540,-0.192579,-0.023311,0.087865,-0.703220,0.258162,-0.324278,154.828242,-87.444311,-163.565563
01286,236219,10.856105,-0.149653,-1.899197,-0.160823,-0.044874,0.109211,-0.706213,0.260676,-0.323652,156.204911,-87.448767,-165.036174
01287,236319,10.900144,-0.309355,-1.421129,-0.123290,-0.052857,0.126082,-0.705193,0.263698,-0.324499,157.848779,-87.450997,-166.752708
01288,236419,10.718042,-0.118185,-1.179924,-0.105513,-0.067216,0.131614,-0.704738,0.265563,-0.321898,159.636429,-87.444369,-168.602966
01289,236519,10.190626,0.140061,-1.023274,-0.083919,-0.107856,0.120310,-0.706250,0.266037,-0.320874,161.453743,-87.410986,-170.470556
01290,236619,9.776937,0.448426,-0.874407,-0.060155,-0.116180,0.096999,-0.707264,0.266502,-0.319849,162.987552,-87.366498,-172.040769
01291,236719,9.463150,0.628018,-0.668950,-0.043208,-0.132784,0.062625,-0.708263,0.269982,-0.319172,164.128584,-87.305617,-173.208124
01292,236819,9.053913,0.714959,-0.442889,-0.024123,-0.133888,0.043008,-0.708292,0.269411,-0.317698,165.006079,-87.240167,-174.100757
01293,236919,8.702850,0.773813,-0.277670,-0.031867,-0.136842,0.031379,-0.707295,0.269894,-0.317672,165.714711,-87.170799,-174.828819
01294,237019,8.448563,0.849737,-0.173772,-0.044672,-0.127124,0.019495,-0.709281,0.273413,-0.317495,166.223815,-87.104800,-175.364496
01295,237119,8.304124,0.750174,-0.136459,-0.055972,-0.109429,0.022253,-0.709802,0.270881,-0.316622,166.686987,-87.048798,-175.860693
01296,237219,8.250580,0.643317,-0.203144,-0.068723,-0.078470,0.032922,-0.707350,0.270247,-0.314648,167.162940,-87.011243,-176.377027
01297,237319,8.307666,0.597605,-0.271125,-0.081503,-0.027425,0.046360,-0.710834,0.272296,-0.314548,167.642840,-87.003676,-176.904657
01298,237419,8.467153,0.587808,-0.469221,-0.101628,0.020767,0.059299,-0.710832,0.273292,-0.314497,168.138592,-87.024399,-177.459700
01299,237519,8.638851,0.534407,-0.745773,-0.129392,0.050757,0.064107,-0.710315,0.273332,-0.315496,168.612248,-87.062215,-178.008530
01300,237619,8.733837,0.539576,-0.859045,-0.144872,0.032806,0.070399,-0.711795,0.276369,-0.315844,169.197840,-87.090312,-178.678301
01301,237719,8.778798,0.531986,-0.850426,-0.151029,-0.015118,0.068740,-0.711847,0.273260,-0.313497,169.868759,-87.090804,-179.437029
01302,237819,8.863038,0.512042,-0.742811,-0.144275,-0.060939,0.062458,-0.714246,0.278000,-0.317768,170.557944,-87.064307,179.789822
01303,237919,8.934329,0.465340,-0.553533,-0.126810,-0.100745,0.056778,-0.713842,0.276755,-0.312820,171.248303,-87.014271,179.025493
01304,238019,9.117592,0.428174,-0.448913,-0.106212,-0.131704,0.050730,-0.714334,0.275292,-0.313396,171.908315,-86.945696,178.303331
01305,238119,9.221858,0.454694,-0.420006,-0.083755,-0.147139,0.042562,-0.711369,0.277664,-0.311769,172.486476,-86.867296,177.675976
01306,238219,9.206969,0.567666,-0.421186,-0.051619,-0.142937,0.033597,-0.714394,0.278113,-0.309745,172.956864,-86.790307,177.174954
01307,238319,9.217358,0.551382,-0.293349,-0.022972,-0.133387,0.022629,-0.713869,0.277181,-0.311296,173.300543,-86.717792,176.817245
01308,238419,9.162969,0.612603,-0.093505,0.011061,-0.114850,0.013061,-0.712884,0.276145,-0.310846,173.534542,-86.655100,176.588906
01309,238519,9.136857,0.642705,0.055403,0.029193,-0.087833,0.007368,-0.713927,0.276040,-0.308347,173.686753,-86.607398,176.452888
01310,238619,9.138905,0.539171,0.121312,0.045128,-0.058804,0.010398,-0.716906,0.276111,-0.308848,173.842640,-86.576413,176.322325
01311,238719,9.104285,0.455628,0.112980,0.057793,-0.027629,0.015550,-0.713382,0.276152,-0.310846,174.020657,-86.563495,176.176858
01312,238819,9.139601,0.433371,0.077374,0.067936,-0.000651,0.023714,-0.714384,0.278137,-0.310245,174.254491,-86.566414,175.981293
01313,238919,9.202605,0.434732,-0.011869,0.078392,0.009238,0.029835,-0.714883,0.277647,-0.310271,174.543695,-86.575265,175.736262
01314,239019,9.288727,0.400938,-0.080859,0.080107,0.007466,0.036231,-0.713374,0.275678,-0.311372,174.897786,-86.583362,175.427215
01315,239119,9.371560,0.411665,-0.064991,0.061151,-0.001072,0.042837,-0.713873,0.275188,-0.311397,175.312480,-86.586785,175.046580
01316,239219,9.353505,0.483468,0.021707,0.034061,0.008749,0.053813,-0.712330,0.276281,-0.313845,175.810534,-86.596131,174.566889
01317,239319,9.310251,0.602124,0.154755,0.011365,0.032573,0.069248,-0.713850,0.277727,-0.312270,176.432324,-86.619430,173.950228
01318,239419,9.310730,0.701511,0.202289,0.004107,0.059787,0.088558,-0.714769,0.279430,-0.316192,177.233502,-86.658470,173.149723
01319,239519,9.383304,0.682686,0.219133,0.007943,0.087921,0.099450,-0.715336,0.277277,-0.312795,178.154268,-86.713177,172.231670
01320,239619,9.534061,0.609824,0.224585,0.016740,0.111133,0.106111,-0.715276,0.279912,-0.315667,179.174757,-86.780380,171.218840
01321,239719,9.584047,0.474541,0.207745,0.021370,0.123200,0.113173,-0.712770,0.277430,-0.316793,-179.685182,-86.853435,170.088982
01322,239819,9.532658,0.381151,0.164637,0.007472,0.129169,0.120619,-0.713772,0.279913,-0.316166,-178.418668,-86.928517,168.824593
01323,239919,9.472529,0.410226,0.135152,-0.026354,0.141016,0.129698,-0.712720,0.280042,-0.319165,-177.003200,-87.008557,167.391731
01324,240019,9.527223,0.576023,0.104429,-0.070551,0.161146,0.137952,-0.713208,0.280074,-0.319665,-175.425640,-87.097795,165.771320
01325,240119,9.716466,0.785109,0.140141,-0.101766,0.172916,0.140382,-0.711656,0.281191,-0.322612,-173.723641,-87.191206,164.008541
01326,240219,10.121357,0.891369,0.224575,-0.092662,0.177117,0.140169,-0.709188,0.279110,-0.321714,-171.895133,-87.284287,162.124474
01327,240319,10.519435,0.937161,0.327905,-0.058755,0.192184,0.130392,-0.710144,0.280717,-0.323637,-170.005775,-87.383805,160.199093
01328,240419,10.861570,0.757986,0.437481,-0.022041,0.212152,0.116683,-0.708124,0.280757,-0.325136,-168.068058,-87.493033,158.246524
01329,240519,11.120375,0.398317,0.650099,0.021967,0.233142,0.109153,-0.709061,0.282911,-0.328033,-165.960358,-87.611841,156.149229
01330,240619,11.361433,0.010736,0.861618,0.066469,0.263595,0.113550,-0.709007,0.282059,-0.331083,-163.423103,-87.743136,153.647742
01331,240719,11.783751,-0.215130,1.118422,0.107956,0.324592,0.122186,-0.706518,0.281023,-0.331133,-160.110994,-87.900814,150.394882
01332,240819,12.548348,-0.521093,1.237439,0.168221,0.437021,0.133437,-0.704442,0.281208,-0.335631,-155.280874,-88.106624,145.658029
01333,240919,12.931957,-0.855696,0.804343,0.234758,0.532742,0.153988,-0.702855,0.280927,-0.340653,-147.983590,-88.336793,138.491580
01334,241019,12.924561,-0.908933,0.364154,0.258833,0.536118,0.164397,-0.700773,0.284600,-0.344973,-138.331094,-88.529848,128.983628
01335,241119,13.024785,-0.704341,0.085364,0.238246,0.535527,0.171162,-0.699692,0.285299,-0.349446,-126.166239,-88.667235,116.951493
01336,241219,13.317267,-0.325440,-0.288895,0.181812,0.574967,0.168903,-0.698628,0.286448,-0.352894,-111.116265,-88.743497,102.001712
01337,241319,13.321244,0.196509,-1.028954,0.097428,0.560274,0.166665,-0.698079,0.289052,-0.355265,-95.781958,-88.727337,86.719353
01338,241419,12.808027,0.782885,-1.761429,-0.001147,0.469728,0.160631,-0.696954,0.288377,-0.362313,-83.981094,-88.636005,74.914551
01339,241519,12.137733,1.350831,-2.285052,-0.088148,0.345276,0.138636,-0.695408,0.291463,-0.364659,-76.604755,-88.525583,67.485268
01340,241619,11.408340,1.454425,-2.519241,-0.124502,0.189405,0.084535,-0.695387,0.293005,-0.365582,-73.100158,-88.451802,63.907936
01341,241719,10.728426,1.124215,-2.487010,-0.115193,0.028713,0.026838,-0.694854,0.297055,-0.366879,-72.676045,-88.433657,63.417491
01342,241819,10.133282,0.608940,-2.266410,-0.105456,-0.114122,-0.021166,-0.693389,0.295963,-0.365430,-74.858294,-88.465077,65.539948
01343,241919,9.309548,-0.001737,-1.824706,-0.089248,-0.231679,-0.052044,-0.694380,0.298968,-0.365278,-79.520183,-88.525257,70.152144
01344,242019,8.527037,-0.434435,-1.480760,-0.074760,-0.349987,-0.082425,-0.695448,0.300286,-0.361203,-87.225080,-88.597244,77.816463
01345,242119,7.869291,-0.862590,-1.111348,-0.016334,-0.438552,-0.120616,-0.696538,0.300061,-0.356205,-97.807788,-88.657419,88.392674
01346,242219,7.451924,-1.273450,-0.833681,0.087730,-0.448745,-0.159810,-0.699570,0.301483,-0.353631,-109.465896,-88.687924,100.104006
01347,242319,7.332190,-1.588541,-0.771604,0.215258,-0.377391,-0.191679,-0.699531,0.297618,-0.356333,-119.974045,-88.699259,110.738070
01348,242419,7.404178,-1.993027,-1.049735,0.343686,-0.265983,-0.204321,-0.703077,0.295536,-0.353437,-128.279895,-88.712526,119.242828
01349,242519,7.712370,-2.295480,-1.508394,0.441515,-0.140318,-0.188585,-0.701064,0.291092,-0.355165,-133.968003,-88.742719,125.185198
01350,242619,8.245442,-2.321402,-1.836265,0.500182,-0.035105,-0.159506,-0.703098,0.289034,-0.353268,-137.393963,-88.793639,128.898431
01351,242719,8.798076,-2.195827,-1.946545,0.514281,0.012404,-0.122081,-0.704085,0.283618,-0.354547,-139.431127,-88.846640,131.230587
01352,242819,9.422770,-1.847330,-1.786442,0.490499,0.019364,-0.060991,-0.705595,0.285088,-0.353472,-140.155583,-88.878764,132.236115
01353,242919,10.152985,-1.261086,-1.432210,0.449964,0.021845,0.018139,-0.705558,0.280226,-0.356225,-139.099465,-88.882556,131.437499
01354,243019,10.850412,-0.547426,-1.367751,0.390528,0.042497,0.091962,-0.706554,0.280242,-0.356225,-136.081309,-88.865924,128.642405
01355,243119,11.153467,0.135191,-1.649264,0.325626,0.024175,0.133185,-0.705060,0.279720,-0.356250,-132.778499,-88.822009,125.525380
01356,243219,11.036194,0.593372,-1.826021,0.257136,-0.054988,0.147275,-0.706546,0.279768,-0.356750,-131.105478,-88.739058,123.999194
01357,243319,10.592881,0.734494,-1.668112,0.173851,-0.156729,0.148088,-0.709054,0.280257,-0.355726,-131.525811,-88.616904,124.519128
01358,243419,10.148659,0.742363,-1.245049,0.103878,-0.232505,0.130413,-0.709081,0.280684,-0.354201,-133.376267,-88.472677,126.429570
01359,243519,9.772196,0.727476,-0.941875,0.053637,-0.289893,0.099628,-0.712116,0.280611,-0.351703,-136.145868,-88.315959,129.230852
01360,243619,9.495837,0.647572,-0.693000,0.025890,-0.335676,0.068244,-0.714144,0.281542,-0.349653,-139.407605,-88.147973,132.508830
01361,243719,9.247082,0.533192,-0.383479,0.009059,-0.357987,0.034989,-0.713672,0.282459,-0.348103,-142.776138,-87.976449,135.884326
01362,243819,9.043048,0.397893,-0.147741,0.001195,-0.346084,0.001789,-0.716757,0.280771,-0.343182,-145.924850,-87.815377,139.035688
01363,243919,8.857568,0.192542,-0.075108,0.004488,-0.318735,-0.031416,-0.716806,0.279155,-0.340760,-148.831236,-87.671906,141.946741
01364,244019,8.717068,0.003098,-0.147820,0.023596,-0.278837,-0.062840,-0.716802,0.281148,-0.340658,-151.497165,-87.551845,144.628356
01365,244119,8.640666,-0.273043,-0.248924,0.061504,-0.238092,-0.084785,-0.717840,0.278577,-0.338786,-153.909860,-87.453472,147.078454
01366,244219,8.616625,-0.590739,-0.349378,0.097238,-0.215852,-0.092203,-0.719844,0.277588,-0.338338,-156.089745,-87.364241,149.316177
01367,244319,8.742847,-0.856018,-0.355628,0.122520,-0.204480,-0.081000,-0.723889,0.275015,-0.335467,-157.930835,-87.274997,151.229397
01368,244419,8.971238,-0.970681,-0.279905,0.129143,-0.195547,-0.060126,-0.723422,0.273441,-0.334044,-159.382223,-87.183628,152.756401
01369,244519,9.175834,-0.988054,-0.259863,0.127438,-0.181690,-0.029388,-0.722962,0.272340,-0.332095,-160.360218,-87.092107,153.808565
01370,244619,9.314538,-0.848598,-0.320360,0.094614,-0.179015,0.002184,-0.724015,0.271713,-0.329122,-160.957817,-86.995325,154.461083
01371,244719,9.439972,-0.731496,-0.333870,0.045476,-0.166047,0.041941,-0.723959,0.272356,-0.332095,-161.101226,-86.897947,154.630630
01372,244819,9.477535,-0.645586,-0.329135,-0.015424,-0.146192,0.086480,-0.726524,0.272202,-0.328098,-160.770774,-86.803002,154.290668
01373,244919,9.409495,-0.528653,-0.494540,-0.077093,-0.130507,0.118184,-0.729042,0.272170,-0.326599,-160.143950,-86.710291,153.618438
01374,245019,9.308462,-0.492563,-0.571865,-0.126671,-0.118085,0.136336,-0.728580,0.273062,-0.324549,-159.373346,-86.620194,152.773670
01375,245119,9.218440,-0.497190,-0.605274,-0.149919,-0.113936,0.140089,-0.727580,0.275039,-0.324447,-158.610319,-86.530888,151.923070
01376,245219,9.120259,-0.561436,-0.565260,-0.157916,-0.118543,0.133809,-0.728576,0.275055,-0.324447,-157.961677,-86.439834,151.182399
01377,245319,9.237735,-0.625978,-0.354909,-0.147974,-0.123822,0.120431,-0.731610,0.275978,-0.321898,-157.470810,-86.348444,150.605451
01378,245419,9.485633,-0.634238,-0.169467,-0.128233,-0.117109,0.097311,-0.731119,0.276942,-0.321347,-157.158122,-86.265471,150.218332
01379,245519,9.676792,-0.714586,-0.047986,-0.092854,-0.082441,0.073064,-0.732119,0.274966,-0.321450,-156.914714,-86.206103,149.920926
01380,245619,9.607258,-0.949975,-0.105870,-0.062789,-0.031891,0.056308,-0.735111,0.278476,-0.320773,-156.621972,-86.177053,149.591328
01381,245719,9.372192,-1.132009,-0.297601,-0.038033,-0.003437,0.044522,-0.734624,0.276950,-0.320349,-156.313642,-86.165529,149.260317
01382,245819,9.217883,-1.226846,-0.387538,-0.036138,0.021601,0.035870,-0.736629,0.275463,-0.319926,-155.985918,-86.168997,148.910957
01383,245919,9.122667,-1.233429,-0.567648,-0.047419,0.049843,0.030139,-0.735623,0.275471,-0.320426,-155.608177,-86.188408,148.504999
01384,246019,9.168422,-1.184954,-0.738706,-0.046910,0.058419,0.026574,-0.740165,0.273903,-0.317504,-155.222503,-86.212932,148.091395
01385,246119,9.360768,-1.122516,-0.815256,-0.037970,0.055321,0.025204,-0.740635,0.273983,-0.319004,-154.848314,-86.235970,147.694448
01386,246219,9.538785,-1.047929,-0.866800,-0.021245,0.042217,0.022960,-0.742061,0.276168,-0.322402,-154.526545,-86.252585,147.359648
01387,246319,9.731014,-1.049544,-0.781462,0.009507,0.014823,0.016426,-0.740596,0.275076,-0.320952,-154.339771,-86.256539,147.177796
01388,246419,9.840941,-1.133986,-0.681210,0.056537,0.002327,0.002533,-0.744612,0.273074,-0.319556,-154.282422,-86.257448,147.152652
01389,246519,9.859458,-1.249014,-0.613669,0.108637,0.002963,-0.014420,-0.746097,0.273122,-0.320056,-154.326147,-86.262881,147.258716
01390,246619,9.893804,-1.400140,-0.509794,0.164434,0.025363,-0.028918,-0.746100,0.271627,-0.320132,-154.367331,-86.283459,147.394270
01391,246719,10.079849,-1.362076,-0.356711,0.211085,0.067704,-0.039893,-0.748117,0.273579,-0.318532,-154.307334,-86.328621,147.455215
01392,246819,10.371273,-1.167794,-0.168129,0.216108,0.124904,-0.047705,-0.749055,0.269778,-0.322234,-154.081881,-86.405250,147.353252
01393,246919,10.774330,-0.779164,0.029581,0.176985,0.187754,-0.052066,-0.751518,0.269890,-0.323734,-153.648471,-86.515290,147.020486
01394,247019,11.098655,-0.333978,0.137187,0.085829,0.234366,-0.051617,-0.751026,0.266394,-0.323912,-153.033953,-86.648922,146.454009
01395,247119,11.121215,-0.019365,0.150638,-0.015279,0.260055,-0.055940,-0.751976,0.266530,-0.326411,-152.347168,-86.796411,145.757201
01396,247219,11.002779,0.220424,-0.041323,-0.082446,0.267301,-0.057142,-0.754408,0.268209,-0.329335,-151.607794,-86.947412,144.969282
01397,247319,11.163159,0.417968,-0.410004,-0.106743,0.281022,-0.065436,-0.756406,0.264753,-0.329513,-150.810107,-87.107021,144.109144
01398,247419,11.749280,0.591614,-0.915040,-0.117785,0.312996,-0.081951,-0.757863,0.265371,-0.331487,-149.902125,-87.286556,143.132370
01399,247519,12.115132,0.571416,-1.552269,-0.163247,0.318236,-0.098935,-0.759302,0.265042,-0.334512,-149.042699,-87.472841,142.178276
01400,247619,11.850270,0.298833,-2.245042,-0.224694,0.262016,-0.107315,-0.758286,0.265572,-0.335486,-148.588821,-87.633487,141.594987
01401,247719,10.912585,-0.163235,-2.719407,-0.258909,0.122033,-0.113090,-0.760240,0.266696,-0.337435,-149.222584,-87.727120,142.080668
01402,247819,9.984849,-0.165424,-2.842226,-0.305944,-0.042407,-0.108564,-0.762768,0.266141,-0.335462,-151.074372,-87.737214,143.758341
01403,247919,9.395520,-0.101411,-2.485802,-0.286565,-0.165760,-0.107414,-0.764754,0.264702,-0.336039,-153.712431,-87.681680,146.234056
01404,248019,8.792799,-0.015247,-2.104391,-0.242008,-0.255369,-0.124063,-0.764307,0.267041,-0.332913,-156.899450,-87.578448,149.284893
01405,248119,8.427216,0.137617,-1.590311,-0.210304,-0.306809,-0.140200,-0.764395,0.264832,-0.328516,-160.229556,-87.444106,152.497401
01406,248219,8.276367,0.353419,-0.709637,-0.188711,-0.296762,-0.147881,-0.769950,0.264227,-0.324545,-163.267116,-87.309079,155.429780
01407,248319,8.471828,0.601917,-0.042235,-0.182945,-0.197361,-0.151713,-0.770976,0.263174,-0.323096,-165.769312,-87.223250,157.829757
01408,248419,8.833412,0.674125,0.113713,-0.176871,-0.046223,-0.140129,-0.770955,0.264219,-0.324045,-167.616086,-87.215936,159.577117
01409,248519,9.252582,0.701791,-0.076536,-0.180303,0.079725,-0.106793,-0.770975,0.263673,-0.323071,-168.781478,-87.273157,160.640298
01410,248619,9.511906,0.782880,-0.484013,-0.206477,0.168684,-0.070769,-0.772929,0.264299,-0.325045,-169.372621,-87.375733,161.113519
01411,248719,9.738644,0.764515,-0.887531,-0.233748,0.233141,-0.046595,-0.773975,0.262201,-0.322648,-169.561663,-87.511926,161.168553
01412,248819,10.040068,0.537400,-1.273531,-0.243653,0.250727,-0.026311,-0.770412,0.263335,-0.326595,-169.448033,-87.655886,160.914958
01413,248919,10.410437,0.199105,-1.528716,-0.231824,0.217884,0.004175,-0.771932,0.264781,-0.325020,-168.952131,-87.777996,160.285598
01414,249019,10.793128,-0.076334,-1.525446,-0.213786,0.173456,0.038265,-0.771378,0.264918,-0.328018,-168.004540,-87.870905,159.214611
01415,249119,11.067351,-0.268014,-1.398321,-0.196154,0.129856,0.077786,-0.772341,0.267497,-0.329391,-166.500600,-87.933532,157.597067
01416,249219,11.151745,-0.383322,-1.185899,-0.197432,0.067781,0.104174,-0.772859,0.266959,-0.328417,-164.752658,-87.956219,155.734676
01417,249319,11.060965,-0.271189,-0.912709,-0.218698,-0.018438,0.115552,-0.775863,0.268951,-0.327317,-163.207136,-87.927679,154.062639
01418,249419,10.765953,0.052952,-0.493862,-0.248160,-0.087255,0.106553,-0.774891,0.270855,-0.325715,-162.186920,-87.861695,152.899321
01419,249519,10.386841,0.356457,-0.200397,-0.252932,-0.118115,0.077035,-0.775369,0.271908,-0.326664,-161.796561,-87.783625,152.363522
01420,249619,9.919188,0.633831,-0.105532,-0.236248,-0.133656,0.039535,-0.776927,0.272760,-0.323115,-162.007611,-87.703761,152.439133
01421,249719,9.499414,0.742406,-0.094211,-0.215727,-0.150135,0.007177,-0.775924,0.276232,-0.322937,-162.692450,-87.620525,153.000698
01422,249819,9.145181,0.713575,0.001629,-0.198900,-0.158456,-0.021902,-0.779456,0.277163,-0.320389,-163.729065,-87.537230,153.924034
01423,249919,8.853409,0.595046,0.116029,-0.191796,-0.138560,-0.043003,-0.779502,0.277043,-0.317889,-164.893060,-87.467475,154.978996
01424,250019,8.639814,0.466072,0.143395,-0.191511,-0.103885,-0.054959,-0.781459,0.276672,-0.319915,-166.037684,-87.417789,156.014777
01425,250119,8.437290,0.313861,0.112493,-0.204085,-0.079858,-0.058321,-0.779537,0.278441,-0.315814,-167.121891,-87.381079,156.982901
01426,250219,8.444658,0.206964,0.001361,-0.223124,-0.077940,-0.061903,-0.779021,0.277983,-0.316839,-168.226789,-87.345068,157.960845
01427,250319,8.575937,0.069162,-0.093801,-0.244019,-0.091471,-0.062380,-0.784528,0.278496,-0.315316,-169.351762,-87.300654,158.946932
01428,250419,8.676936,0.034891,-0.281098,-0.265401,-0.120734,-0.056877,-0.781549,0.277926,-0.314841,-170.448039,-87.238306,159.892068
01429,250519,8.697934,0.060521,-0.431335,-0.285925,-0.173657,-0.056399,-0.781072,0.276375,-0.313917,-171.595810,-87.145097,160.877048
01430,250619,8.627302,0.208798,-0.531848,-0.297498,-0.231274,-0.057662,-0.783120,0.276761,-0.310893,-172.777950,-87.018321,161.889895
01431,250719,8.586548,0.352778,-0.523219,-0.292057,-0.275080,-0.062325,-0.784180,0.277106,-0.307369,-173.965570,-86.865884,162.911478
01432,250819,8.640640,0.506955,-0.452479,-0.254804,-0.300904,-0.066206,-0.783728,0.277476,-0.304845,-175.090820,-86.697870,163.892126
01433,250919,8.817496,0.652754,-0.383500,-0.205280,-0.305752,-0.076170,-0.788785,0.276366,-0.300899,-176.183549,-86.526497,164.868785
01434,251019,9.093089,0.718615,-0.427937,-0.169514,-0.304211,-0.087959,-0.788815,0.275297,-0.299450,-177.264330,-86.355337,165.854178
01435,251119,9.291066,0.665196,-0.378542,-0.138214,-0.301694,-0.101290,-0.787859,0.273690,-0.297527,-178.348806,-86.184799,166.861431
01436,251219,9.324178,0.514992,-0.243203,-0.114927,-0.296603,-0.105305,-0.790897,0.272123,-0.295105,-179.363227,-86.016069,167.812035
01437,251319,9.325894,0.398999,-0.164613,-0.090017,-0.298001,-0.098699,-0.789938,0.271513,-0.293131,179.768392,-85.845510,168.630731
01438,251419,9.414714,0.322723,-0.143481,-0.045716,-0.272526,-0.086699,-0.792466,0.271456,-0.291132,179.079260,-85.688864,169.295309
01439,251519,9.533348,0.295311,-0.299698,-0.003116,-0.230301,-0.069418,-0.795964,0.270491,-0.290685,178.580546,-85.556129,169.793514
01440,251619,9.653641,0.258131,-0.556431,0.036977,-0.202218,-0.053256,-0.793516,0.267365,-0.288837,178.242773,-85.439470,170.153406
01441,251719,9.651854,0.294078,-0.725597,0.055395,-0.194567,-0.037742,-0.796054,0.266786,-0.286364,178.039494,-85.327352,170.389009
01442,251819,9.440988,0.396141,-0.759526,0.051608,-0.206704,-0.025379,-0.797557,0.267284,-0.285840,177.931830,-85.208485,170.526528
01443,251919,9.289815,0.545146,-0.552974,0.032591,-0.222218,-0.012991,-0.798093,0.266697,-0.283866,177.905524,-85.080989,170.571485
01444,252019,9.383616,0.715076,-0.365361,0.027784,-0.225839,-0.004464,-0.798602,0.265685,-0.283417,177.934195,-84.951614,170.558494
01445,252119,9.601690,0.793557,-0.267028,0.035174,-0.219921,0.000448,-0.800657,0.267042,-0.279843,177.995457,-84.825748,170.517026
01446,252219,9.830793,0.768764,-0.085865,0.046883,-0.192142,0.006392,-0.800696,0.266448,-0.277869,178.091596,-84.715930,170.447259
01447,252319,10.021626,0.702787,0.041123,0.048497,-0.147761,0.010435,-0.802159,0.263080,-0.280046,178.201045,-84.631626,170.365038
01448,252419,10.128538,0.622511,0.149592,0.040052,-0.092945,0.018730,-0.800686,0.266472,-0.278369,178.342729,-84.578881,170.245564
01449,252519,10.189504,0.619909,0.195305,0.018645,-0.024984,0.030831,-0.800659,0.266046,-0.279894,178.531375,-84.565259,170.066586
01450,252619,10.119210,0.668762,0.105253,-0.011045,0.043738,0.041986,-0.802667,0.262566,-0.279572,178.759989,-84.591128,169.830370
01451,252719,10.057418,0.748495,-0.015593,-0.055217,0.095312,0.054319,-0.802645,0.264607,-0.280470,179.035003,-84.646612,169.522139
01452,252819,10.074715,0.843170,-0.040059,-0.099648,0.141587,0.069624,-0.799607,0.266175,-0.282892,179.381857,-84.728602,169.116222
01453,252919,10.155682,0.914097,0.006696,-0.116966,0.181183,0.086741,-0.801597,0.267701,-0.282817,179.837683,-84.833115,168.590974
01454,253019,10.225461,0.924607,0.068571,-0.084355,0.212731,0.099597,-0.804021,0.268906,-0.286265,-179.583033,-84.955286,167.960625
01455,253119,10.358153,0.879035,0.197981,-0.016216,0.252004,0.106201,-0.801507,0.266447,-0.287891,-178.885591,-85.099313,167.250986
01456,253219,10.597511,0.690979,0.373457,0.065383,0.316741,0.107296,-0.802908,0.266712,-0.292889,-178.076115,-85.279628,166.476005
01457,253319,10.958186,0.324917,0.460153,0.143167,0.413831,0.105464,-0.800330,0.268882,-0.297285,-177.137254,-85.514602,165.616163
01458,253419,11.362718,-0.080713,0.188126,0.198238,0.502261,0.108216,-0.801237,0.266647,-0.302410,-175.998711,-85.798808,164.588019
01459,253519,11.664750,-0.434418,-0.329943,0.225198,0.531097,0.136323,-0.800701,0.267234,-0.304384,-174.430161,-86.096242,163.144665
01460,253619,12.124189,-0.566928,-0.796038,0.220304,0.530079,0.177741,-0.795130,0.271847,-0.308652,-172.245839,-86.386860,161.081916
01461,253719,12.797244,-0.534721,-1.364759,0.203854,0.551355,0.222658,-0.797481,0.272248,-0.316150,-169.230168,-86.678954,158.177524
01462,253819,13.369352,-0.234221,-2.106185,0.188620,0.549222,0.262008,-0.798846,0.272111,-0.323173,-165.259811,-86.953643,154.309074
01463,253919,13.418792,0.271831,-2.767249,0.166483,0.474430,0.275311,-0.795306,0.275664,-0.325493,-160.696434,-87.168317,149.835007
01464,254019,12.962494,0.862775,-3.131702,0.122239,0.333225,0.249741,-0.795231,0.276355,-0.329466,-156.451031,-87.294627,145.654564
01465,254119,12.138041,1.262400,-3.225267,0.056250,0.131420,0.199110,-0.791711,0.279361,-0.330812,-153.569799,-87.315451,142.802202
01466,254219,11.548313,1.325654,-2.684317,-0.013399,-0.058999,0.142483,-0.795680,0.283434,-0.331110,-152.393719,-87.249000,141.616903
01467,254319,11.091530,1.130563,-1.771423,-0.067744,-0.165491,0.095685,-0.796189,0.282422,-0.330661,-152.363580,-87.140314,141.547653
01468,254419,10.382587,0.786132,-0.951511,-0.102973,-0.196794,0.066532,-0.797187,0.286399,-0.329958,-152.802331,-87.023411,141.927679
01469,254519,9.652220,0.352776,-0.541150,-0.101814,-0.189468,0.043068,-0.797696,0.290843,-0.328730,-153.397340,-86.916170,142.464880
01470,254619,8.857160,-0.111396,-0.297534,-0.052671,-0.161511,0.015748,-0.797772,0.289654,-0.324783,-154.053164,-86.829923,143.091234
01471,254719,8.089127,-0.491817,-0.287376,0.024954,-0.118480,-0.023248,-0.798233,0.289758,-0.326782,-154.801686,-86.775146,143.855018
01472,254819,7.448798,-0.814105,-0.337635,0.112206,-0.052584,-0.066811,-0.798693,0.290361,-0.328756,-155.599707,-86.764532,144.718476
01473,254919,6.814973,-1.102204,-0.603353,0.201509,0.020732,-0.100588,-0.798697,0.287869,-0.328883,-156.356845,-86.799483,145.592227
01474,255019,6.413974,-1.228248,-0.996127,0.280647,0.080861,-0.121636,-0.798167,0.284969,-0.331034,-157.044411,-86.870182,146.441672
01475,255119,6.434639,-1.279500,-1.364960,0.351275,0.122166,-0.128396,-0.800119,0.282131,-0.333686,-157.625094,-86.963632,147.224543
01476,255219,6.917188,-1.273136,-1.702767,0.394697,0.145215,-0.113707,-0.798128,0.281103,-0.333737,-157.975505,-87.065716,147.801677
01477,255319,7.567332,-1.244140,-1.902682,0.414813,0.154775,-0.076566,-0.798083,0.280227,-0.336287,-157.906844,-87.164736,147.970701
01478,255419,8.291359,-1.175956,-1.924796,0.391917,0.136292,-0.017823,-0.801050,0.276859,-0.337965,-157.289799,-87.241115,147.577546
01479,255519,9.077574,-1.025831,-1.812911,0.343906,0.101003,0.051032,-0.800040,0.274400,-0.339091,-156.075799,-87.282932,146.559237
01480,255619,10.044065,-0.850208,-1.574362,0.284367,0.075055,0.114050,-0.798040,0.272898,-0.339666,-154.302567,-87.294768,144.946944
01481,255719,11.000609,-0.681217,-1.333573,0.228592,0.067766,0.164492,-0.798528,0.273428,-0.340141,-152.046860,-87.287106,142.819647
01482,255819,11.691229,-0.551300,-1.223367,0.171939,0.062787,0.203827,-0.797505,0.272986,-0.341666,-149.461374,-87.261670,140.329673
01483,255919,12.029664,-0.443446,-1.283840,0.107556,0.034515,0.221166,-0.797003,0.275470,-0.341538,-146.974329,-87.211982,137.901244
01484,256019,11.867541,-0.345576,-1.294468,0.025481,-0.015566,0.223430,-0.798473,0.278531,-0.342386,-144.934938,-87.133182,135.873798
01485,256119,11.305923,-0.183003,-1.135856,-0.058692,-0.056140,0.207361,-0.798027,0.275413,-0.340039,-143.466818,-87.037875,134.369916
01486,256219,10.683013,-0.058351,-0.899881,-0.112007,-0.093297,0.173055,-0.797991,0.279970,-0.341310,-142.656660,-86.935863,133.494181
01487,256319,10.152785,0.048529,-0.580822,-0.115017,-0.107291,0.128899,-0.797501,0.280436,-0.340785,-142.353407,-86.842455,133.124287
01488,256419,9.674298,0.107004,-0.389845,-0.100006,-0.107252,0.083680,-0.798487,0.280974,-0.341259,-142.422337,-86.764850,133.135737
01489,256519,9.226047,0.112245,-0.244841,-0.059692,-0.116448,0.036117,-0.799023,0.280885,-0.339260,-142.897048,-86.699600,133.576763
01490,256619,8.859251,-0.052382,-0.102388,0.000943,-0.129575,-0.009803,-0.798505,0.281424,-0.340234,-143.755967,-86.643759,134.437471
01491,256719,8.615831,-0.233137,-0.036838,0.055453,-0.153200,-0.044494,-0.801048,0.283312,-0.337135,-144.958679,-86.587622,135.673907
01492,256819,8.495742,-0.438972,0.066446,0.115692,-0.157728,-0.066771,-0.799550,0.280323,-0.337786,-146.285774,-86.534966,137.069597
01493,256919,8.510973,-0.583258,0.064065,0.174204,-0.132956,-0.074891,-0.799604,0.280677,-0.334762,-147.477687,-86.494923,138.363511
01494,257019,8.617234,-0.654285,-0.018586,0.202514,-0.103846,-0.074971,-0.797596,0.279198,-0.335837,-148.484659,-86.467552,139.488433
01495,257119,8.757347,-0.632115,-0.039219,0.209771,-0.083503,-0.068918,-0.801566,0.277317,-0.336940,-149.327026,-86.447267,140.452632
01496,257219,8.863751,-0.554295,-0.010726,0.182735,-0.079978,-0.056354,-0.801651,0.276602,-0.332467,-150.057977,-86.424287,141.289701
01497,257319,8.999890,-0.529482,0.029357,0.137313,-0.087260,-0.037482,-0.802135,0.274167,-0.333594,-150.686855,-86.391732,141.998447
01498,257419,9.146301,-0.531853,0.097669,0.085015,-0.094211,-0.017422,-0.802600,0.271780,-0.335720,-151.204963,-86.349687,142.566206
01499,257519,9.270693,-0.557542,0.066124,0.032211,-0.101879,-0.000649,-0.801152,0.271636,-0.333221,-151.641658,-86.298906,143.022097
01500,257619,9.285686,-0.560481,-0.043421,0.003687,-0.100978,0.017068,-0.804587,0.274801,-0.335568,-151.941859,-86.243608,143.324855
01501,257719,9.244711,-0.582704,-0.043679,-0.012509,-0.097101,0.029774,-0.801148,0.274127,-0.333094,-152.130010,-86.186787,143.506039
01502,257819,9.130526,-0.681112,-0.027934,-0.024389,-0.083246,0.035409,-0.804126,0.269738,-0.334323,-152.222187,-86.135463,143.584223
01503,257919,9.081653,-0.700065,0.029462,-0.039082,-0.080105,0.031682,-0.803133,0.272688,-0.333670,-152.335504,-86.086729,143.675164
01504,258019,9.076164,-0.876614,0.123930,-0.036337,-0.084748,0.026351,-0.805154,0.272648,-0.332171,-152.501085,-86.037052,143.820078
01505,258119,9.167780,-0.977260,0.203785,-0.027687,-0.094385,0.020974,-0.806172,0.270622,-0.331274,-152.732419,-85.983870,144.035886
01506,258219,9.288929,-1.041088,0.344001,-0.008048,-0.089355,0.014010,-0.806690,0.270084,-0.330300,-152.977634,-85.935032,144.276905
01507,258319,9.463755,-1.005537,0.446018,0.007431,-0.071788,0.006418,-0.808654,0.270686,-0.331774,-153.198491,-85.897096,144.502413
01508,258419,9.614921,-0.900326,0.459446,0.027648,-0.044713,-0.003683,-0.807149,0.271184,-0.332248,-153.378614,-85.875592,144.698706
01509,258519,9.745260,-0.823954,0.342522,0.038304,-0.026400,-0.012532,-0.809604,0.270324,-0.334299,-153.548343,-85.865725,144.890708
01510,258619,9.791935,-0.839388,0.211261,0.047935,-0.007797,-0.023688,-0.808660,0.267198,-0.331952,-153.725218,-85.868226,145.095409
01511,258719,9.751368,-0.912248,0.129313,0.063800,0.009206,-0.036584,-0.810106,0.268339,-0.334401,-153.925381,-85.882700,145.332573
01512,258819,9.745592,-1.003201,0.015842,0.082549,0.031724,-0.051464,-0.808689,0.266129,-0.330504,-154.144383,-85.912454,145.599393
01513,258919,9.685458,-1.041747,-0.124131,0.096305,0.040376,-0.063883,-0.810586,0.267897,-0.335426,-154.418838,-85.949685,145.929701
01514,259019,9.603617,-1.013318,-0.235282,0.085094,0.019075,-0.070180,-0.809576,0.264940,-0.336578,-154.825319,-85.977298,146.385914
01515,259119,9.508121,-0.976410,-0.218465,0.066527,-0.013672,-0.076076,-0.809597,0.263895,-0.335629,-155.403618,-85.989037,147.003697
01516,259219,9.458342,-0.972119,-0.144888,0.067158,-0.044637,-0.083018,-0.815069,0.262511,-0.336207,-156.139072,-85.985738,147.779385
01517,259319,9.515769,-1.029561,-0.067015,0.097378,-0.063467,-0.095429,-0.812564,0.260527,-0.337307,-157.008406,-85.974615,148.706651
01518,259419,9.699379,-1.196451,-0.049343,0.154783,-0.061716,-0.103623,-0.813569,0.260519,-0.336808,-157.895375,-85.965232,149.684586
01519,259519,10.005279,-1.316226,-0.080751,0.215817,-0.041075,-0.111106,-0.817026,0.256685,-0.339011,-158.738165,-85.967394,150.653299
01520,259619,10.372102,-1.430006,-0.004935,0.258772,0.001927,-0.111393,-0.816488,0.258268,-0.340934,-159.436086,-85.991723,151.501448
01521,259719,10.659066,-1.410366,0.156431,0.270684,0.053651,-0.105690,-0.816038,0.252185,-0.339239,-159.946177,-86.042102,152.168123
01522,259819,10.927858,-1.170090,0.422718,0.258594,0.102825,-0.101865,-0.816512,0.249774,-0.340866,-160.308876,-86.117912,152.680071
01523,259919,11.248151,-0.799481,0.729570,0.218394,0.156130,-0.101200,-0.818955,0.250930,-0.343315,-160.553842,-86.222239,153.050887
01524,260019,11.620363,-0.436775,1.007002,0.165079,0.224115,-0.102690,-0.819470,0.246430,-0.343044,-160.658879,-86.363583,153.250817
01525,260119,11.871495,-0.057486,1.056730,0.104604,0.300563,-0.111323,-0.818397,0.248101,-0.346966,-160.650511,-86.547960,153.302370
01526,260219,11.974048,0.240780,0.954035,0.059501,0.374311,-0.127748,-0.818300,0.245377,-0.352616,-160.580739,-86.775396,153.266514
01527,260319,12.053519,0.310092,0.694920,0.045136,0.448646,-0.146176,-0.820670,0.245231,-0.359140,-160.429305,-87.046562,153.140640
01528,260419,12.307650,0.276782,0.237558,0.057168,0.529259,-0.163681,-0.818187,0.240708,-0.359368,-160.108990,-87.364602,152.852613
01529,260519,12.808567,0.133695,-0.542487,0.068739,0.592439,-0.171271,-0.819536,0.239124,-0.367467,-159.486010,-87.717996,152.268355
01530,260619,12.957035,-0.183255,-1.574652,0.066696,0.564626,-0.159790,-0.820441,0.238384,-0.372516,-158.634146,-88.053760,151.454024
01531,260719,12.284053,-0.495952,-2.519893,0.051850,0.431908,-0.134883,-0.817852,0.236118,-0.378140,-157.987717,-88.313067,150.836866
01532,260819,10.960352,-0.590309,-3.057228,0.032331,0.237732,-0.109302,-0.818316,0.239686,-0.379462,-158.233487,-88.463477,151.101137
01533,260919,9.759126,-0.321876,-3.143338,-0.017202,0.031897,-0.082545,-0.817343,0.237629,-0.378563,-159.665935,-88.498066,152.524104
01534,261019,8.817354,-0.016941,-2.888539,-0.077422,-0.151548,-0.072118,-0.820320,0.238697,-0.379013,-162.232037,-88.429883,155.046628
01535,261119,7.993164,0.423993,-2.401947,-0.099536,-0.315178,-0.086975,-0.820867,0.237090,-0.376591,-165.694247,-88.270342,158.453092
01536,261219,7.538013,0.891134,-1.705380,-0.096650,-0.412014,-0.111934,-0.825405,0.237514,-0.373568,-169.305188,-88.053892,162.010351
01537,261319,7.685727,1.300567,-0.837718,-0.085943,-0.400264,-0.143472,-0.825969,0.237354,-0.370069,-172.636362,-87.840417,165.294249
01538,261419,8.223883,1.575640,-0.196213,-0.089205,-0.278808,-0.166293,-0.828041,0.234204,-0.366224,-175.552116,-87.691470,168.160926
01539,261519,8.790222,1.616511,-0.071092,-0.113090,-0.112437,-0.175342,-0.828508,0.235778,-0.367647,-178.175690,-87.632810,170.721684
01540,261619,9.258504,1.488034,-0.324589,-0.140509,0.079854,-0.168657,-0.828500,0.230346,-0.368926,179.377426,-87.679743,173.089882
01541,261719,9.496616,1.372977,-0.934169,-0.169332,0.244548,-0.153070,-0.827487,0.229382,-0.369977,176.916048,-87.817079,175.455898
01542,261819,9.646211,1.045379,-1.627211,-0.199543,0.331138,-0.124368,-0.827947,0.229985,-0.371950,174.441587,-88.000942,177.817427
01543,261919,9.781540,0.483853,-2.132771,-0.217513,0.322891,-0.088488,-0.826391,0.228137,-0.375550,172.134051,-88.178667,-179.998623
01544,262019,10.126461,-0.062064,-2.239316,-0.212495,0.256166,-0.040932,-0.825357,0.228217,-0.377549,170.502755,-88.319997,-178.488541
01545,262119,10.511198,-0.590026,-2.055781,-0.209013,0.158541,0.009333,-0.827309,0.230338,-0.379447,170.002590,-88.410104,-178.108139
01546,262219,10.592492,-0.897635,-1.863642,-0.207749,0.027579,0.059531,-0.825804,0.230836,-0.379921,170.983799,-88.430937,-179.208953
01547,262319,10.539678,-0.707999,-1.640149,-0.208232,-0.101567,0.099681,-0.826852,0.233199,-0.376796,173.161908,-88.380741,178.492590
01548,262419,10.332279,-0.421679,-1.254288,-0.183430,-0.177351,0.130142,-0.824386,0.234582,-0.375219,175.918309,-88.286215,175.629734
01549,262519,10.021068,0.059087,-1.006539,-0.133523,-0.200822,0.125601,-0.828878,0.235127,-0.374696,178.333275,-88.174438,173.136929
01550,262619,9.628419,0.515034,-0.626365,-0.080834,-0.206731,0.089959,-0.825943,0.236430,-0.371619,179.887507,-88.056359,171.535364
01551,262719,9.285364,0.759912,-0.340757,-0.031762,-0.206924,0.048004,-0.828459,0.237393,-0.370070,-179.381000,-87.937259,170.785056
01552,262819,8.979346,0.880461,-0.230854,-0.028247,-0.219020,0.014266,-0.829998,0.238293,-0.367521,-179.239410,-87.811273,170.627009
01553,262919,8.705501,0.853558,-0.186196,-0.041117,-0.230447,-0.010690,-0.830044,0.238671,-0.364996,-179.477612,-87.678914,170.841648
01554,263019,8.548162,0.819915,-0.190668,-0.065462,-0.248335,-0.023408,-0.830580,0.238583,-0.362997,-179.876575,-87.536310,171.203243
01555,263119,8.376126,0.707004,-0.188651,-0.068877,-0.243097,-0.032315,-0.832146,0.234452,-0.359702,179.650897,-87.396597,171.636549
01556,263219,8.300005,0.578665,-0.198066,-0.081291,-0.220663,-0.040755,-0.831658,0.233922,-0.359228,179.112022,-87.269530,172.129194
01557,263319,8.368619,0.378160,-0.275078,-0.091269,-0.194345,-0.040188,-0.832687,0.236332,-0.357102,178.612390,-87.157350,172.576872
01558,263419,8.621608,0.168839,-0.320046,-0.109552,-0.172160,-0.033682,-0.833686,0.234854,-0.357178,178.202905,-87.057818,172.923838
01559,263519,8.765063,-0.005926,-0.334015,-0.128598,-0.146300,-0.018246,-0.832252,0.232194,-0.354306,177.964062,-86.973301,173.089032
01560,263619,8.739296,-0.000947,-0.449204,-0.141570,-0.145653,0.003378,-0.833252,0.235175,-0.353654,177.956448,-86.889578,173.015233
01561,263719,8.630213,0.133756,-0.599245,-0.153459,-0.172649,0.022092,-0.834758,0.234179,-0.353206,178.141088,-86.790751,172.742056
01562,263819,8.563965,0.444944,-0.686026,-0.160100,-0.220461,0.036349,-0.832854,0.230941,-0.348859,178.461542,-86.664709,172.329000
01563,263919,8.639482,0.710837,-0.683328,-0.153343,-0.264362,0.044328,-0.834880,0.233367,-0.346734,178.842127,-86.513477,171.859519
01564,264019,8.808222,0.788872,-0.593000,-0.140867,-0.290717,0.043752,-0.834880,0.233367,-0.346734,179.191703,-86.346964,171.428181
01565,264119,9.039143,0.758928,-0.425499,-0.109382,-0.291915,0.038684,-0.835927,0.230772,-0.344362,179.480879,-86.179593,171.075362
01566,264219,9.245199,0.619869,-0.236574,-0.083181,-0.274116,0.033556,-0.837955,0.231703,-0.342313,179.714537,-86.022318,170.793164
01567,264319,9.346966,0.513580,-0.123746,-0.065643,-0.239446,0.025626,-0.834482,0.229133,-0.341938,179.874695,-85.884854,170.594665
01568,264419,9.329920,0.436137,-0.068240,-0.044760,-0.213909,0.018607,-0.840007,0.229597,-0.339416,179.980619,-85.762016,170.462503
01569,264519,9.286358,0.455276,-0.097474,-0.032823,-0.201405,0.012558,-0.836048,0.230458,-0.337864,-179.959095,-85.646362,170.382940
01570,264619,9.245189,0.539896,-0.201404,-0.031174,-0.190336,0.012187,-0.838063,0.227951,-0.336993,-179.904426,-85.537070,170.309940
01571,264719,9.226876,0.624182,-0.298053,-0.035792,-0.178006,0.012716,-0.837094,0.228859,-0.335442,-179.851790,-85.434860,170.236306
01572,264819,9.333926,0.774090,-0.386678,-0.037671,-0.172709,0.020222,-0.838597,0.228859,-0.334943,-179.750637,-85.335682,170.112899
01573,264919,9.465567,0.811114,-0.474440,-0.036157,-0.163641,0.028063,-0.840659,0.226231,-0.331572,-179.599452,-85.241669,169.940133
01574,265019,9.545206,0.779158,-0.511285,-0.032959,-0.154600,0.034461,-0.839168,0.229671,-0.330894,-179.409387,-85.152779,169.730158
01575,265119,9.523394,0.600876,-0.419911,-0.023467,-0.149864,0.038783,-0.839641,0.228256,-0.332469,-179.192385,-85.066531,169.498571
01576,265219,9.441996,0.427898,-0.192437,-0.006982,-0.150250,0.043893,-0.839665,0.230177,-0.330868,-178.940703,-84.979968,169.241617
01577,265319,9.495024,0.204981,0.128708,0.020215,-0.140214,0.046341,-0.839181,0.227654,-0.330495,-178.665118,-84.899074,168.976273
01578,265419,9.636601,-0.079689,0.399588,0.059798,-0.100093,0.053659,-0.843142,0.230754,-0.331344,-178.321837,-84.840992,168.665701
01579,265519,9.728958,-0.260185,0.487645,0.090473,-0.054564,0.069471,-0.839681,0.226665,-0.330546,-177.858478,-84.808559,168.252184
01580,265619,9.744966,-0.363122,0.393824,0.097791,-0.008674,0.095421,-0.843188,0.230633,-0.328845,-177.219915,-84.801465,167.666940
01581,265719,9.613693,-0.268140,0.167071,0.080107,0.032367,0.124199,-0.841672,0.227195,-0.330521,-176.396292,-84.816311,166.885707
01582,265819,9.510415,-0.003479,0.023892,0.047085,0.069240,0.146593,-0.840140,0.227766,-0.332495,-175.427217,-84.850256,165.939460
01583,265919,9.485660,0.369867,-0.072442,0.020628,0.107428,0.161540,-0.840054,0.228979,-0.336942,-174.341898,-84.903742,164.861344
01584,266019,9.552801,0.733371,-0.134876,0.014288,0.127958,0.161747,-0.842564,0.228472,-0.335969,-173.221092,-84.967088,163.744047
01585,266119,9.799797,0.959931,-0.086299,0.039276,0.139203,0.145158,-0.841558,0.228978,-0.336443,-172.156575,-85.036190,162.697728
01586,266219,10.226510,0.967060,0.076259,0.079947,0.162185,0.125662,-0.842031,0.227564,-0.338019,-171.145035,-85.118338,161.728081
01587,266319,10.676198,0.830705,0.249393,0.130904,0.191249,0.108140,-0.839464,0.228714,-0.341965,-170.154993,-85.217152,160.809432
01588,266419,11.141076,0.537798,0.428516,0.172257,0.232542,0.097809,-0.841380,0.229934,-0.345914,-169.118032,-85.338997,159.867623
01589,266519,11.774860,0.132323,0.513582,0.201604,0.310667,0.100291,-0.837864,0.230449,-0.347387,-167.875940,-85.502939,158.737085
01590,266619,12.436179,-0.241257,0.380771,0.219544,0.410554,0.111199,-0.837768,0.227227,-0.353063,-166.275581,-85.719053,157.257838
01591,266719,12.804862,-0.361574,-0.103406,0.220292,0.451855,0.124602,-0.835193,0.227902,-0.357534,-164.318711,-85.952540,155.422007
01592,266819,13.131348,-0.280087,-0.295168,0.186668,0.421707,0.140861,-0.837128,0.229074,-0.360483,-162.098633,-86.161820,153.303541
01593,266919,13.633786,0.063367,-0.288082,0.115637,0.410937,0.151017,-0.835540,0.229292,-0.365481,-159.622252,-86.357259,150.887946
01594,267019,14.150658,0.337013,-0.475657,0.048559,0.454108,0.156148,-0.835446,0.230031,-0.370453,-156.707480,-86.566993,147.995162
01595,267119,14.320617,0.669673,-1.318066,-0.008122,0.429403,0.145587,-0.830885,0.232145,-0.374349,-153.666432,-86.756857,144.943957
01596,267219,13.965557,0.862725,-2.103173,-0.066789,0.331635,0.129301,-0.831833,0.233278,-0.376797,-150.955039,-86.892234,142.189731
01597,267319,12.985958,0.781711,-2.516956,-0.104915,0.210413,0.112837,-0.831764,0.235440,-0.380194,-148.872075,-86.965654,140.043225
01598,267419,12.024045,0.500257,-2.675317,-0.122798,0.071843,0.084538,-0.828239,0.235979,-0.382167,-147.782545,-86.976716,138.881358
01599,267519,11.252801,0.136517,-2.660782,-0.116628,-0.040535,0.053639,-0.832728,0.238019,-0.381567,-147.622806,-86.942051,138.654115
01600,267619,10.444043,-0.180117,-2.450546,-0.106431,-0.123192,0.036286,-0.831296,0.239321,-0.377992,-148.082743,-86.872516,139.053286
01601,267719,9.653812,-0.430454,-2.109140,-0.073113,-0.176136,0.020404,-0.831734,0.241965,-0.380864,-148.925765,-86.781542,139.855277
01602,267819,8.713861,-0.552468,-1.859254,-0.033755,-0.216720,-0.000253,-0.832297,0.242302,-0.377340,-150.079556,-86.675695,140.991206
01603,267919,7.874495,-0.613363,-1.478514,0.023369,-0.258618,-0.029902,-0.832832,0.242214,-0.375341,-151.569961,-86.555631,142.497253
01604,268019,7.353062,-0.694177,-0.994696,0.120266,-0.242276,-0.073968,-0.837325,0.241763,-0.374868,-153.197880,-86.453145,144.196869
01605,268119,7.082023,-0.761539,-0.841517,0.233800,-0.158558,-0.126135,-0.832859,0.237681,-0.374570,-154.771085,-86.403987,145.906982
01606,268219,7.045430,-1.015934,-0.901674,0.350465,-0.053004,-0.161539,-0.832848,0.238204,-0.375044,-156.140940,-86.415504,147.480362
01607,268319,7.296889,-1.303603,-1.042999,0.443638,0.067933,-0.168977,-0.831863,0.232209,-0.375349,-157.098714,-86.490250,148.694296
01608,268419,7.798850,-1.538722,-1.263888,0.482354,0.191625,-0.148264,-0.833807,0.227901,-0.378577,-157.447222,-86.624833,149.319963
01609,268519,8.468232,-1.668440,-1.448449,0.460067,0.288820,-0.118613,-0.833746,0.226077,-0.382177,-157.192143,-86.804122,149.328175
01610,268619,9.196029,-1.578399,-1.458955,0.400102,0.343864,-0.077870,-0.835180,0.223280,-0.385828,-156.311431,-87.003082,148.675448
01611,268719,9.837962,-1.193081,-1.366024,0.328989,0.375738,-0.017212,-0.831146,0.219874,-0.389004,-154.560988,-87.203281,147.111212
01612,268819,10.404314,-0.612133,-1.320817,0.256753,0.396895,0.057445,-0.831093,0.218025,-0.392104,-151.643657,-87.391530,144.337621
01613,268919,10.810188,-0.003759,-1.196275,0.179570,0.408908,0.118473,-0.830538,0.219158,-0.395052,-147.556662,-87.559694,140.349360
01614,269019,11.142220,0.645879,-1.076719,0.084611,0.401889,0.150769,-0.824986,0.218267,-0.399100,-142.649420,-87.699706,135.486148
01615,269119,11.156190,1.236407,-1.036080,-0.015793,0.369271,0.154460,-0.828427,0.217945,-0.401625,-137.507294,-87.805887,130.330708
01616,269219,10.754838,1.435052,-1.032029,-0.124676,0.298852,0.131621,-0.826896,0.222478,-0.402895,-133.003516,-87.875248,125.751926
01617,269319,10.138560,1.249769,-0.881848,-0.220583,0.224094,0.094937,-0.828852,0.222605,-0.404895,-129.568601,-87.920047,122.187893
01618,269419,9.628803,0.817265,-0.568545,-0.267133,0.174020,0.052558,-0.825810,0.221208,-0.407969,-127.074233,-87.959315,119.538415
01619,269519,9.261134,0.322574,-0.261670,-0.268445,0.148843,0.011723,-0.824355,0.219593,-0.406046,-125.207255,-88.005344,117.516029
01620,269619,8.930630,-0.121005,-0.014131,-0.243617,0.141653,-0.028564,-0.825777,0.223771,-0.409342,-123.712334,-88.065980,115.880218
01621,269719,8.701726,-0.506423,0.153890,-0.208585,0.140467,-0.068032,-0.825784,0.225242,-0.408766,-122.484001,-88.143836,114.531297
01622,269819,8.532247,-0.754853,0.222710,-0.147975,0.147769,-0.097077,-0.828230,0.224405,-0.411317,-121.269336,-88.237050,113.230865
01623,269919,8.455398,-0.867891,0.136782,-0.094069,0.164379,-0.119924,-0.824730,0.221409,-0.412467,-119.821747,-88.345371,111.728386
01624,270019,8.348631,-1.027651,-0.072710,-0.047949,0.180464,-0.139890,-0.824213,0.221449,-0.413467,-118.038072,-88.466816,109.916223
01625,270119,8.135623,-1.083423,-0.253539,-0.014608,0.163911,-0.142086,-0.823251,0.217873,-0.412145,-116.293908,-88.583383,108.162805
01626,270219,8.017159,-1.026760,-0.293152,-0.015994,0.117345,-0.127187,-0.821759,0.216355,-0.412220,-115.141971,-88.679437,107.001078
01627,270319,8.022238,-0.939602,-0.231023,-0.035455,0.057477,-0.103719,-0.824680,0.218066,-0.415644,-115.007909,-88.748402,106.846376
01628,270419,8.134290,-0.833529,-0.035043,-0.061630,0.011712,-0.074342,-0.824217,0.214000,-0.414348,-115.663206,-88.790908,107.466224
01629,270519,8.357839,-0.736596,0.145306,-0.086245,-0.027438,-0.042682,-0.822707,0.217488,-0.414669,-116.955909,-88.806951,108.709511
01630,270619,8.547557,-0.677321,0.271921,-0.094846,-0.061408,-0.012443,-0.822222,0.214964,-0.414296,-118.711440,-88.797864,110.410803
01631,270719,8.638791,-0.619972,0.383527,-0.094900,-0.094452,0.001842,-0.825183,0.215084,-0.415797,-121.005220,-88.770986,112.650448
01632,270819,8.640484,-0.576399,0.427804,-0.088594,-0.130058,0.007269,-0.824262,0.214876,-0.411798,-123.885594,-88.728407,115.480474
01633,270919,8.632836,-0.664577,0.466753,-0.074043,-0.157099,0.008183,-0.828722,0.216988,-0.412697,-127.088143,-88.673177,118.641154
01634,271019,8.736648,-0.704803,0.535074,-0.056895,-0.166185,0.001718,-0.827809,0.212295,-0.408927,-130.279239,-88.613672,121.800285
01635,271119,8.787017,-0.783996,0.641710,-0.048465,-0.156293,-0.000210,-0.829772,0.212897,-0.410402,-133.059562,-88.554954,124.553434
01636,271219,8.765146,-0.875963,0.732538,-0.049235,-0.141077,-0.007105,-0.828792,0.214328,-0.409326,-135.490576,-88.502130,126.956791
01637,271319,8.716335,-0.887014,0.737129,-0.053968,-0.133220,-0.012901,-0.829346,0.214191,-0.406327,-137.731945,-88.452398,129.167787
01638,271419,8.747216,-0.843430,0.706301,-0.045716,-0.134661,-0.022645,-0.829868,0.211162,-0.405480,-139.996634,-88.403459,131.406900
01639,271519,8.931520,-0.774032,0.628033,-0.038474,-0.145172,-0.026624,-0.830879,0.213123,-0.404379,-142.308676,-88.348859,133.697598
01640,271619,9.102335,-0.737124,0.580462,-0.022872,-0.148183,-0.030046,-0.832424,0.211033,-0.401982,-144.546435,-88.291526,135.922997
01641,271719,9.326627,-0.674682,0.602379,-0.008438,-0.159757,-0.038794,-0.832502,0.208847,-0.398085,-146.879697,-88.229002,138.252290
01642,271819,9.524663,-0.627359,0.618290,0.020283,-0.161197,-0.047444,-0.836468,0.208959,-0.399086,-149.178743,-88.165625,140.563899
01643,271919,9.699650,-0.638096,0.705070,0.050003,-0.157542,-0.060397,-0.834949,0.207014,-0.400687,-151.468577,-88.104917,142.883413
01644,272019,9.854563,-0.654371,0.803578,0.078289,-0.147488,-0.071451,-0.838983,0.205961,-0.398240,-153.685896,-88.049362,145.146672
01645,272119,10.031880,-0.669282,0.819936,0.100842,-0.125193,-0.084423,-0.837982,0.203478,-0.398866,-155.805987,-88.005746,147.325647
01646,272219,10.197352,-0.623316,0.807196,0.114892,-0.096495,-0.097365,-0.839526,0.201388,-0.396469,-157.840863,-87.977525,149.427461
01647,272319,10.363781,-0.598111,0.754191,0.121293,-0.072121,-0.103142,-0.840544,0.199363,-0.395572,-159.763430,-87.961044,151.420601
01648,272419,10.403911,-0.597699,0.700476,0.117832,-0.061436,-0.105799,-0.840070,0.196317,-0.394724,-161.639745,-87.948558,153.365498
01649,272519,10.369195,-0.669918,0.673421,0.124834,-0.069713,-0.109190,-0.843545,0.197892,-0.395149,-163.574300,-87.929868,155.372711
01650,272619,10.347917,-0.740418,0.801765,0.150127,-0.074641,-0.112012,-0.845051,0.196397,-0.394726,-165.517677,-87.906505,157.403288
01651,272719,10.482007,-0.824967,0.941276,0.185886,-0.057258,-0.115834,-0.845573,0.193865,-0.393854,-167.392316,-87.890953,159.385614
01652,272819,10.805896,-0.879641,1.019206,0.213257,-0.010243,-0.119634,-0.842092,0.190322,-0.394030,-169.141149,-87.899996,161.257754
01653,272919,11.211184,-0.846004,1.061029,0.217797,0.039833,-0.125957,-0.847010,0.189574,-0.397581,-170.873961,-87.935902,163.116447
01654,273019,11.605848,-0.747205,1.271503,0.205987,0.076588,-0.135653,-0.848546,0.187010,-0.395709,-172.755135,-87.991380,165.116777
01655,273119,12.066731,-0.573390,1.622559,0.191948,0.103405,-0.153576,-0.848011,0.186600,-0.397734,-175.012116,-88.060735,167.485015
01656,273219,12.552945,-0.330349,2.109074,0.161223,0.149670,-0.174653,-0.849492,0.184180,-0.398861,-177.792018,-88.153796,170.358735
