PacketCounter,SampleTimeFine,Acc_X,Acc_Y,Acc_Z,Gyr_X,Gyr_Y,Gyr_Z,Mag_X,Mag_Y,Mag_Z,Roll,Pitch,Yaw
00431,97519,0.359962,-0.222709,9.816729,0.002130,0.001675,0.002862,-0.501453,0.466644,-0.456220,-1.292902,-2.062100,0.000000
00432,97619,0.329404,-0.238335,9.809213,0.001751,0.001559,0.001653,-0.503392,0.465326,-0.459296,-1.288743,-2.060209,-0.000725
00433,97719,0.339686,-0.264446,9.808371,0.001732,0.000755,0.000026,-0.502934,0.469183,-0.456593,-1.287684,-2.059733,-0.001245
00434,97819,0.325992,-0.233917,9.844307,0.000935,0.001598,0.001892,-0.505526,0.469456,-0.451071,-1.289561,-2.062162,-0.002699
00435,97919,0.350808,-0.238948,9.818304,0.000574,0.000090,0.001892,-0.505554,0.469383,-0.449571,-1.292217,-2.066000,-0.004061
00436,98019,0.333136,-0.232262,9.835325,0.000891,0.001778,0.001829,-0.501477,0.469063,-0.454593,-1.292448,-2.064895,-0.002027
00437,98119,0.351131,-0.226097,9.823429,0.000919,0.002270,0.001445,-0.499444,0.465664,-0.457270,-1.289892,-2.061395,0.001104
00438,98219,0.325449,-0.250260,9.829491,0.003215,0.000801,0.000901,-0.504905,0.465800,-0.458271,-1.285638,-2.061119,-0.001344
00439,98319,0.337507,-0.239336,9.833083,0.001129,0.001295,0.000524,-0.504485,0.468564,-0.453620,-1.285889,-2.062191,-0.002879
00440,98419,0.347959,-0.225623,9.822849,0.000417,0.001675,0.002214,-0.505576,0.472799,-0.447894,-1.290977,-2.065819,-0.003509
00441,98519,0.357449,-0.237528,9.813590,0.000741,0.000071,0.002327,-0.500563,0.469328,-0.450070,-1.293329,-2.066947,0.000080
00442,98619,0.341898,-0.226851,9.836269,0.002215,0.002150,0.001858,-0.501496,0.468517,-0.453619,-1.292926,-2.066005,0.002086
00443,98719,0.353292,-0.235785,9.814980,0.001343,0.000654,0.000506,-0.501401,0.464796,-0.459320,-1.288866,-2.063647,0.002437
00444,98819,0.345342,-0.209977,9.810186,0.001108,-0.000117,0.001351,-0.501905,0.466773,-0.458719,-1.286185,-2.062275,0.003105
00445,98919,0.348970,-0.236081,9.811235,0.001181,0.002934,0.001885,-0.506390,0.470805,-0.458018,-1.285651,-2.061721,0.000639
00446,99019,0.342947,-0.249456,9.835931,-0.000033,0.001292,0.001842,-0.504019,0.471449,-0.451468,-1.288798,-2.063421,0.000860
00447,99119,0.337396,-0.248436,9.826960,0.000828,0.000240,0.001788,-0.503587,0.470774,-0.447995,-1.292520,-2.066764,0.001653
00448,99219,0.340124,-0.246540,9.816825,0.000326,-0.000665,0.000612,-0.503023,0.465977,-0.452248,-1.292503,-2.068624,0.001361
00449,99319,0.336870,-0.227184,9.815692,0.001235,0.002231,0.001041,-0.499439,0.468155,-0.457143,-1.291074,-2.065357,0.004406
00450,99419,0.348317,-0.249066,9.843499,0.000729,-0.000025,0.001507,-0.502421,0.466732,-0.457720,-1.289031,-2.064564,0.004730
00451,99519,0.345436,-0.241933,9.829392,0.001130,0.000579,0.003261,-0.506963,0.470621,-0.454019,-1.290037,-2.067031,0.002942
00452,99619,0.360346,-0.218951,9.814979,0.000555,0.000565,0.001371,-0.505524,0.470452,-0.451020,-1.292445,-2.069930,0.001506
00453,99719,0.344986,-0.241429,9.817306,0.001587,0.000958,0.000625,-0.505055,0.469874,-0.449546,-1.294553,-2.072889,0.000092
00454,99819,0.347013,-0.229707,9.838917,0.002439,-0.000432,0.001959,-0.503500,0.467528,-0.453171,-1.293682,-2.074483,0.000317
00455,99919,0.352233,-0.243445,9.832202,0.002114,0.000914,0.002405,-0.500956,0.466138,-0.456245,-1.291191,-2.072954,0.002656
00456,100019,0.342768,-0.245796,9.836415,0.001707,0.001036,0.002697,-0.500937,0.466684,-0.457219,-1.288827,-2.071026,0.005089
00457,100119,0.351782,-0.210169,9.830334,0.003421,0.002470,0.002461,-0.506476,0.469592,-0.453570,-1.288190,-2.072273,0.003155
00458,100219,0.334427,-0.232045,9.813705,0.001915,0.000265,0.001689,-0.504047,0.471377,-0.449969,-1.290638,-2.075006,0.003426
00459,100319,0.331231,-0.231452,9.827124,0.002933,0.001009,0.001582,-0.504527,0.470935,-0.450994,-1.291864,-2.077131,0.003055
00460,100419,0.335849,-0.211189,9.828187,0.000486,0.000417,0.002455,-0.502965,0.467118,-0.455196,-1.291145,-2.077231,0.003827
00461,100519,0.344160,-0.230315,9.837380,0.001326,0.000882,0.001509,-0.499436,0.464692,-0.457820,-1.287874,-2.074459,0.006657
00462,100619,0.347169,-0.231915,9.835274,0.000942,-0.000089,0.002260,-0.501359,0.467383,-0.461193,-1.284751,-2.071997,0.008179
00463,100719,0.336662,-0.239319,9.819397,0.001624,0.000155,0.001309,-0.503981,0.472044,-0.453442,-1.286261,-2.073524,0.008186
00464,100819,0.324354,-0.234008,9.814511,0.000185,0.002317,0.002035,-0.505520,0.472943,-0.450893,-1.289933,-2.075420,0.007555
00465,100919,0.347217,-0.224598,9.828584,0.000256,-0.000930,0.001650,-0.504055,0.471851,-0.449444,-1.293605,-2.078981,0.007927
00466,101019,0.349624,-0.231000,9.839991,0.000812,0.001474,0.003480,-0.502492,0.468533,-0.453620,-1.293938,-2.078854,0.009912
00467,101119,0.357819,-0.236730,9.840799,0.001177,0.003098,0.001457,-0.501953,0.465656,-0.456271,-1.291766,-2.076575,0.010615
00468,101219,0.344943,-0.221618,9.818199,0.000340,0.001352,0.000429,-0.504859,0.465422,-0.460795,-1.288245,-2.074998,0.007897
00469,101319,0.335680,-0.243538,9.827302,0.002748,0.000227,0.002006,-0.504986,0.467077,-0.453697,-1.286806,-2.076665,0.006775
00470,101419,0.342916,-0.256879,9.831099,0.003697,-0.000521,0.002428,-0.505033,0.471915,-0.450444,-1.288144,-2.080029,0.006661
00471,101519,0.330622,-0.250219,9.815224,0.000938,0.000290,0.001766,-0.505571,0.470332,-0.448521,-1.291052,-2.083777,0.005690
00472,101619,0.339183,-0.230429,9.802968,0.000384,0.000370,0.002478,-0.502004,0.468500,-0.453120,-1.291796,-2.084225,0.007604
00473,101719,0.359293,-0.234025,9.812302,0.000150,0.003340,0.000634,-0.503901,0.464811,-0.458821,-1.288906,-2.081750,0.006047
00474,101819,0.338410,-0.209888,9.821631,-0.002529,0.002666,0.001767,-0.503900,0.465309,-0.458796,-1.287824,-2.079679,0.005178
00475,101919,0.351783,-0.220587,9.840012,-0.001221,0.004403,0.001044,-0.502971,0.469087,-0.454594,-1.289174,-2.077795,0.005305
00476,102019,0.337696,-0.227786,9.829924,0.000766,0.001656,0.001507,-0.504524,0.472927,-0.450893,-1.292358,-2.079515,0.005049
00477,102119,0.336024,-0.247136,9.831394,0.001756,0.002846,0.000250,-0.503557,0.471843,-0.449444,-1.295017,-2.080617,0.004862
00478,102219,0.322300,-0.246961,9.816772,0.002232,0.002369,0.002216,-0.500968,0.464619,-0.455822,-1.292073,-2.078475,0.006929
00479,102319,0.329796,-0.234516,9.828461,0.002372,0.002517,0.003153,-0.499416,0.465737,-0.458769,-1.288502,-2.074610,0.010557
00480,102419,0.348262,-0.231539,9.812872,0.001832,0.001556,0.002982,-0.502397,0.464812,-0.459321,-1.284655,-2.072383,0.011347
00481,102519,0.341515,-0.232868,9.845547,0.001880,0.001093,0.001246,-0.505461,0.469625,-0.454569,-1.284475,-2.073502,0.009636
00482,102619,0.349610,-0.230373,9.839088,0.001598,0.002298,0.001151,-0.506493,0.470540,-0.452520,-1.285563,-2.075079,0.007268
00483,102719,0.332462,-0.238120,9.847699,-0.000927,0.003514,0.000620,-0.505522,0.471449,-0.450969,-1.289009,-2.076092,0.005530
00484,102819,0.352979,-0.217943,9.828248,-0.001307,0.002187,-0.000097,-0.503013,0.466499,-0.452722,-1.290000,-2.076097,0.004929
00485,102919,0.359702,-0.210070,9.806305,0.002254,0.002036,0.001422,-0.502399,0.463815,-0.459371,-1.285501,-2.073599,0.004943
00486,103019,0.337599,-0.245391,9.821804,0.002398,0.002656,0.001826,-0.503392,0.465326,-0.459296,-1.281613,-2.071239,0.004450
00487,103119,0.339612,-0.224316,9.799301,-0.001189,0.000175,0.000631,-0.503966,0.469601,-0.454569,-1.283196,-2.072251,0.003608
00488,103219,0.340423,-0.234105,9.826090,0.001276,0.000353,0.002673,-0.505015,0.471465,-0.451469,-1.285250,-2.074641,0.003468
00489,103319,0.328492,-0.233804,9.830896,-0.000018,0.002265,0.002299,-0.504581,0.471786,-0.447945,-1.289402,-2.076940,0.003709
00490,103419,0.346525,-0.242896,9.836272,0.000584,0.001530,0.000286,-0.504466,0.468612,-0.454620,-1.289487,-2.077303,0.002162
00491,103519,0.338702,-0.228929,9.812705,0.001054,0.001554,0.002342,-0.501891,0.463831,-0.459871,-1.285598,-2.074725,0.003233
00492,103619,0.341566,-0.221517,9.817764,0.000644,0.001011,0.002380,-0.502910,0.466764,-0.458220,-1.283726,-2.073506,0.003748
00493,103719,0.334213,-0.215910,9.801242,0.001779,0.000981,0.001389,-0.504939,0.472654,-0.455416,-1.284492,-2.074201,0.002658
00494,103819,0.339703,-0.240537,9.837061,0.000781,0.002733,0.003290,-0.504575,0.470316,-0.448521,-1.287370,-2.075954,0.003276
00495,103919,0.341721,-0.242811,9.844397,0.000590,0.002450,0.002640,-0.502552,0.471353,-0.449969,-1.290234,-2.076603,0.005094
00496,104019,0.336309,-0.217016,9.824168,-0.000871,0.000014,0.003708,-0.502484,0.468058,-0.454145,-1.291165,-2.077140,0.007122
00497,104119,0.323715,-0.222418,9.797474,0.001308,0.000423,0.001263,-0.501412,0.463775,-0.458871,-1.287485,-2.075396,0.007988
00498,104219,0.328992,-0.241324,9.813354,0.001101,0.001585,0.001561,-0.501385,0.468307,-0.459643,-1.285465,-2.072841,0.009199
00499,104319,0.336775,-0.239616,9.834527,0.000889,-0.001048,0.001071,-0.501496,0.469015,-0.453594,-1.285943,-2.073863,0.010614
00500,104419,0.338392,-0.251893,9.829186,0.000546,-0.000955,0.000489,-0.506499,0.472011,-0.451944,-1.288273,-2.077383,0.008155
00501,104519,0.336806,-0.246627,9.823402,0.002104,-0.000369,0.001809,-0.503566,0.472317,-0.448919,-1.290903,-2.080387,0.008951
00502,104619,0.341777,-0.241252,9.821900,0.002383,-0.000533,0.003747,-0.502464,0.468605,-0.455119,-1.289843,-2.080907,0.010964
00503,104719,0.348493,-0.237117,9.817247,0.001381,0.001681,0.003511,-0.502957,0.466644,-0.455721,-1.288392,-2.080124,0.012238
00504,104819,0.343677,-0.226523,9.830740,0.001763,0.000731,0.002860,-0.502911,0.466266,-0.458245,-1.285719,-2.079054,0.012940
00505,104919,0.338508,-0.225990,9.816738,0.000691,0.000651,0.002066,-0.504445,0.470155,-0.455543,-1.286038,-2.079597,0.012495
00506,105019,0.345953,-0.245184,9.846305,0.002349,0.001509,0.001502,-0.505051,0.471867,-0.449444,-1.288103,-2.081900,0.011841
00507,105119,0.342913,-0.246922,9.831850,0.001183,0.001526,0.001161,-0.503534,0.469424,-0.451070,-1.289351,-2.083023,0.011881
00508,105219,0.346885,-0.238317,9.811467,0.001781,0.002051,0.002231,-0.502510,0.468982,-0.452595,-1.289597,-2.082936,0.013168
00509,105319,0.346330,-0.218011,9.824500,-0.000065,0.001947,0.002086,-0.502407,0.464289,-0.458846,-1.287026,-2.080760,0.013674
00510,105419,0.340515,-0.227755,9.821292,0.000322,0.001170,0.001859,-0.503400,0.466298,-0.458745,-1.285036,-2.079496,0.013394
00511,105519,0.346599,-0.224518,9.825741,0.001965,0.001659,0.003478,-0.505958,0.470131,-0.454544,-1.284966,-2.080332,0.012667
00512,105619,0.351873,-0.247867,9.826338,0.002460,0.001476,0.001547,-0.505531,0.471923,-0.450444,-1.286604,-2.082476,0.011537
00513,105719,0.336139,-0.236087,9.837024,0.001466,-0.002119,0.003498,-0.503547,0.472365,-0.449918,-1.289178,-2.086062,0.013097
00514,105819,0.358810,-0.243373,9.822310,0.002238,-0.000706,0.002305,-0.499498,0.466516,-0.454220,-1.287715,-2.085847,0.016576
00515,105919,0.348107,-0.225972,9.808896,0.001886,0.001104,0.001204,-0.502440,0.466684,-0.456720,-1.285646,-2.084927,0.016868
00516,106019,0.346752,-0.236358,9.838607,0.001988,-0.000355,0.002614,-0.504877,0.465872,-0.459770,-1.282245,-2.084749,0.015869
00517,106119,0.342318,-0.231596,9.813528,0.000756,0.002206,0.002134,-0.504465,0.469110,-0.454594,-1.282449,-2.084674,0.015448
00518,106219,0.330318,-0.233228,9.818334,0.000492,0.000076,0.001029,-0.503044,0.469890,-0.450545,-1.284402,-2.086596,0.015862
00519,106319,0.328313,-0.230027,9.807187,-0.000207,-0.000142,0.001702,-0.502055,0.470847,-0.449994,-1.287282,-2.088449,0.017516
00520,106419,0.346214,-0.243237,9.833769,0.000875,0.001875,0.001859,-0.501047,0.467392,-0.451171,-1.287898,-2.088335,0.019707
00521,106519,0.343091,-0.235338,9.832670,0.001862,-0.000306,0.001713,-0.501894,0.467295,-0.459194,-1.285286,-2.087241,0.020506
00522,106619,0.348893,-0.226200,9.819729,0.000543,0.000152,0.001577,-0.503881,0.465358,-0.459796,-1.282540,-2.086396,0.019545
00523,106719,0.348691,-0.220695,9.841543,0.002521,0.001343,0.001037,-0.503968,0.468604,-0.454620,-1.281517,-2.086612,0.018871
00524,106819,0.341775,-0.250080,9.824975,0.002219,-0.000592,0.002327,-0.503529,0.471915,-0.450943,-1.283065,-2.088974,0.019845
00525,106919,0.321841,-0.248482,9.842186,0.001981,0.001626,0.002808,-0.502558,0.468364,-0.450121,-1.283753,-2.089895,0.021577
00526,107019,0.340992,-0.241250,9.834902,0.001769,0.001285,0.002438,-0.502973,0.468090,-0.454645,-1.282989,-2.089736,0.022398
00527,107119,0.340142,-0.227473,9.809367,0.001067,0.001755,0.001339,-0.502406,0.464787,-0.458821,-1.280103,-2.087754,0.022374
00528,107219,0.332779,-0.225013,9.823066,0.002856,0.001770,0.001545,-0.505397,0.468797,-0.458119,-1.277850,-2.087133,0.020701
00529,107319,0.334143,-0.242518,9.843974,0.000954,-0.001604,0.002129,-0.508412,0.469768,-0.456570,-1.277521,-2.089988,0.017440
00530,107419,0.343938,-0.230490,9.816261,0.003237,-0.000926,0.001661,-0.504553,0.471859,-0.449444,-1.278898,-2.093330,0.017282
00531,107519,0.347311,-0.224236,9.816101,0.000258,0.001158,0.002243,-0.504050,0.469384,-0.450071,-1.280909,-2.095039,0.017648
00532,107619,0.342794,-0.220078,9.822884,0.000240,0.001604,0.003140,-0.502533,0.466443,-0.451722,-1.281393,-2.095382,0.019408
00533,107719,0.331742,-0.227460,9.846148,0.000620,0.001522,0.002244,-0.502423,0.465736,-0.457770,-1.279476,-2.093873,0.020228
00534,107819,0.344765,-0.239513,9.816081,-0.001121,0.000944,0.001603,-0.500899,0.466781,-0.459219,-1.278473,-2.091758,0.021718
00535,107919,0.341757,-0.242774,9.820177,-0.001198,0.002203,0.002795,-0.505480,0.469576,-0.453570,-1.280266,-2.092288,0.021111
00536,108019,0.348189,-0.234771,9.826775,0.000311,0.000513,0.001951,-0.503538,0.472389,-0.450418,-1.283133,-2.094127,0.021830
00537,108119,0.351822,-0.238237,9.816847,0.000869,0.001409,0.002141,-0.502486,0.466564,-0.454221,-1.282484,-2.093820,0.022808
00538,108219,0.365339,-0.248500,9.841952,0.001540,0.000751,0.000331,-0.502960,0.464651,-0.455822,-1.280265,-2.093557,0.022151
00539,108319,0.336858,-0.239314,9.829084,0.002205,0.000524,0.001619,-0.501924,0.466226,-0.457745,-1.277656,-2.092500,0.022932
00540,108419,0.330260,-0.208917,9.821974,0.000902,0.002317,0.003172,-0.503407,0.467769,-0.458169,-1.276223,-2.090816,0.023574
00541,108519,0.339709,-0.234407,9.820025,0.001252,0.001956,0.001103,-0.504482,0.470059,-0.453544,-1.276766,-2.091179,0.022778
00542,108619,0.344985,-0.243571,9.816850,0.000850,-0.000023,0.001566,-0.504027,0.471923,-0.450943,-1.278975,-2.093324,0.022915
00543,108719,0.329941,-0.254537,9.831882,-0.000330,0.000456,0.001842,-0.503062,0.469842,-0.449545,-1.281583,-2.095237,0.023850
00544,108819,0.345693,-0.241296,9.820283,0.002396,0.001822,0.001958,-0.503017,0.464008,-0.452849,-1.279643,-2.095253,0.024189
00545,108919,0.330679,-0.224632,9.827027,0.001710,0.000998,0.000289,-0.502408,0.463791,-0.458872,-1.276149,-2.093734,0.023544
00546,109019,0.349655,-0.235064,9.817673,0.001738,-0.000326,0.001913,-0.502902,0.466290,-0.458745,-1.273575,-2.093208,0.023702
00547,109119,0.347904,-0.224809,9.816543,0.002153,0.000494,0.001483,-0.502004,0.468500,-0.453120,-1.273239,-2.093659,0.024849
00548,109219,0.352172,-0.236585,9.845167,0.001595,0.001815,0.002055,-0.506050,0.470388,-0.449521,-1.274943,-2.095803,0.023861
00549,109319,0.340247,-0.249357,9.840944,0.003556,0.002149,0.001577,-0.503067,0.467351,-0.449672,-1.274472,-2.096668,0.024382
00550,109419,0.339531,-0.236532,9.836601,0.000977,0.002271,0.002191,-0.500446,0.467649,-0.456669,-1.273451,-2.094487,0.026695
00551,109519,0.360485,-0.229636,9.818216,0.000779,0.000487,0.003268,-0.502393,0.467303,-0.459194,-1.271683,-2.093212,0.028007
00552,109619,0.327675,-0.228658,9.821363,0.002968,0.002514,0.003171,-0.501888,0.465824,-0.459770,-1.268024,-2.090439,0.029348
00553,109719,0.359588,-0.233589,9.814962,0.002580,0.003098,0.003162,-0.502494,0.467536,-0.453671,-1.267019,-2.089408,0.030844
00554,109819,0.329563,-0.209963,9.824422,0.000682,0.001596,0.001797,-0.502501,0.473965,-0.452341,-1.269556,-2.089753,0.032565
00555,109919,0.351729,-0.230766,9.837733,0.001510,0.001609,0.001900,-0.503079,0.470791,-0.448495,-1.271730,-2.091377,0.033757
00556,110019,0.346880,-0.240561,9.818626,-0.000735,0.000727,0.001291,-0.501987,0.467054,-0.454196,-1.272234,-2.091384,0.034429
00557,110119,0.349184,-0.229109,9.825906,0.001794,0.000576,-0.000643,-0.501478,0.463109,-0.455398,-1.269621,-2.090921,0.033612
00558,110219,0.360288,-0.262566,9.828983,0.002122,0.000621,0.002517,-0.502913,0.465270,-0.458296,-1.266736,-2.090032,0.033733
00559,110319,0.353012,-0.250358,9.831196,0.002124,0.001813,0.002257,-0.503507,0.468998,-0.452595,-1.266769,-2.090424,0.034307
00560,110419,0.337553,-0.240213,9.816024,0.001470,0.000823,0.000768,-0.504535,0.471409,-0.450469,-1.268544,-2.092389,0.033901
00561,110519,0.339439,-0.223258,9.822747,0.000496,0.001123,0.002145,-0.502566,0.468838,-0.449596,-1.270329,-2.093746,0.035241
00562,110619,0.357089,-0.226926,9.837327,0.000221,0.001937,0.002125,-0.500463,0.468099,-0.455644,-1.270226,-2.092151,0.037468
00563,110719,0.344090,-0.233535,9.823856,-0.000816,0.002492,0.003521,-0.500406,0.464282,-0.459346,-1.268432,-2.089063,0.039488
00564,110819,0.342319,-0.232336,9.817546,0.000413,0.002640,0.003264,-0.502854,0.467407,-0.461193,-1.266397,-2.086193,0.040160
00565,110919,0.352791,-0.242591,9.830651,0.002698,0.000277,0.000744,-0.502481,0.469553,-0.454069,-1.265803,-2.086750,0.040590
00566,111019,0.345881,-0.230681,9.834964,0.003036,0.002201,0.003097,-0.504555,0.470862,-0.449495,-1.266815,-2.088207,0.041515
00567,111119,0.352588,-0.235508,9.837732,0.001687,0.000985,0.002075,-0.506003,0.471007,-0.451994,-1.267870,-2.090074,0.040757
00568,111219,0.342119,-0.222734,9.835988,-0.000693,0.000409,0.002893,-0.502504,0.467014,-0.453196,-1.268689,-2.090741,0.041940
00569,111319,0.361818,-0.218557,9.818456,0.000877,0.001585,0.000137,-0.503941,0.463220,-0.456898,-1.266281,-2.090080,0.039574
00570,111419,0.347646,-0.237276,9.836261,0.000162,0.002581,0.002153,-0.500903,0.464788,-0.459320,-1.264132,-2.087196,0.040576
00571,111519,0.335964,-0.227000,9.849214,-0.000086,0.003175,0.001958,-0.505469,0.470099,-0.454044,-1.265326,-2.087025,0.039750
00572,111619,0.339077,-0.248431,9.813461,0.000190,0.001841,0.001177,-0.502087,0.468782,-0.448596,-1.267524,-2.088150,0.040824
00573,111719,0.348987,-0.220174,9.833642,0.001792,0.000265,0.002985,-0.503571,0.469328,-0.449071,-1.268853,-2.090475,0.042031
00574,111819,0.357568,-0.213526,9.829864,0.003131,-0.000161,0.001971,-0.500982,0.467062,-0.454695,-1.267050,-2.090573,0.043609
00575,111919,0.344692,-0.221746,9.830057,-0.001082,0.000439,0.003325,-0.502429,0.462248,-0.457948,-1.265252,-2.089751,0.043644
00576,112019,0.360551,-0.231079,9.826425,0.002140,0.000178,0.000978,-0.502422,0.466234,-0.457745,-1.262876,-2.089226,0.043292
00577,112119,0.337418,-0.220944,9.807990,0.000664,0.002088,0.002282,-0.505968,0.469608,-0.454070,-1.263478,-2.089796,0.042248
00578,112219,0.347739,-0.240208,9.827259,0.002575,0.000088,0.001712,-0.505534,0.470428,-0.450520,-1.264246,-2.092413,0.041547
00579,112319,0.342238,-0.243022,9.840311,0.001712,-0.000406,0.001406,-0.505036,0.470420,-0.450520,-1.265487,-2.095145,0.041001
00580,112419,0.344009,-0.239003,9.822973,0.000366,0.000839,0.000074,-0.500991,0.467038,-0.454195,-1.265374,-2.094836,0.041553
00581,112519,0.356387,-0.221088,9.829819,0.001129,0.002638,0.002351,-0.500427,0.467697,-0.457668,-1.264081,-2.092317,0.043700
00582,112619,0.339643,-0.232750,9.845675,0.001809,0.002765,0.003043,-0.501913,0.467247,-0.458194,-1.262140,-2.090031,0.045068
00583,112719,0.338021,-0.233516,9.836166,0.000489,0.002330,0.001677,-0.504972,0.469593,-0.454069,-1.262820,-2.090156,0.044361
00584,112819,0.349332,-0.249707,9.812633,0.001449,0.001243,0.002659,-0.506077,0.470814,-0.447996,-1.265059,-2.092972,0.044054
00585,112919,0.336870,-0.233759,9.836431,0.002960,-0.001204,0.002366,-0.503524,0.469448,-0.451570,-1.264986,-2.095367,0.044829
00586,113019,0.347352,-0.242713,9.826475,0.001482,0.001889,0.002298,-0.501988,0.466556,-0.454221,-1.264132,-2.094737,0.045800
00587,113119,0.333027,-0.231873,9.808847,0.001165,0.000750,0.001236,-0.499917,0.464250,-0.458846,-1.261445,-2.092811,0.046807
00588,113219,0.345582,-0.218636,9.844826,0.000160,0.002185,0.004633,-0.503879,0.466852,-0.459719,-1.259954,-2.091003,0.047617
00589,113319,0.344798,-0.234476,9.812461,0.001215,0.001840,0.001836,-0.504469,0.467118,-0.454696,-1.259311,-2.091045,0.046720
00590,113419,0.342701,-0.237447,9.829166,0.000576,0.001061,0.002808,-0.505571,0.470332,-0.448521,-1.261743,-2.093628,0.046657
00591,113519,0.338948,-0.242162,9.815740,0.001265,-0.001004,0.001432,-0.502537,0.469408,-0.451070,-1.262747,-2.095762,0.047549
00592,113619,0.323148,-0.248958,9.833036,0.001350,0.001264,0.001253,-0.502460,0.466138,-0.455746,-1.261411,-2.095212,0.047431
00593,113719,0.340116,-0.234087,9.829941,0.001625,0.000420,0.002666,-0.502900,0.467287,-0.458694,-1.259473,-2.094445,0.047983
00594,113819,0.354812,-0.241308,9.817353,0.000890,0.000897,0.000247,-0.503889,0.466330,-0.459245,-1.257488,-2.093567,0.046258
00595,113919,0.337591,-0.239567,9.844068,0.002169,0.000400,0.001913,-0.504947,0.468170,-0.455645,-1.256365,-2.094296,0.045353
00596,114019,0.340103,-0.251403,9.819609,0.002649,0.001336,0.000994,-0.502553,0.470855,-0.449994,-1.257310,-2.095417,0.046311
00597,114119,0.324638,-0.206524,9.825198,0.001522,0.001757,0.001657,-0.501077,0.471281,-0.448969,-1.259306,-2.096148,0.048779
00598,114219,0.340646,-0.240747,9.836676,0.004723,0.001534,0.002103,-0.499460,0.467111,-0.456194,-1.256255,-2.094468,0.051310
00599,114319,0.322583,-0.237300,9.834773,0.002729,0.002292,0.002932,-0.502883,0.466338,-0.459745,-1.253179,-2.092348,0.051684
00600,114419,0.325463,-0.224575,9.824609,0.000504,0.002668,0.001904,-0.505395,0.464835,-0.458822,-1.251197,-2.090998,0.049505
00601,114519,0.340951,-0.247736,9.818642,0.001065,0.001844,0.003391,-0.502452,0.470622,-0.455517,-1.251509,-2.090257,0.051651
00602,114619,0.344179,-0.231024,9.820679,0.000606,0.001225,0.001336,-0.504085,0.470782,-0.447995,-1.254144,-2.092448,0.051873
00603,114719,0.342716,-0.216220,9.840859,0.000290,0.000616,0.003684,-0.504029,0.470927,-0.450994,-1.256203,-2.094097,0.053396
00604,114819,0.357447,-0.227454,9.834728,0.001575,0.001088,0.001548,-0.500440,0.465680,-0.457270,-1.254256,-2.092685,0.054530
00605,114919,0.336342,-0.230234,9.821806,0.001098,0.001131,-0.000511,-0.500921,0.465238,-0.458295,-1.252152,-2.091131,0.053985
00606,115019,0.332984,-0.227642,9.817232,0.000782,0.000393,0.001454,-0.505409,0.467776,-0.457670,-1.251184,-2.091448,0.052369
00607,115119,0.342410,-0.236984,9.842874,0.001601,-0.000390,0.001583,-0.505960,0.469134,-0.454595,-1.250975,-2.093225,0.050936
00608,115219,0.345091,-0.236487,9.833450,0.000404,0.000026,0.000903,-0.505549,0.471875,-0.449444,-1.253596,-2.096084,0.050159
00609,115319,0.339838,-0.226708,9.824571,-0.000125,0.001631,0.001091,-0.504048,0.470879,-0.449994,-1.256073,-2.097423,0.050165
00610,115419,0.331534,-0.243407,9.822249,0.003458,0.000674,0.001650,-0.500503,0.467006,-0.453696,-1.254410,-2.097254,0.051813
00611,115519,0.335665,-0.222717,9.809259,0.001967,0.000759,0.003084,-0.501438,0.464700,-0.457321,-1.252011,-2.096272,0.052989
00612,115619,0.346673,-0.244053,9.844610,0.001415,0.000867,0.003611,-0.503915,0.467254,-0.457695,-1.250574,-2.095848,0.053475
00613,115719,0.340406,-0.231374,9.828568,0.001862,0.002545,0.001829,-0.505490,0.469054,-0.453095,-1.250590,-2.096197,0.052479
00614,115819,0.327349,-0.227544,9.834425,0.001970,0.001025,0.002707,-0.504027,0.471923,-0.450943,-1.251933,-2.097606,0.053634
00615,115919,0.334067,-0.227087,9.817798,0.003543,0.002081,0.003555,-0.503597,0.470252,-0.447521,-1.252827,-2.099187,0.055240
00616,116019,0.334180,-0.239788,9.829788,0.002655,0.000540,0.002017,-0.501446,0.465672,-0.456771,-1.250445,-2.098519,0.056073
00617,116119,0.345894,-0.233224,9.828661,0.001341,0.001487,0.001659,-0.502423,0.465736,-0.457770,-1.248575,-2.097324,0.056036
00618,116219,0.332764,-0.239044,9.835275,0.001189,0.000487,0.002534,-0.503436,0.466700,-0.456720,-1.247371,-2.097266,0.056120
00619,116319,0.332907,-0.232580,9.825373,0.003287,0.001471,0.001959,-0.504503,0.468516,-0.452621,-1.246553,-2.098069,0.055715
00620,116419,0.330880,-0.237891,9.810702,0.003062,0.000248,0.002264,-0.503538,0.472389,-0.450418,-1.247519,-2.099928,0.057057
00621,116519,0.328390,-0.216444,9.818960,0.000908,0.003740,0.002502,-0.502597,0.466773,-0.448198,-1.248743,-2.100065,0.057819
00622,116619,0.345574,-0.248421,9.827673,0.002127,0.001559,0.002202,-0.503445,0.467174,-0.456195,-1.247265,-2.099543,0.057828
00623,116719,0.335580,-0.235742,9.836664,0.000419,0.001064,0.001467,-0.500880,0.467327,-0.460193,-1.245748,-2.097555,0.058992
00624,116819,0.318595,-0.240630,9.819034,0.000850,0.001160,0.000305,-0.503437,0.466202,-0.456746,-1.244575,-2.097135,0.057663
00625,116919,0.348856,-0.233392,9.832990,0.001069,0.002344,0.001528,-0.505461,0.469625,-0.454569,-1.244818,-2.097184,0.056639
00626,117019,0.341314,-0.229878,9.835398,0.000986,-0.000501,0.000825,-0.506033,0.474896,-0.449792,-1.247767,-2.100328,0.056163
00627,117119,0.349109,-0.224797,9.810457,0.001710,0.000709,0.002435,-0.503510,0.471963,-0.451943,-1.248953,-2.101474,0.057407
00628,117219,0.341952,-0.235685,9.827515,0.000423,0.001014,0.003173,-0.500506,0.465013,-0.453797,-1.248507,-2.101072,0.059402
00629,117319,0.347736,-0.234665,9.820048,0.001258,0.001354,0.002345,-0.503870,0.466378,-0.460245,-1.246280,-2.099705,0.059021
00630,117419,0.331652,-0.257036,9.822623,0.000715,0.002030,0.001575,-0.502912,0.465768,-0.458271,-1.244711,-2.098230,0.058673
00631,117519,0.343754,-0.228054,9.825253,0.003592,0.000761,0.002205,-0.504471,0.471079,-0.453993,-1.244055,-2.099068,0.058994
00632,117619,0.363440,-0.227430,9.851685,0.003901,0.002597,0.002354,-0.504505,0.472975,-0.451892,-1.244270,-2.099434,0.059765
00633,117719,0.351484,-0.224588,9.845311,0.001981,-0.001196,0.003453,-0.503042,0.470887,-0.450494,-1.245390,-2.101910,0.061668
00634,117819,0.356102,-0.225545,9.798579,0.002609,0.000923,0.002285,-0.503980,0.467086,-0.454196,-1.244153,-2.102428,0.061483
00635,117919,0.350276,-0.236610,9.822914,0.002340,0.000349,0.002751,-0.500425,0.463735,-0.458371,-1.241122,-2.101218,0.062946
00636,118019,0.331485,-0.235812,9.824605,0.000577,0.000569,0.001495,-0.501906,0.466274,-0.458745,-1.239675,-2.100222,0.063288
00637,118119,0.336602,-0.228614,9.833219,0.001110,0.000422,0.000533,-0.503961,0.467632,-0.455170,-1.239187,-2.100804,0.062196
00638,118219,0.338792,-0.224196,9.826757,-0.002006,0.002052,0.000838,-0.504553,0.471859,-0.449444,-1.243057,-2.102120,0.061917
00639,118319,0.349029,-0.251850,9.816399,-0.000440,0.001825,0.002554,-0.503577,0.470798,-0.448495,-1.246007,-2.103517,0.062969
00640,118419,0.338455,-0.237336,9.827777,0.000843,0.000776,0.001104,-0.501469,0.468091,-0.455144,-1.245779,-2.103230,0.063786
00641,118519,0.335201,-0.246092,9.828548,0.002820,0.000382,0.002156,-0.501899,0.464804,-0.459321,-1.242530,-2.102164,0.064165
00642,118619,0.343596,-0.241626,9.814999,0.000015,0.001943,0.000840,-0.504433,0.466217,-0.456746,-1.241901,-2.101560,0.062617
00643,118719,0.325557,-0.223627,9.812079,0.002618,0.000468,0.003719,-0.504984,0.468074,-0.453646,-1.241114,-2.102722,0.062862
00644,118819,0.341274,-0.229310,9.827110,-0.000627,0.002220,0.002101,-0.506056,0.472357,-0.448920,-1.244453,-2.104418,0.062478
00645,118919,0.337514,-0.230671,9.815260,-0.000151,0.001202,0.003343,-0.501549,0.470365,-0.450519,-1.246598,-2.105087,0.065028
00646,119019,0.354670,-0.233736,9.815572,0.001998,0.000935,0.002790,-0.500465,0.467103,-0.455695,-1.245344,-2.104288,0.067170
00647,119119,0.339596,-0.226048,9.841666,0.001927,0.000584,0.001885,-0.502891,0.467311,-0.459194,-1.243304,-2.103435,0.067374
00648,119219,0.337759,-0.213923,9.852805,0.002084,0.003274,0.001690,-0.504415,0.466265,-0.457746,-1.241276,-2.101806,0.066329
00649,119319,0.327114,-0.243008,9.839329,0.001624,0.000742,0.001314,-0.504493,0.469536,-0.453070,-1.241523,-2.102869,0.065804
00650,119419,0.344850,-0.223381,9.815468,0.001509,-0.000066,0.002118,-0.504036,0.472397,-0.450418,-1.243237,-2.104959,0.066627
00651,119519,0.339630,-0.233405,9.834448,0.000385,0.002005,0.000319,-0.503550,0.470871,-0.449994,-1.245255,-2.105846,0.066352
00652,119619,0.334268,-0.241223,9.836581,0.001611,0.000198,0.002609,-0.501454,0.466146,-0.456245,-1.243848,-2.105582,0.067612
00653,119719,0.344800,-0.262690,9.835964,0.003423,0.000357,0.001104,-0.504406,0.465791,-0.458271,-1.240803,-2.105480,0.066234
00654,119819,0.347356,-0.237918,9.817125,0.001127,0.000023,0.001052,-0.501399,0.465792,-0.459270,-1.238835,-2.104569,0.066566
00655,119919,0.352503,-0.217861,9.827587,0.001077,0.000891,0.002857,-0.504976,0.467600,-0.454171,-1.238663,-2.105338,0.066243
00656,120019,0.344343,-0.222974,9.812642,0.001534,0.002856,0.001833,-0.502561,0.471827,-0.449443,-1.240437,-2.105618,0.067603
00657,120119,0.342028,-0.234268,9.821527,0.001680,0.001562,0.001520,-0.504573,0.471312,-0.448470,-1.242219,-2.107375,0.067541
00658,120219,0.325159,-0.246381,9.813301,0.001238,0.001741,0.000372,-0.498989,0.467529,-0.454669,-1.241739,-2.106059,0.069202
00659,120319,0.344562,-0.243066,9.809804,0.002040,0.001905,0.001873,-0.503381,0.466346,-0.459745,-1.239309,-2.104452,0.068920
00660,120419,0.334350,-0.252783,9.812796,0.001120,-0.000817,0.000765,-0.502883,0.466338,-0.459745,-1.237398,-2.104298,0.068328
00661,120519,0.350993,-0.246743,9.815945,0.003273,-0.001129,0.001808,-0.505479,0.470075,-0.453544,-1.236736,-2.106531,0.067733
00662,120619,0.334588,-0.240147,9.830778,0.002483,0.001236,0.001604,-0.505534,0.469930,-0.450546,-1.237211,-2.108163,0.066911
00663,120719,0.338056,-0.235292,9.834782,0.000363,0.001983,0.001618,-0.502536,0.469907,-0.451044,-1.238760,-2.108498,0.067749
00664,120819,0.335532,-0.227455,9.825193,0.001063,-0.001113,0.001588,-0.500964,0.466612,-0.455720,-1.237943,-2.109027,0.068813
00665,120919,0.340330,-0.229004,9.830121,0.001101,0.001298,0.002116,-0.504379,0.465864,-0.459770,-1.235965,-2.108000,0.068091
00666,121019,0.331294,-0.233759,9.815804,0.001389,0.001282,0.002303,-0.505891,0.466337,-0.458746,-1.234210,-2.107612,0.066762
00667,121119,0.336639,-0.230552,9.815838,0.000850,0.000876,0.000759,-0.503984,0.470051,-0.453544,-1.234905,-2.108324,0.066344
00668,121219,0.336260,-0.232882,9.814623,0.000636,0.001285,0.001524,-0.506009,0.472975,-0.451393,-1.236972,-2.109826,0.065784
00669,121319,0.349884,-0.230780,9.837986,0.000111,0.000472,0.001357,-0.502555,0.469858,-0.450045,-1.238870,-2.111254,0.066423
00670,121419,0.345205,-0.235616,9.815975,0.000075,0.001319,0.001542,-0.501470,0.467593,-0.455170,-1.238997,-2.110658,0.067371
00671,121519,0.332525,-0.238755,9.823147,0.000571,0.001985,0.000679,-0.502445,0.464193,-0.456847,-1.237592,-2.109490,0.066608
00672,121619,0.357939,-0.240986,9.816504,0.002232,0.002276,0.000607,-0.504443,0.466193,-0.456246,-1.235890,-2.108807,0.065091
00673,121719,0.347231,-0.249696,9.823546,0.001310,0.000688,0.002743,-0.507463,0.469632,-0.454070,-1.236134,-2.110284,0.063832
00674,121819,0.349134,-0.246327,9.812723,0.000106,0.002251,0.002242,-0.503537,0.472888,-0.450392,-1.238712,-2.110849,0.064921
00675,121919,0.347655,-0.239903,9.846795,0.000434,0.003123,0.002160,-0.501539,0.470887,-0.450993,-1.240453,-2.110275,0.066696
00676,122019,0.349701,-0.229536,9.824660,0.001066,0.000810,0.001544,-0.500495,0.466034,-0.454246,-1.239855,-2.109959,0.067875
00677,122119,0.350924,-0.230637,9.855184,0.001799,0.000418,0.001342,-0.501872,0.464378,-0.460845,-1.236886,-2.108593,0.067919
00678,122219,0.326313,-0.227429,9.835730,0.001254,0.001384,0.002168,-0.503408,0.466772,-0.458220,-1.235467,-2.107691,0.068016
00679,122319,0.335627,-0.245369,9.857053,0.000436,-0.000162,0.002566,-0.506931,0.472686,-0.455417,-1.236622,-2.109223,0.067611
00680,122419,0.334099,-0.235533,9.817411,0.000314,0.000864,0.001929,-0.505013,0.472461,-0.451418,-1.238701,-2.110673,0.067686
00681,122519,0.350304,-0.230890,9.821997,0.001043,0.001259,0.001956,-0.502038,0.469899,-0.451044,-1.239817,-2.111263,0.068887
00682,122619,0.332926,-0.220506,9.813187,0.002422,0.000711,0.002707,-0.501480,0.467070,-0.454695,-1.238621,-2.111128,0.070367
00683,122719,0.339807,-0.235702,9.829642,0.002835,0.002474,0.002151,-0.500412,0.465752,-0.458770,-1.235919,-2.108767,0.071860
00684,122819,0.335296,-0.231906,9.821466,0.001605,0.001110,0.002352,-0.504404,0.467286,-0.458195,-1.234449,-2.108274,0.071650
00685,122919,0.333481,-0.230442,9.842237,0.000841,0.000442,0.002730,-0.507480,0.470082,-0.453045,-1.235294,-2.110121,0.070533
00686,123019,0.349843,-0.235986,9.836211,0.001776,0.003247,0.001738,-0.503071,0.475275,-0.448266,-1.237908,-2.110525,0.071892
00687,123119,0.335890,-0.237978,9.821138,-0.000022,0.002109,0.002973,-0.502048,0.469376,-0.450570,-1.239621,-2.110729,0.073516
00688,123219,0.331359,-0.230962,9.818344,0.002466,0.000969,0.001033,-0.504520,0.464506,-0.452324,-1.238308,-2.111724,0.071931
00689,123319,0.343432,-0.221259,9.840084,0.001843,0.002594,0.001057,-0.500898,0.467279,-0.459193,-1.236432,-2.109349,0.072838
00690,123419,0.334385,-0.250609,9.824785,-0.001542,0.002691,0.001698,-0.503398,0.467294,-0.458694,-1.236641,-2.107613,0.072788
00691,123519,0.336197,-0.235796,9.821579,-0.002505,0.003419,0.001485,-0.505451,0.469649,-0.455069,-1.238790,-2.106812,0.071914
00692,123619,0.342962,-0.241347,9.820194,-0.000453,0.001107,0.001892,-0.508049,0.472389,-0.448920,-1.241819,-2.109380,0.070320
00693,123719,0.329008,-0.246804,9.840087,0.001634,0.001258,0.001275,-0.504044,0.467913,-0.450647,-1.242178,-2.110500,0.069686
00694,123819,0.360178,-0.246100,9.805637,0.000261,-0.000536,0.003105,-0.502507,0.465519,-0.453272,-1.242190,-2.111635,0.070608
00695,123919,0.345022,-0.243674,9.834960,0.001084,0.000652,0.002451,-0.501417,0.466242,-0.458245,-1.240754,-2.110694,0.071929
00696,124019,0.335371,-0.229483,9.850430,0.001775,0.001902,0.001884,-0.503906,0.466780,-0.458220,-1.239059,-2.109629,0.071694
00697,124119,0.354110,-0.232671,9.823664,0.002495,0.002794,0.001052,-0.506003,0.471007,-0.451994,-1.239350,-2.110024,0.070426
00698,124219,0.364817,-0.229978,9.828064,0.002614,0.003584,0.001303,-0.503041,0.471385,-0.450469,-1.240004,-2.109652,0.070796
00699,124319,0.340402,-0.259675,9.828233,0.001032,0.002238,0.002513,-0.504014,0.468982,-0.452095,-1.240657,-2.109858,0.071052
00700,124419,0.333290,-0.230312,9.827281,0.000073,0.000475,0.001794,-0.503934,0.466708,-0.456721,-1.240264,-2.109971,0.070762
00701,124519,0.353216,-0.229873,9.824608,0.001482,0.001195,0.001828,-0.499906,0.465270,-0.459295,-1.238151,-2.108167,0.072401
00702,124619,0.335074,-0.235047,9.839965,0.001064,0.000108,0.000515,-0.503405,0.468765,-0.458118,-1.237345,-2.108090,0.071996
00703,124719,0.348357,-0.227667,9.854231,0.003157,0.000149,0.001147,-0.505498,0.469528,-0.452570,-1.236786,-2.109733,0.070867
00704,124819,0.338926,-0.251201,9.827863,0.001723,0.001703,0.002591,-0.504534,0.471907,-0.450444,-1.238097,-2.110754,0.071309
00705,124919,0.351140,-0.229815,9.827669,0.002057,0.003173,0.001652,-0.501548,0.470863,-0.450494,-1.238933,-2.110260,0.072528
00706,125019,0.342213,-0.245025,9.823465,0.002015,0.002120,0.003483,-0.499476,0.468557,-0.455118,-1.238259,-2.108811,0.075629
00707,125119,0.341133,-0.243837,9.825700,0.002007,0.001681,0.002166,-0.501927,0.464731,-0.457821,-1.236094,-2.107536,0.076183
00708,125219,0.328266,-0.242742,9.831338,-0.000616,-0.000129,0.001246,-0.503386,0.468813,-0.459118,-1.236068,-2.107366,0.076232
00709,125319,0.345234,-0.218232,9.825822,0.002345,0.000116,0.002240,-0.505014,0.471963,-0.451443,-1.236791,-2.109184,0.076368
00710,125419,0.344336,-0.224235,9.819148,0.001332,0.001554,0.001016,-0.503549,0.471369,-0.449969,-1.238247,-2.110195,0.076336
00711,125519,0.329858,-0.218315,9.832484,0.000753,0.003488,0.001344,-0.502514,0.471948,-0.451942,-1.239726,-2.109417,0.077091
00712,125619,0.336018,-0.224974,9.829456,-0.000700,0.000995,0.002194,-0.502443,0.465189,-0.456796,-1.239442,-2.108884,0.077477
00713,125719,0.335102,-0.221691,9.819717,-0.000260,0.000596,0.001774,-0.502922,0.465744,-0.457771,-1.238815,-2.108474,0.077502
00714,125819,0.348276,-0.238352,9.824280,0.003019,0.000073,0.002281,-0.500957,0.465640,-0.456270,-1.236634,-2.108273,0.078688
00715,125919,0.318109,-0.230001,9.817636,0.000775,0.003290,0.000616,-0.506962,0.471119,-0.453994,-1.237456,-2.108119,0.076895
00716,126019,0.342855,-0.234034,9.832708,0.001238,0.001221,0.001957,-0.505016,0.470967,-0.451494,-1.238545,-2.109268,0.076675
00717,126119,0.329652,-0.236581,9.826618,0.001360,0.002292,0.003142,-0.503544,0.468902,-0.450596,-1.239312,-2.109653,0.077451
00718,126219,0.344244,-0.226844,9.834431,0.002088,0.001349,0.001350,-0.503503,0.466033,-0.453247,-1.238400,-2.109969,0.076879
00719,126319,0.339493,-0.237921,9.830335,0.001303,0.004529,0.000788,-0.502448,0.467158,-0.456195,-1.237538,-2.107593,0.076720
00720,126419,0.345777,-0.236846,9.831209,0.000994,0.003165,0.000995,-0.504919,0.468242,-0.457144,-1.236908,-2.106329,0.075724
00721,126519,0.343432,-0.233167,9.797820,-0.000412,0.001856,0.002188,-0.506494,0.469544,-0.452570,-1.238398,-2.107173,0.074712
00722,126619,0.346436,-0.237232,9.835234,0.000469,0.001481,0.002693,-0.503558,0.471345,-0.449469,-1.240455,-2.108290,0.075494
00723,126719,0.338324,-0.219279,9.822112,0.003297,0.001095,0.003676,-0.501507,0.472952,-0.452391,-1.240624,-2.108531,0.078118
00724,126819,0.343737,-0.237963,9.824894,0.002610,0.000690,0.003679,-0.503923,0.467728,-0.457170,-1.238990,-2.108429,0.079098
00725,126919,0.348630,-0.239086,9.832252,0.002617,-0.001550,0.002130,-0.502394,0.466306,-0.459244,-1.236560,-2.108831,0.079827
00726,127019,0.362430,-0.216562,9.809617,0.003234,0.000003,0.002051,-0.503436,0.466700,-0.456720,-1.234420,-2.109138,0.079955
00727,127119,0.331498,-0.232752,9.825059,-0.000707,0.001652,0.001660,-0.503987,0.468556,-0.453620,-1.235608,-2.109321,0.079717
00728,127219,0.351978,-0.230761,9.837259,0.000041,0.003939,0.002197,-0.504526,0.471433,-0.450969,-1.237577,-2.108909,0.079787
00729,127319,0.332290,-0.241674,9.819510,-0.001141,0.002116,0.002980,-0.503041,0.466427,-0.451222,-1.239073,-2.109121,0.080343
00730,127419,0.330895,-0.239403,9.820657,0.003108,0.000780,0.002698,-0.500948,0.465664,-0.456770,-1.236771,-2.108430,0.081854
00731,127519,0.331329,-0.242870,9.823226,0.003002,0.001061,0.002300,-0.501456,0.465150,-0.456296,-1.234523,-2.107798,0.082756
00732,127619,0.336203,-0.247216,9.825030,0.001878,0.000380,0.001658,-0.505379,0.468845,-0.459118,-1.233129,-2.107797,0.082165
00733,127719,0.324960,-0.226881,9.822511,0.000087,0.003404,0.003764,-0.503034,0.470413,-0.451019,-1.234870,-2.107341,0.083685
00734,127819,0.358624,-0.226272,9.829443,0.001345,0.002156,0.000649,-0.505108,0.471224,-0.446471,-1.236970,-2.109071,0.082396
00735,127919,0.337113,-0.247264,9.844331,0.002112,0.004175,0.001372,-0.503092,0.468774,-0.448097,-1.237755,-2.108834,0.082129
00736,128019,0.350143,-0.260643,9.818760,0.001439,0.000896,0.001609,-0.503444,0.467672,-0.456170,-1.236972,-2.108768,0.082097
00737,128119,0.328763,-0.254982,9.820879,0.001305,-0.000942,0.002342,-0.500861,0.467375,-0.461193,-1.235150,-2.108107,0.083895
00738,128219,0.346299,-0.229390,9.823010,0.002550,0.000179,0.000824,-0.504903,0.466796,-0.458220,-1.233111,-2.108318,0.082725
00739,128319,0.343151,-0.227648,9.830336,0.002644,0.000894,0.002565,-0.505505,0.470999,-0.451994,-1.233285,-2.109605,0.082575
00740,128419,0.336014,-0.235336,9.823019,0.002391,-0.001470,0.001687,-0.504564,0.470838,-0.448995,-1.234177,-2.112700,0.082195
00741,128519,0.343153,-0.240162,9.808467,0.000760,0.001696,0.002571,-0.503015,0.470461,-0.452019,-1.235287,-2.112984,0.083070
00742,128619,0.348311,-0.251132,9.819751,0.002381,0.000924,0.002035,-0.502425,0.469697,-0.457067,-1.234229,-2.112499,0.084059
00743,128719,0.346705,-0.210902,9.832075,-0.000315,0.001819,0.002830,-0.502913,0.465270,-0.458296,-1.233523,-2.111306,0.084780
00744,128819,0.335093,-0.228661,9.822748,0.002643,0.000760,0.002575,-0.504436,0.469681,-0.456069,-1.232542,-2.111548,0.085130
00745,128919,0.329784,-0.235062,9.831970,0.000803,-0.001188,0.001531,-0.507509,0.469511,-0.451571,-1.233503,-2.114508,0.083304
00746,129019,0.338902,-0.228014,9.829169,0.001959,0.001847,0.002071,-0.506048,0.471384,-0.449470,-1.234644,-2.115874,0.082453
00747,129119,0.332991,-0.245497,9.828256,0.003173,0.000103,0.002787,-0.502025,0.472414,-0.451417,-1.234905,-2.116986,0.083997
00748,129219,0.343805,-0.239225,9.831332,0.002490,0.000896,0.003115,-0.500948,0.465664,-0.456770,-1.232999,-2.116239,0.085852
00749,129319,0.339002,-0.238527,9.839115,0.001729,0.000803,0.001639,-0.501916,0.465752,-0.458270,-1.231217,-2.115448,0.086478
00750,129419,0.339842,-0.229207,9.829254,0.002393,0.002267,0.001048,-0.504892,0.467817,-0.458669,-1.229417,-2.114366,0.085676
00751,129519,0.346837,-0.235906,9.810348,0.002285,0.002823,0.001174,-0.502506,0.471473,-0.452468,-1.229743,-2.113827,0.086045
00752,129619,0.349022,-0.227022,9.803378,0.002381,0.001405,0.001650,-0.504514,0.472951,-0.451392,-1.230558,-2.114738,0.085917
00753,129719,0.337923,-0.225870,9.819172,-0.000859,0.003097,0.002069,-0.504530,0.469440,-0.451071,-1.232552,-2.114720,0.085608
00754,129819,0.341120,-0.230936,9.817413,0.001559,0.001120,0.001622,-0.501981,0.465584,-0.454772,-1.231569,-2.114515,0.086006
00755,129919,0.349376,-0.225822,9.820874,0.002075,0.003031,0.002781,-0.502420,0.467729,-0.457669,-1.230176,-2.112698,0.087201
00756,130019,0.333433,-0.251348,9.835926,0.000043,0.001666,0.002143,-0.502414,0.470718,-0.457516,-1.230597,-2.111724,0.088331
00757,130119,0.337471,-0.243467,9.833490,0.001018,0.002002,0.001555,-0.501513,0.469465,-0.452569,-1.231200,-2.111424,0.089109
00758,130219,0.335149,-0.235404,9.834531,0.001713,0.000855,0.001095,-0.502567,0.473298,-0.448867,-1.232950,-2.112799,0.089422
00759,130319,0.338760,-0.252360,9.827478,0.000413,0.000514,0.001078,-0.502565,0.469336,-0.449570,-1.234463,-2.114188,0.089338
00760,130419,0.340935,-0.251625,9.828844,0.004252,-0.001687,0.002520,-0.502984,0.467070,-0.454196,-1.232390,-2.115910,0.089927
00761,130519,0.354204,-0.212893,9.811889,-0.001159,0.000237,0.003131,-0.501409,0.465270,-0.458795,-1.232112,-2.115230,0.091539
00762,130619,0.341543,-0.238340,9.817462,0.003977,0.000254,0.002130,-0.503923,0.467728,-0.457170,-1.229730,-2.115417,0.091703
00763,130719,0.346948,-0.247434,9.834244,-0.000347,0.001618,0.002262,-0.505490,0.469054,-0.453095,-1.230935,-2.115995,0.091213
00764,130819,0.355206,-0.222277,9.821438,-0.002170,0.000647,0.000069,-0.504043,0.473370,-0.449867,-1.234671,-2.117558,0.090379
00765,130919,0.333576,-0.252445,9.804685,0.000741,0.003644,0.001498,-0.500016,0.470936,-0.452492,-1.235720,-2.116024,0.091867
00766,131019,0.337038,-0.248854,9.834520,0.001774,0.000866,0.001253,-0.501456,0.465150,-0.456296,-1.234213,-2.115543,0.092206
00767,131119,0.333850,-0.262183,9.848962,0.001296,0.001307,0.002379,-0.501924,0.466226,-0.457745,-1.232944,-2.114596,0.093163
00768,131219,0.364492,-0.234339,9.836794,-0.000218,0.000847,0.002312,-0.502929,0.466716,-0.457220,-1.232753,-2.114229,0.093692
00769,131319,0.351915,-0.218007,9.807398,0.001952,0.000245,0.002169,-0.505488,0.470050,-0.453044,-1.232847,-2.115603,0.093312
00770,131419,0.354087,-0.237056,9.819873,0.002373,-0.000798,0.003198,-0.504036,0.471899,-0.450444,-1.233612,-2.117822,0.094198
00771,131519,0.356187,-0.225027,9.824028,0.003344,0.002328,0.002492,-0.503045,0.469392,-0.450570,-1.233262,-2.118023,0.094740
00772,131619,0.334920,-0.231224,9.835920,0.000079,0.002092,0.002171,-0.499973,0.469064,-0.455093,-1.233791,-2.116819,0.096564
00773,131719,0.336313,-0.219190,9.810230,-0.000675,0.002407,0.001319,-0.503410,0.465776,-0.458271,-1.233437,-2.115446,0.096250
00774,131819,0.342742,-0.235266,9.808367,0.002505,0.001580,0.002466,-0.502925,0.469207,-0.457093,-1.232226,-2.114708,0.097166
00775,131919,0.353769,-0.237857,9.828594,0.003873,0.002186,0.002284,-0.504518,0.470959,-0.451494,-1.231706,-2.115109,0.097247
00776,132019,0.343179,-0.247062,9.841217,0.002788,-0.000941,0.003879,-0.504535,0.471409,-0.450469,-1.232130,-2.117492,0.098258
00777,132119,0.341980,-0.230272,9.815237,0.001826,0.000657,0.004570,-0.502541,0.467416,-0.451171,-1.232160,-2.118391,0.099989
00778,132219,0.342943,-0.221789,9.821578,0.002418,0.002928,0.003526,-0.500952,0.468629,-0.456118,-1.231089,-2.116689,0.102144
00779,132319,0.344540,-0.222693,9.824348,0.000850,-0.000078,0.002143,-0.502388,0.464836,-0.459821,-1.229397,-2.116224,0.102695
00780,132419,0.333890,-0.233425,9.845670,0.001371,0.000146,0.001672,-0.502975,0.467094,-0.454696,-1.228873,-2.116818,0.102721
00781,132519,0.334721,-0.231937,9.828111,0.000744,0.000677,0.002411,-0.504999,0.470018,-0.452544,-1.229740,-2.117943,0.102636
00782,132619,0.350068,-0.222939,9.807650,0.000892,0.001346,0.001260,-0.504527,0.470935,-0.450994,-1.230979,-2.118926,0.102088
00783,132719,0.336906,-0.251567,9.807272,0.001073,-0.000129,0.002643,-0.500489,0.469521,-0.454068,-1.231242,-2.119319,0.103946
00784,132819,0.334735,-0.237112,9.835499,0.001437,0.001982,0.002201,-0.501922,0.467223,-0.457694,-1.230119,-2.118035,0.104864
00785,132919,0.342930,-0.231966,9.819095,0.002306,0.001295,0.001518,-0.499925,0.464724,-0.458320,-1.227867,-2.116633,0.105853
00786,133019,0.336781,-0.229164,9.835392,0.000946,-0.000798,0.000498,-0.503397,0.468291,-0.458643,-1.227038,-2.117064,0.105443
00787,133119,0.327021,-0.226150,9.827139,0.002436,0.003204,0.002789,-0.504011,0.470477,-0.452019,-1.227135,-2.116660,0.105991
00788,133219,0.332466,-0.254244,9.811501,0.001663,0.001551,0.002945,-0.502525,0.470927,-0.451493,-1.227864,-2.117025,0.107246
00789,133319,0.353159,-0.237369,9.831405,0.000951,0.003193,0.002276,-0.504541,0.468419,-0.450622,-1.228662,-2.117003,0.106896
00790,133419,0.341692,-0.241129,9.830198,0.000873,0.001081,0.003034,-0.501961,0.466628,-0.455720,-1.228165,-2.116643,0.108045
00791,133519,0.338816,-0.235407,9.815962,0.001669,-0.000394,0.001731,-0.501896,0.466298,-0.459244,-1.226441,-2.116419,0.108650
00792,133619,0.340367,-0.224502,9.838535,0.002241,-0.000542,0.002356,-0.506428,0.464754,-0.456823,-1.224593,-2.117607,0.107486
00793,133719,0.342735,-0.252477,9.817894,0.000223,0.000766,0.001650,-0.503010,0.467994,-0.452646,-1.225324,-2.118272,0.107440
00794,133819,0.336888,-0.228099,9.820048,0.001818,0.000989,0.002246,-0.505055,0.469874,-0.449546,-1.226128,-2.119816,0.107012
00795,133919,0.344539,-0.234647,9.830269,0.001893,0.000294,0.002958,-0.501551,0.468870,-0.450595,-1.226486,-2.120869,0.108291
00796,134019,0.336330,-0.229519,9.831091,0.001642,0.000356,0.001661,-0.501436,0.465696,-0.457270,-1.225046,-2.120520,0.108851
00797,134119,0.344186,-0.242690,9.817836,0.001976,0.000785,0.003106,-0.502386,0.465832,-0.459770,-1.222999,-2.119591,0.110032
00798,134219,0.336585,-0.222105,9.813423,0.003060,0.002092,0.000809,-0.502913,0.470726,-0.457517,-1.221683,-2.118531,0.110288
00799,134319,0.345309,-0.235416,9.819303,0.002089,0.001190,0.005013,-0.505996,0.469536,-0.452570,-1.221745,-2.119494,0.111243
00800,134419,0.337551,-0.226579,9.823546,0.004071,0.002856,0.004284,-0.504009,0.471473,-0.451968,-1.221138,-2.119277,0.112750
00801,134519,0.351701,-0.241510,9.825016,0.002340,-0.001007,0.003170,-0.501543,0.468396,-0.451120,-1.221056,-2.120973,0.114092
00802,134619,0.338088,-0.230218,9.825237,0.000861,0.000008,0.001166,-0.503950,0.468154,-0.455645,-1.220869,-2.121653,0.113637
00803,134719,0.364246,-0.220219,9.821177,0.002867,0.001632,0.000952,-0.505362,0.467897,-0.460169,-1.218622,-2.120771,0.112811
00804,134819,0.348216,-0.232812,9.829570,0.001705,-0.000278,0.001459,-0.504468,0.467616,-0.454671,-1.218054,-2.121898,0.112197
00805,134919,0.349406,-0.226820,9.821097,0.000946,0.001673,0.003243,-0.501530,0.470413,-0.451519,-1.219084,-2.121988,0.113860
00806,135019,0.336133,-0.242918,9.828303,0.002114,0.000886,0.004694,-0.505557,0.472847,-0.448894,-1.220451,-2.123781,0.114985
00807,135119,0.342257,-0.242799,9.806131,0.003542,0.003411,0.003419,-0.502491,0.469529,-0.453569,-1.219431,-2.122639,0.116361
00808,135219,0.340329,-0.237309,9.838497,0.001640,0.001734,0.005124,-0.501931,0.467697,-0.457169,-1.218498,-2.121619,0.118962
00809,135319,0.342900,-0.227455,9.828700,0.001132,0.000205,0.006771,-0.502389,0.469296,-0.459092,-1.217833,-2.121179,0.122689
00810,135419,0.341974,-0.228148,9.807507,0.000994,0.001447,0.007086,-0.502409,0.468749,-0.458118,-1.217333,-2.120224,0.126409
00811,135519,0.347351,-0.234186,9.818571,0.003430,0.000650,0.004104,-0.505480,0.469576,-0.453570,-1.216408,-2.121222,0.127095
00812,135619,0.342652,-0.244892,9.831243,0.001931,0.001586,0.006854,-0.503051,0.471361,-0.449969,-1.217404,-2.121926,0.130173
00813,135719,0.340298,-0.241252,9.818270,0.000115,0.001425,0.008400,-0.502487,0.471522,-0.453467,-1.218827,-2.121918,0.134593
00814,135819,0.341036,-0.236277,9.818280,-0.000813,0.000754,0.006971,-0.500981,0.467561,-0.454669,-1.219760,-2.121782,0.138312
00815,135919,0.327736,-0.236902,9.822248,0.003074,0.000810,0.006643,-0.503430,0.465229,-0.457296,-1.217536,-2.121540,0.140822
00816,136019,0.347727,-0.230444,9.842067,0.003078,0.000866,0.004900,-0.504954,0.469143,-0.455094,-1.216435,-2.122020,0.142152
00817,136119,0.324067,-0.227945,9.838667,0.001853,0.000226,0.004039,-0.507539,0.468443,-0.450123,-1.216828,-2.124297,0.141590
00818,136219,0.334684,-0.242970,9.814835,0.000930,-0.000316,0.004616,-0.503542,0.469898,-0.450545,-1.217935,-2.126075,0.142989
00819,136319,0.348815,-0.234671,9.803964,0.002437,-0.000774,0.004393,-0.501016,0.468959,-0.452594,-1.217598,-2.127260,0.145244
00820,136419,0.354931,-0.243551,9.828364,0.003020,0.000860,0.006444,-0.502437,0.468179,-0.456644,-1.216066,-2.126959,0.148359
00821,136519,0.387154,-0.259337,9.821435,0.001445,0.000320,0.016859,-0.500916,0.467729,-0.458168,-1.215274,-2.126289,0.158032
00822,136619,0.380949,-0.226694,9.810116,0.003727,0.002103,0.026870,-0.504936,0.469191,-0.456094,-1.214050,-2.125632,0.171931
00823,136719,0.404659,-0.254494,9.820097,0.003265,0.000538,0.046772,-0.503553,0.468878,-0.450096,-1.214535,-2.126570,0.197103
00824,136819,0.403380,-0.250612,9.810169,0.001639,-0.000315,0.074344,-0.501557,0.470839,-0.449994,-1.216847,-2.127391,0.238881
00825,136919,0.387613,-0.249342,9.849271,0.002200,0.000021,0.082345,-0.501991,0.470518,-0.453518,-1.218213,-2.127385,0.285157
00826,137019,0.387986,-0.267077,9.841579,0.003473,0.000517,0.109599,-0.500965,0.471570,-0.454966,-1.219255,-2.126396,0.347421
00827,137119,0.401979,-0.283364,9.824203,0.003376,-0.003093,0.128528,-0.500915,0.468227,-0.458143,-1.219423,-2.126713,0.420196
00828,137219,0.335123,-0.243718,9.827716,0.003442,-0.002018,0.133371,-0.503414,0.474197,-0.456839,-1.220911,-2.127182,0.495149
00829,137319,0.325923,-0.226351,9.820650,0.006154,-0.001558,0.131795,-0.506000,0.477958,-0.451139,-1.222481,-2.129058,0.567889
00830,137419,0.383640,-0.257094,9.836752,0.004547,-0.002433,0.138943,-0.501012,0.476408,-0.451713,-1.224585,-2.130447,0.645998
00831,137519,0.358950,-0.249454,9.823385,0.006053,-0.002412,0.144022,-0.499961,0.476039,-0.454737,-1.225163,-2.131113,0.727327
00832,137619,0.306170,-0.220814,9.811177,0.003990,-0.001810,0.156853,-0.499400,0.474705,-0.458312,-1.226123,-2.130624,0.816149
00833,137719,0.076089,-0.103890,9.808564,0.009877,0.001104,0.095365,-0.502873,0.472317,-0.459440,-1.221677,-2.129683,0.868340
00834,137819,0.229984,-0.217989,9.852787,0.002611,0.004165,0.041459,-0.502896,0.474736,-0.457813,-1.220985,-2.127995,0.889505
00835,137919,0.305513,-0.189482,9.832048,0.002795,0.001952,0.014782,-0.502953,0.479051,-0.454086,-1.221134,-2.128615,0.895115
00836,138019,0.337782,-0.222784,9.837914,0.001038,0.002985,0.005470,-0.501483,0.475990,-0.453238,-1.221668,-2.128642,0.895672
00837,138119,0.338343,-0.218651,9.825747,0.002065,0.004855,0.002128,-0.501464,0.476038,-0.454238,-1.221362,-2.127454,0.894388
00838,138219,0.344279,-0.224761,9.807931,-0.000509,0.003192,0.001781,-0.501468,0.474046,-0.454340,-1.222130,-2.127195,0.892967
00839,138319,0.345030,-0.240903,9.821577,-0.001824,0.001938,0.002940,-0.501354,0.475331,-0.460286,-1.222773,-2.126552,0.892956
00840,138419,0.349855,-0.238924,9.822881,0.000888,0.002958,0.003563,-0.502875,0.476279,-0.458737,-1.222365,-2.125861,0.892594
00841,138519,0.354735,-0.263574,9.821857,0.001067,0.002892,0.007114,-0.502910,0.477179,-0.456687,-1.222494,-2.125538,0.893952
00842,138619,0.332024,-0.249647,9.842711,0.004755,0.002908,0.007491,-0.501448,0.480048,-0.454535,-1.221467,-2.125338,0.895449
00843,138719,0.334096,-0.233966,9.821039,-0.000989,0.000529,0.002973,-0.501962,0.476046,-0.454238,-1.222937,-2.126682,0.894503
00844,138819,0.337368,-0.214885,9.829852,-0.000509,0.002388,0.001764,-0.499399,0.475203,-0.458287,-1.223148,-2.125836,0.894311
00845,138919,0.339446,-0.226462,9.853934,-0.000235,0.003070,-0.000017,-0.499882,0.473266,-0.459388,-1.222596,-2.124514,0.893341
00846,139019,0.330221,-0.225190,9.832131,-0.001771,0.004368,0.000078,-0.502904,0.475708,-0.457263,-1.223821,-2.123318,0.890895
00847,139119,0.348025,-0.236271,9.829957,-0.004591,0.006821,-0.000607,-0.503930,0.479614,-0.455060,-1.227810,-2.121267,0.886870
00848,139219,0.337431,-0.237953,9.809743,-0.003857,0.001878,0.000329,-0.502991,0.478955,-0.452087,-1.231837,-2.122370,0.883295
00849,139319,0.339892,-0.234151,9.819974,-0.001147,0.001806,-0.001239,-0.502476,0.477999,-0.453137,-1.233888,-2.123256,0.879206
00850,139419,0.325257,-0.235036,9.821813,-0.001322,0.003918,-0.001696,-0.501860,0.476311,-0.459736,-1.234426,-2.121726,0.876333
00851,139519,0.339593,-0.236019,9.823709,-0.003072,0.005023,-0.003076,-0.502371,0.474302,-0.459338,-1.235647,-2.119734,0.872927
00852,139619,0.306974,-0.229340,9.821455,-0.002523,0.004915,-0.011000,-0.501414,0.478152,-0.456635,-1.237640,-2.118171,0.863978
00853,139719,0.269866,-0.238264,9.828114,-0.001970,0.005857,-0.031540,-0.500494,0.476946,-0.452688,-1.239445,-2.116798,0.843161
00854,139819,0.294857,-0.211730,9.824925,-0.003599,0.010036,-0.053735,-0.504439,0.478601,-0.454612,-1.241728,-2.113581,0.808165
00855,139919,0.194142,-0.143591,9.852649,-0.010302,0.014532,-0.089477,-0.500478,0.475500,-0.453763,-1.246719,-2.107670,0.754528
00856,140019,0.215022,-0.142350,9.820946,-0.014253,0.016481,-0.155445,-0.502381,0.473780,-0.458863,-1.251411,-2.100836,0.663818
00857,140119,0.371581,-0.226291,9.816175,-0.013904,0.014346,-0.179892,-0.502429,0.473161,-0.456390,-1.255921,-2.095819,0.558888
00858,140219,0.197042,-0.175359,9.822026,-0.001607,0.017055,-0.228472,-0.501927,0.469690,-0.457067,-1.251805,-2.089517,0.427403
00859,140319,0.299493,-0.242484,9.894125,-0.002671,0.016783,-0.235020,-0.503947,0.475105,-0.454789,-1.249892,-2.083954,0.289410
00860,140419,0.594677,-0.379346,9.800671,-0.008189,0.012771,-0.195662,-0.504001,0.470999,-0.452493,-1.251824,-2.080470,0.174839
00861,140519,0.472714,-0.260494,9.829990,0.008157,0.009598,-0.138707,-0.503975,0.470075,-0.454044,-1.245249,-2.077747,0.093472
00862,140619,0.494182,-0.394932,9.882843,0.001929,0.010512,-0.051805,-0.502413,0.466258,-0.458245,-1.242558,-2.072467,0.064425
00863,140719,0.333829,-0.239838,9.790373,-0.002128,0.005204,-0.004883,-0.501396,0.467785,-0.459168,-1.243281,-2.069322,0.062267
00864,140819,0.307442,-0.225701,9.774980,0.004941,0.002470,0.003205,-0.505405,0.469769,-0.457568,-1.240858,-2.068550,0.062574
00865,140919,0.321085,-0.251296,9.849143,0.012373,-0.002260,0.002852,-0.505479,0.470075,-0.453544,-1.235029,-2.071167,0.061903
00866,141019,0.324346,-0.255581,9.871840,0.005345,-0.004429,0.002301,-0.504988,0.471039,-0.452993,-1.233499,-2.075030,0.060658
00867,141119,0.330381,-0.241688,9.860300,-0.001846,-0.006516,0.000603,-0.504003,0.470002,-0.452544,-1.235922,-2.080009,0.059050
00868,141219,0.328046,-0.204645,9.781206,0.000206,-0.007353,0.001557,-0.503925,0.466732,-0.457220,-1.235656,-2.084680,0.060014
00869,141319,0.326661,-0.228240,9.800504,0.007850,-0.006582,0.002898,-0.503908,0.465784,-0.458271,-1.230666,-2.088716,0.062238
00870,141419,0.312072,-0.271504,9.863125,0.003839,-0.004158,0.001998,-0.505397,0.469295,-0.458093,-1.228669,-2.091618,0.062229
00871,141519,0.342420,-0.271560,9.850695,-0.003224,-0.003373,0.001775,-0.505476,0.471569,-0.453468,-1.232017,-2.094818,0.060501
00872,141619,0.334422,-0.232902,9.809540,-0.001352,0.000140,0.001013,-0.504499,0.471007,-0.452494,-1.234341,-2.096011,0.058576
00873,141719,0.338425,-0.208490,9.801465,0.004479,0.000518,0.002194,-0.501526,0.467448,-0.452171,-1.232720,-2.096572,0.059475
00874,141819,0.347119,-0.226201,9.866482,0.003624,0.000845,0.000737,-0.501929,0.468693,-0.457118,-1.230849,-2.096222,0.059819
00875,141919,0.339137,-0.256501,9.850012,-0.001968,0.003988,0.001427,-0.503377,0.468837,-0.459618,-1.231761,-2.093892,0.060440
00876,142019,0.339986,-0.230062,9.806387,-0.000868,-0.000465,0.003116,-0.504437,0.469183,-0.456094,-1.232824,-2.094824,0.061026
00877,142119,0.332170,-0.257114,9.799473,0.007225,0.000891,0.003453,-0.504010,0.470975,-0.451994,-1.230372,-2.095568,0.060568
00878,142219,0.325792,-0.267913,9.848668,0.008608,0.001213,0.005359,-0.505027,0.469946,-0.451045,-1.227175,-2.096422,0.061038
00879,142319,0.333182,-0.245778,9.853829,0.005076,0.000496,0.005816,-0.504992,0.468548,-0.453120,-1.225359,-2.097347,0.062641
00880,142419,0.336413,-0.222958,9.815535,0.000617,-0.001971,0.007869,-0.504405,0.466788,-0.458220,-1.224835,-2.098758,0.067220
00881,142519,0.333268,-0.210431,9.829967,0.003467,0.000934,0.007113,-0.502389,0.469296,-0.459092,-1.222942,-2.098056,0.071171
00882,142619,0.313724,-0.230981,9.833372,0.005238,0.000097,0.005492,-0.505940,0.469681,-0.455569,-1.220776,-2.098971,0.072343
00883,142719,0.332798,-0.271712,9.847692,0.001471,0.000727,0.003211,-0.504478,0.472550,-0.453417,-1.221636,-2.099655,0.071185
00884,142819,0.324373,-0.252050,9.829360,-0.001029,0.000838,0.001672,-0.502987,0.470533,-0.453518,-1.223489,-2.100049,0.070356
00885,142919,0.336020,-0.218600,9.788564,-0.000565,0.002061,0.001415,-0.506455,0.470637,-0.454519,-1.224927,-2.100121,0.068386
00886,143019,0.350140,-0.255270,9.820649,0.004939,0.001652,0.003249,-0.501424,0.467713,-0.457669,-1.222084,-2.099148,0.070823
00887,143119,0.320883,-0.250321,9.844225,0.001635,0.001979,0.001682,-0.505892,0.465839,-0.458771,-1.220604,-2.098529,0.071846
00888,143219,0.328201,-0.246977,9.822820,0.000087,0.002383,0.002207,-0.502409,0.468251,-0.458143,-1.220553,-2.097229,0.073168
00889,143319,0.344320,-0.235794,9.810585,0.001614,-0.001221,0.003480,-0.505496,0.471023,-0.452494,-1.221239,-2.099330,0.072273
00890,143419,0.323875,-0.241912,9.837336,0.002598,0.001866,0.001702,-0.504499,0.471007,-0.452494,-1.221310,-2.099528,0.070580
00891,143519,0.331555,-0.256065,9.851816,0.000755,0.000928,0.002757,-0.501964,0.470092,-0.455043,-1.221793,-2.099463,0.071101
00892,143619,0.347257,-0.243381,9.833188,-0.000832,0.001264,0.002580,-0.505879,0.467856,-0.459169,-1.222043,-2.099168,0.071945
00893,143719,0.335100,-0.222029,9.803399,0.001091,0.000646,0.000835,-0.501393,0.469280,-0.459092,-1.221389,-2.098572,0.072586
00894,143819,0.336945,-0.225078,9.809360,0.000432,0.001435,0.001326,-0.505381,0.467849,-0.459169,-1.220894,-2.098120,0.072869
00895,143919,0.331915,-0.248544,9.830675,0.003620,0.002704,0.002507,-0.504496,0.473000,-0.452392,-1.220770,-2.097835,0.070817
00896,144019,0.328675,-0.247070,9.818986,0.000643,0.001450,0.002621,-0.506010,0.471979,-0.451444,-1.222356,-2.098642,0.068544
00897,144119,0.337439,-0.233470,9.836037,-0.001964,0.002257,0.002230,-0.503442,0.468669,-0.456119,-1.223941,-2.097888,0.069062
00898,144219,0.331552,-0.212343,9.827651,0.001970,-0.000660,0.001703,-0.501432,0.468187,-0.457144,-1.222967,-2.098351,0.070348
00899,144319,0.323318,-0.214893,9.808720,0.005181,0.000815,0.002599,-0.501940,0.467673,-0.456669,-1.220182,-2.098115,0.072070
00900,144419,0.332772,-0.227144,9.835430,0.004776,0.001517,0.002786,-0.501920,0.468717,-0.457618,-1.217652,-2.097325,0.073591
00901,144519,0.334371,-0.226452,9.834800,0.000771,0.001976,0.002505,-0.503475,0.471064,-0.453993,-1.218506,-2.097065,0.072867
00902,144619,0.331938,-0.221263,9.806600,0.001322,0.000924,0.002129,-0.504029,0.470927,-0.450994,-1.219561,-2.097957,0.071290
00903,144719,0.333124,-0.218990,9.844698,0.001949,0.003105,0.001992,-0.500963,0.467110,-0.455695,-1.218689,-2.096434,0.073018
00904,144819,0.332625,-0.243729,9.827423,0.002490,0.001873,0.001916,-0.502426,0.469199,-0.457093,-1.217641,-2.095614,0.073579
00905,144919,0.320115,-0.234330,9.843217,0.002116,0.001110,0.001906,-0.503385,0.469810,-0.459067,-1.216569,-2.095068,0.073926
00906,145019,0.320107,-0.237538,9.846473,0.001257,-0.000789,0.002098,-0.504929,0.467720,-0.456670,-1.216080,-2.096212,0.074395
00907,145119,0.320307,-0.245897,9.818086,0.002773,-0.000461,0.005696,-0.504472,0.470581,-0.454019,-1.215774,-2.097454,0.075422
00908,145219,0.320657,-0.242266,9.845246,0.002167,-0.000773,0.005448,-0.504958,0.472108,-0.454442,-1.216001,-2.098875,0.075569
00909,145319,0.333810,-0.237164,9.823362,0.002894,-0.003279,0.004796,-0.503489,0.468548,-0.453620,-1.215306,-2.101658,0.077199
00910,145419,0.345195,-0.224823,9.833386,0.004162,0.001940,0.004856,-0.501903,0.467769,-0.458668,-1.212821,-2.100454,0.080512
00911,145519,0.326500,-0.231378,9.827760,0.003774,-0.000484,0.006797,-0.501904,0.467271,-0.458694,-1.210515,-2.100617,0.085147
00912,145619,0.341009,-0.223188,9.827248,0.001563,0.000909,0.009075,-0.504417,0.470227,-0.457043,-1.210356,-2.100572,0.088783
00913,145719,0.321481,-0.232952,9.824027,0.000892,0.000226,0.007931,-0.506988,0.472043,-0.452444,-1.211716,-2.102005,0.089467
00914,145819,0.302103,-0.234368,9.821360,0.001208,0.002245,0.005262,-0.500513,0.471442,-0.452467,-1.212662,-2.101365,0.090744
00915,145919,0.336876,-0.230531,9.837166,0.003964,0.003191,0.001675,-0.503479,0.469071,-0.454094,-1.211284,-2.100424,0.090354
00916,146019,0.330694,-0.231816,9.835495,0.000550,0.000505,0.002792,-0.501958,0.468123,-0.455644,-1.211426,-2.100553,0.091815
00917,146119,0.338630,-0.242087,9.824262,0.000744,0.001563,0.002173,-0.502423,0.471192,-0.456991,-1.211739,-2.099937,0.091621
00918,146219,0.336132,-0.232533,9.828342,0.000943,0.003423,0.001319,-0.504916,0.469737,-0.457068,-1.211682,-2.098624,0.090786
00919,146319,0.346062,-0.243222,9.815616,0.002305,0.002411,0.002762,-0.504997,0.471513,-0.452468,-1.212004,-2.098577,0.089165
00920,146419,0.322694,-0.254258,9.841427,-0.000464,-0.001881,0.001964,-0.507468,0.471601,-0.453469,-1.213752,-2.101189,0.086432
00921,146519,0.328605,-0.250337,9.816701,0.002796,0.002022,0.002490,-0.501942,0.466676,-0.456720,-1.212161,-2.100296,0.088667
00922,146619,0.326661,-0.213716,9.848461,0.001997,0.000809,0.003705,-0.502468,0.466612,-0.455221,-1.211319,-2.100386,0.091152
00923,146719,0.327993,-0.233170,9.834324,0.002603,0.001133,0.003011,-0.502398,0.469770,-0.458567,-1.210066,-2.099774,0.092335
00924,146819,0.328296,-0.243230,9.821442,0.001057,0.001292,0.007082,-0.506419,0.470235,-0.456543,-1.210262,-2.099904,0.094041
00925,146919,0.337429,-0.216716,9.802160,0.002248,0.000519,0.008283,-0.504490,0.471031,-0.452993,-1.210540,-2.100718,0.096038
00926,147019,0.311475,-0.254983,9.835649,0.001290,0.003003,0.006740,-0.502517,0.470453,-0.452019,-1.211385,-2.099995,0.097835
00927,147119,0.325052,-0.228587,9.835021,0.000883,0.001801,0.002733,-0.504925,0.469713,-0.456568,-1.211470,-2.099675,0.097711
00928,147219,0.333774,-0.242729,9.827469,0.000279,0.002032,0.001650,-0.501929,0.468693,-0.457118,-1.211577,-2.098733,0.098546
00929,147319,0.337092,-0.223495,9.829677,-0.000605,0.001119,0.000705,-0.503419,0.466250,-0.457745,-1.211663,-2.098453,0.099660
00930,147419,0.345887,-0.243069,9.834408,0.001964,0.001398,0.001416,-0.504447,0.469159,-0.455594,-1.211181,-2.098459,0.099058
00931,147519,0.326032,-0.243207,9.823158,0.000753,0.000775,0.002276,-0.504010,0.470975,-0.451994,-1.212345,-2.099275,0.097604
00932,147619,0.316085,-0.247449,9.839176,0.001862,0.001370,0.001784,-0.504986,0.472534,-0.452917,-1.212974,-2.099745,0.094912
00933,147719,0.351437,-0.238218,9.845654,0.000885,0.001350,0.002231,-0.503964,0.471096,-0.454493,-1.213639,-2.099847,0.093736
00934,147819,0.335367,-0.229102,9.819851,0.002147,0.000880,0.002440,-0.504419,0.469231,-0.457093,-1.212817,-2.099904,0.093940
00935,147919,0.338015,-0.211836,9.821784,0.003474,0.001343,0.002876,-0.502414,0.470718,-0.457516,-1.211404,-2.099346,0.094349
00936,148019,0.333375,-0.233404,9.817039,0.001851,0.001843,0.003596,-0.505452,0.469151,-0.455095,-1.211129,-2.099281,0.094532
00937,148119,0.331048,-0.240839,9.827844,0.000940,0.001804,0.002783,-0.505982,0.472549,-0.452918,-1.212317,-2.099624,0.091870
00938,148219,0.330600,-0.227125,9.801702,0.001003,0.001955,0.001991,-0.504978,0.471561,-0.453468,-1.213177,-2.099669,0.089630
00939,148319,0.340540,-0.236155,9.828254,0.000534,0.000769,0.002466,-0.503987,0.468556,-0.453620,-1.213767,-2.100239,0.089738
00940,148419,0.311777,-0.228156,9.834141,0.002702,0.001829,0.001896,-0.502426,0.469199,-0.457093,-1.212590,-2.099487,0.090328
00941,148519,0.327524,-0.229098,9.836578,-0.000757,0.000226,0.003546,-0.503413,0.464281,-0.458347,-1.212390,-2.099611,0.094553
00942,148619,0.331180,-0.222331,9.819804,0.001158,0.001575,0.001709,-0.503935,0.471666,-0.455967,-1.212724,-2.099365,0.092960
00943,148719,0.345711,-0.237350,9.803780,0.000747,0.003983,0.003152,-0.506041,0.470412,-0.450021,-1.214168,-2.098883,0.091028
00944,148819,0.342070,-0.249323,9.826000,0.001199,0.003519,0.001089,-0.504500,0.470509,-0.452519,-1.214876,-2.098113,0.088802
00945,148919,0.336495,-0.240279,9.823148,0.001515,0.001475,0.001991,-0.502994,0.472004,-0.452942,-1.215583,-2.098225,0.086848
00946,149019,0.349174,-0.215481,9.831162,0.001917,0.002918,0.001681,-0.500437,0.467673,-0.457169,-1.214560,-2.096586,0.089007
00947,149119,0.325729,-0.228319,9.822834,0.001443,0.003080,0.001746,-0.502392,0.467801,-0.459168,-1.213513,-2.094835,0.090689
00948,149219,0.312111,-0.245354,9.832745,0.002173,0.001463,0.001950,-0.502942,0.469657,-0.456068,-1.212914,-2.094519,0.090654
00949,149319,0.329710,-0.231010,9.837335,0.002324,0.001528,0.001031,-0.505999,0.472999,-0.451893,-1.213523,-2.095177,0.086340
00950,149419,0.330951,-0.228969,9.832606,0.002137,0.000537,0.001048,-0.504989,0.470541,-0.453019,-1.213624,-2.096107,0.083937
00951,149519,0.340962,-0.231671,9.815614,0.001688,0.001773,0.002815,-0.503969,0.468106,-0.454645,-1.213318,-2.095950,0.084674
00952,149619,0.339065,-0.223220,9.818551,0.002229,0.000498,0.001581,-0.502930,0.466218,-0.457246,-1.211902,-2.096038,0.086735
00953,149719,0.332302,-0.231651,9.828213,0.000731,0.001646,0.002077,-0.503460,0.469119,-0.455094,-1.212219,-2.095824,0.086707
00954,149819,0.338102,-0.239898,9.800913,0.002642,-0.000946,0.003074,-0.504887,0.470806,-0.458517,-1.211172,-2.096778,0.086383
00955,149919,0.329512,-0.239810,9.801969,0.000134,0.001782,0.002133,-0.505010,0.468998,-0.452096,-1.212346,-2.097118,0.085336
00956,150019,0.331836,-0.233772,9.830393,0.002901,-0.001354,0.001473,-0.503488,0.469047,-0.453594,-1.211655,-2.098839,0.084761
00957,150119,0.335190,-0.228463,9.828887,0.002792,-0.000013,0.002678,-0.504434,0.471176,-0.455992,-1.211003,-2.099551,0.083648
00958,150219,0.328825,-0.232702,9.830044,0.000823,0.002032,0.002635,-0.504349,0.466932,-0.461219,-1.209875,-2.098369,0.086085
00959,150319,0.324705,-0.221810,9.809643,0.000282,0.003271,0.002895,-0.503924,0.467230,-0.457195,-1.209806,-2.096986,0.087854
00960,150419,0.340607,-0.224477,9.820206,0.002439,0.002660,0.003533,-0.504426,0.470701,-0.456518,-1.209213,-2.096093,0.087608
00961,150519,0.340579,-0.217611,9.848598,0.001569,0.000686,0.003350,-0.506972,0.470597,-0.453520,-1.209637,-2.097094,0.085861
00962,150619,0.327239,-0.255012,9.831742,0.001778,0.000846,0.002067,-0.505521,0.472445,-0.450918,-1.210646,-2.098173,0.082214
00963,150719,0.349072,-0.256254,9.815927,0.001508,0.000109,0.002317,-0.502508,0.469979,-0.452544,-1.211095,-2.099053,0.081679
00964,150819,0.335412,-0.246210,9.827639,-0.000142,0.000667,0.003393,-0.504441,0.467190,-0.456196,-1.211443,-2.099361,0.083499
00965,150919,0.343006,-0.234727,9.826411,0.001447,-0.000395,0.001843,-0.501930,0.468195,-0.457144,-1.210826,-2.099826,0.084946
00966,151019,0.330224,-0.227005,9.835067,0.001500,0.000403,0.001653,-0.502444,0.469649,-0.456068,-1.210606,-2.100045,0.084930
00967,151119,0.332033,-0.229755,9.836721,0.000399,0.003112,0.002519,-0.503505,0.469995,-0.452544,-1.211702,-2.099332,0.084102
00968,151219,0.327091,-0.244554,9.825712,0.002106,0.001786,0.002501,-0.504489,0.471529,-0.452968,-1.212011,-2.099437,0.081985
00969,151319,0.343973,-0.235778,9.826924,0.003445,-0.001378,0.001470,-0.501496,0.468517,-0.453619,-1.210891,-2.100900,0.082560
00970,151419,0.338738,-0.233666,9.814606,0.001366,0.001279,0.003331,-0.502436,0.469175,-0.456593,-1.210615,-2.100525,0.083911
00971,151519,0.326792,-0.225008,9.817694,0.003604,0.000096,0.003063,-0.504431,0.467712,-0.456670,-1.208826,-2.101091,0.085277
00972,151619,0.323514,-0.231305,9.815409,0.001232,0.000355,0.002606,-0.505889,0.472292,-0.457941,-1.208939,-2.101500,0.083124
00973,151719,0.336363,-0.231621,9.828942,0.002094,0.001456,0.002990,-0.502017,0.471442,-0.451968,-1.209389,-2.101600,0.082093
00974,151819,0.332580,-0.248494,9.839772,0.001003,0.001922,0.002402,-0.504010,0.470975,-0.451994,-1.210395,-2.101696,0.080203
00975,151919,0.329874,-0.250286,9.829013,0.002251,0.000950,0.002092,-0.503937,0.470670,-0.456017,-1.209948,-2.101789,0.079099
00976,152019,0.334455,-0.238898,9.817737,0.001825,0.001991,0.001545,-0.501899,0.470260,-0.458541,-1.209216,-2.100689,0.079270
00977,152119,0.345747,-0.225001,9.805827,0.001617,0.001852,0.000631,-0.500911,0.470718,-0.458016,-1.208741,-2.099625,0.078911
00978,152219,0.351090,-0.241980,9.829595,0.001924,0.003348,0.001443,-0.503942,0.467680,-0.456170,-1.207965,-2.098360,0.079452
00979,152319,0.341816,-0.231413,9.842190,0.000246,0.001259,0.002398,-0.504496,0.473000,-0.452392,-1.209677,-2.098834,0.076016
00980,152419,0.342391,-0.233971,9.830156,0.000513,0.001529,0.003496,-0.504970,0.470589,-0.454019,-1.210596,-2.098990,0.074884
00981,152519,0.336117,-0.219324,9.829777,0.002713,0.001493,0.003043,-0.502936,0.468187,-0.456644,-1.209386,-2.098573,0.076587
00982,152619,0.330176,-0.257815,9.818829,0.003374,0.001558,0.003505,-0.501442,0.467665,-0.456669,-1.207706,-2.097926,0.079565
00983,152719,0.329916,-0.259310,9.822915,0.002356,0.000372,0.001373,-0.502906,0.469255,-0.458093,-1.206610,-2.097966,0.079799
00984,152819,0.348587,-0.238222,9.821742,0.002416,0.001109,0.003115,-0.502953,0.469135,-0.455594,-1.205919,-2.097911,0.080624
00985,152919,0.324444,-0.235560,9.809517,0.000565,0.002461,0.000261,-0.505995,0.470034,-0.452545,-1.206923,-2.097909,0.077333
00986,153019,0.332208,-0.239352,9.842189,0.004218,0.001865,0.001429,-0.504463,0.470605,-0.454518,-1.205606,-2.097766,0.075282
00987,153119,0.345939,-0.237641,9.816812,0.001078,0.001682,0.001293,-0.506430,0.469214,-0.456094,-1.205625,-2.097773,0.073551
00988,153219,0.340190,-0.229350,9.820239,0.001023,0.001653,0.000040,-0.505401,0.466804,-0.458220,-1.204893,-2.097411,0.073692
00989,153319,0.326036,-0.245272,9.835745,0.000843,0.000322,0.002836,-0.502387,0.470292,-0.459041,-1.204714,-2.097264,0.074397
00990,153419,0.345271,-0.229491,9.823500,0.000812,0.002251,0.002921,-0.505436,0.467704,-0.456170,-1.204658,-2.096799,0.075136
00991,153519,0.339345,-0.228939,9.841087,-0.000555,0.001621,-0.000001,-0.503999,0.471995,-0.452443,-1.206612,-2.097019,0.071083
00992,153619,0.349421,-0.251280,9.815749,0.000209,0.001146,0.001908,-0.503971,0.472068,-0.453942,-1.207929,-2.097279,0.068299
00993,153719,0.331598,-0.246810,9.830389,0.001733,0.000978,0.000305,-0.503461,0.468621,-0.455119,-1.207583,-2.097455,0.067581
00994,153819,0.343795,-0.237917,9.837049,0.003084,0.001038,0.001215,-0.500907,0.467753,-0.458668,-1.205722,-2.096804,0.069847
00995,153919,0.343296,-0.224794,9.836704,0.002966,0.001582,0.002097,-0.502927,0.467713,-0.457169,-1.204227,-2.096282,0.071388
00996,154019,0.329093,-0.228814,9.831224,0.000488,0.001932,0.002331,-0.504926,0.469215,-0.456594,-1.204521,-2.095873,0.070989
00997,154119,0.333404,-0.223656,9.812560,0.000768,0.001054,0.001885,-0.505522,0.466491,-0.451723,-1.205025,-2.096710,0.071152
00998,154219,0.330767,-0.225407,9.814149,0.002227,0.001852,0.001548,-0.504997,0.471015,-0.452494,-1.205270,-2.096896,0.068242
00999,154319,0.316506,-0.242521,9.849063,0.001191,0.000969,0.000567,-0.500500,0.468501,-0.453619,-1.205442,-2.096905,0.068769
01000,154419,0.335338,-0.243414,9.849410,0.001150,0.001958,0.002323,-0.502931,0.470678,-0.456517,-1.205575,-2.096229,0.068156
01001,154519,0.338155,-0.254692,9.810732,0.000245,0.002273,0.001124,-0.502922,0.465245,-0.457796,-1.205133,-2.095252,0.071026
01002,154619,0.342174,-0.245627,9.809066,0.001452,-0.000662,0.001172,-0.503455,0.471610,-0.454967,-1.205483,-2.096354,0.068652
01003,154719,0.331435,-0.260622,9.806357,0.001414,-0.002464,0.002955,-0.505459,0.470621,-0.454519,-1.205835,-2.098773,0.067060
01004,154819,0.335582,-0.241254,9.811467,0.001952,0.002093,0.002468,-0.503498,0.468524,-0.453120,-1.205741,-2.098544,0.067225
01005,154919,0.311986,-0.232528,9.822108,0.001064,0.000254,0.001725,-0.501956,0.469119,-0.455593,-1.205806,-2.098855,0.067690
01006,155019,0.329190,-0.231644,9.829857,0.000475,0.001205,0.001106,-0.503427,0.466724,-0.457220,-1.205573,-2.098607,0.069161
01007,155119,0.327970,-0.238522,9.818483,0.000378,-0.000060,0.001564,-0.503892,0.469793,-0.458567,-1.205678,-2.098936,0.068750
01008,155219,0.327243,-0.239698,9.835380,-0.000471,0.000394,0.002503,-0.506925,0.471215,-0.455993,-1.206972,-2.099692,0.066125
01009,155319,0.331838,-0.248653,9.828797,-0.000358,0.002158,0.000283,-0.505502,0.467535,-0.452672,-1.208100,-2.099746,0.064811
01010,155419,0.317593,-0.215551,9.818081,0.000921,0.001660,0.000478,-0.502019,0.470445,-0.452019,-1.209012,-2.099724,0.062903
01011,155519,0.324556,-0.216742,9.829923,0.000889,0.000981,0.002273,-0.504929,0.467720,-0.456670,-1.208834,-2.099828,0.063599
01012,155619,0.318394,-0.248457,9.822664,-0.000260,0.002333,0.000346,-0.502438,0.467681,-0.456669,-1.209235,-2.098878,0.064287
01013,155719,0.361827,-0.232987,9.828531,0.003018,0.001117,0.001770,-0.503422,0.469713,-0.457068,-1.208061,-2.098664,0.063963
01014,155819,0.320940,-0.231162,9.824480,0.001121,0.000201,0.002681,-0.503487,0.469545,-0.453569,-1.208534,-2.099429,0.063632
01015,155919,0.317826,-0.237383,9.833950,0.001411,0.003035,0.003200,-0.504484,0.469062,-0.453595,-1.208787,-2.098684,0.063480
01016,156019,0.333324,-0.244791,9.816021,0.001383,-0.000825,0.001809,-0.504481,0.471055,-0.453493,-1.209352,-2.100162,0.061118
01017,156119,0.333373,-0.232364,9.820899,0.003074,-0.000378,0.002085,-0.504993,0.468050,-0.453146,-1.208551,-2.101503,0.060794
01018,156219,0.335346,-0.234461,9.810615,0.002402,0.002393,0.002629,-0.502411,0.467255,-0.458194,-1.207169,-2.100291,0.063416
01019,156319,0.322022,-0.221487,9.828738,0.001111,0.001373,0.001807,-0.503922,0.468226,-0.457144,-1.206858,-2.099983,0.063974
01020,156419,0.332954,-0.246928,9.820494,0.000943,0.000998,0.001620,-0.504441,0.472148,-0.455442,-1.207529,-2.100152,0.061076
01021,156519,0.332668,-0.243103,9.827142,-0.000601,-0.000007,0.003169,-0.504971,0.470091,-0.454044,-1.209029,-2.101130,0.060048
01022,156619,0.327991,-0.245535,9.807669,0.002832,0.001103,0.001084,-0.501484,0.470036,-0.454043,-1.208460,-2.101081,0.059394
01023,156719,0.333613,-0.234524,9.824148,0.002302,0.000312,0.001906,-0.502965,0.467118,-0.455196,-1.207598,-2.101521,0.060941
01024,156819,0.332766,-0.249218,9.827580,0.002379,-0.000506,0.001513,-0.502942,0.469657,-0.456068,-1.206939,-2.102300,0.060547
01025,156919,0.341059,-0.235814,9.844293,0.001829,0.002989,0.000325,-0.503921,0.469223,-0.457093,-1.206356,-2.101079,0.059488
01026,157019,0.319402,-0.233802,9.813120,-0.000162,0.001467,0.000398,-0.504471,0.471079,-0.453993,-1.207708,-2.101181,0.056322
01027,157119,0.328310,-0.241880,9.817233,0.000887,0.000444,0.000083,-0.503953,0.472116,-0.454942,-1.208451,-2.101677,0.052571
01028,157219,0.326255,-0.235921,9.824739,0.001772,0.001467,0.002077,-0.505017,0.470469,-0.451519,-1.209041,-2.102136,0.050031
01029,157319,0.339372,-0.238135,9.847095,0.001217,0.000313,0.001552,-0.501438,0.470156,-0.456542,-1.209026,-2.102199,0.050061
01030,157419,0.330478,-0.217629,9.831226,0.001769,0.002359,0.002530,-0.501896,0.466298,-0.459244,-1.207697,-2.100817,0.053916
01031,157519,0.333604,-0.228105,9.820418,0.000701,0.001865,0.001313,-0.503920,0.469721,-0.457068,-1.207866,-2.100224,0.053038
01032,157619,0.336012,-0.226071,9.806525,0.001116,0.002195,0.002301,-0.502441,0.471144,-0.455992,-1.208186,-2.099389,0.052120
01033,157719,0.338083,-0.219268,9.820781,0.003101,0.003726,0.001898,-0.502976,0.471554,-0.453967,-1.207756,-2.098004,0.050003
01034,157819,0.339119,-0.207197,9.824639,0.001941,0.002150,0.002845,-0.503004,0.471481,-0.452468,-1.208238,-2.097706,0.048194
01035,157919,0.347423,-0.239047,9.827512,0.001598,0.002142,0.002170,-0.504468,0.467616,-0.454671,-1.207982,-2.097336,0.048716
01036,158019,0.335988,-0.232826,9.822095,0.000078,0.000416,0.001121,-0.501890,0.469786,-0.459067,-1.208166,-2.097094,0.048995
01037,158119,0.332899,-0.253169,9.801917,0.002412,0.001275,0.001786,-0.502444,0.469649,-0.456068,-1.207497,-2.096800,0.048932
01038,158219,0.342342,-0.246965,9.819122,0.002897,-0.000837,0.002416,-0.501945,0.470140,-0.456042,-1.206636,-2.097650,0.049106
01039,158319,0.350203,-0.228155,9.843318,0.000550,0.001975,0.001999,-0.503954,0.471120,-0.454993,-1.207457,-2.097254,0.047075
01040,158419,0.332895,-0.234046,9.817612,0.001397,0.002773,0.003264,-0.503469,0.469095,-0.454594,-1.207567,-2.096395,0.047513
01041,158519,0.339853,-0.231434,9.832967,0.001354,0.002901,0.001426,-0.501978,0.467078,-0.454695,-1.207318,-2.095316,0.049259
01042,158619,0.336177,-0.220456,9.803286,0.000627,0.001401,0.001680,-0.503427,0.466724,-0.457220,-1.207064,-2.094941,0.051130
01043,158719,0.334434,-0.245209,9.821049,-0.000601,0.002666,0.001172,-0.500433,0.469666,-0.457067,-1.207926,-2.093505,0.051795
01044,158819,0.342525,-0.250609,9.838920,0.001584,-0.001373,0.001139,-0.502934,0.469183,-0.456593,-1.207582,-2.094731,0.051590
01045,158919,0.334529,-0.234559,9.830175,0.001496,0.001540,0.002982,-0.504941,0.471160,-0.455492,-1.207827,-2.094625,0.049792
01046,159019,0.324139,-0.256389,9.845568,0.000552,0.000256,0.001671,-0.501452,0.467143,-0.456195,-1.207817,-2.094804,0.052084
01047,159119,0.323048,-0.250721,9.836522,0.001859,0.000506,0.001397,-0.503409,0.471730,-0.457466,-1.207576,-2.094877,0.050011
01048,159219,0.331659,-0.233540,9.815110,0.003415,0.001878,0.002096,-0.502914,0.469729,-0.457567,-1.206139,-2.094101,0.050054
01049,159319,0.322572,-0.225151,9.833443,0.001405,0.002421,0.002249,-0.503380,0.467343,-0.459694,-1.205180,-2.092810,0.052128
01050,159419,0.332851,-0.252774,9.816857,0.002686,0.002357,0.001801,-0.502924,0.469705,-0.457068,-1.204240,-2.091832,0.051900
01051,159519,0.338222,-0.265420,9.840617,0.000494,0.001648,0.000502,-0.504495,0.473498,-0.452367,-1.205849,-2.092029,0.046599
01052,159619,0.340948,-0.233531,9.807707,0.001646,0.002919,0.001805,-0.505451,0.469649,-0.455069,-1.205851,-2.091266,0.044847
01053,159719,0.336762,-0.232784,9.835451,0.001080,0.002218,0.001937,-0.500986,0.470027,-0.454043,-1.206321,-2.090528,0.044878
01054,159819,0.328755,-0.241280,9.816174,0.002467,0.000947,0.001189,-0.504438,0.468684,-0.456119,-1.205520,-2.090661,0.044201
01055,159919,0.317993,-0.227891,9.833093,0.002013,-0.000440,0.001536,-0.504411,0.468258,-0.457644,-1.204687,-2.091389,0.044345
01056,160019,0.338030,-0.223531,9.800770,0.001070,0.000354,0.000406,-0.503948,0.469649,-0.455569,-1.204893,-2.091874,0.042616
01057,160119,0.323622,-0.239115,9.818083,-0.001027,0.000834,0.001695,-0.505986,0.470058,-0.453045,-1.206812,-2.092606,0.039885
01058,160219,0.329160,-0.243591,9.821778,-0.000151,0.003112,0.002131,-0.505484,0.472542,-0.452918,-1.208617,-2.091969,0.035557
01059,160319,0.339919,-0.227708,9.813730,0.000756,0.001680,0.000760,-0.504513,0.468492,-0.452121,-1.209378,-2.092180,0.034058
01060,160419,0.332510,-0.242878,9.829035,-0.000058,0.001390,0.002692,-0.501928,0.469192,-0.457093,-1.209928,-2.091627,0.035316
01061,160519,0.327959,-0.227136,9.824869,0.000676,0.001599,0.002222,-0.504400,0.469279,-0.458093,-1.209950,-2.091109,0.035099
01062,160619,0.337690,-0.241864,9.830427,0.003195,0.001419,0.001347,-0.504454,0.470131,-0.455044,-1.209117,-2.091082,0.033107
01063,160719,0.319843,-0.234220,9.817145,0.002429,0.000820,0.002378,-0.504023,0.468958,-0.451595,-1.209100,-2.091770,0.032313
01064,160819,0.320702,-0.239713,9.824393,0.002010,0.000668,0.002947,-0.504504,0.468017,-0.452646,-1.209040,-2.092464,0.032563
01065,160919,0.336297,-0.234257,9.809304,0.000093,0.000638,0.002256,-0.501466,0.470084,-0.455043,-1.209941,-2.092541,0.032727
01066,161019,0.332469,-0.244256,9.819036,0.001234,-0.001635,0.002055,-0.501954,0.470116,-0.455543,-1.210118,-2.093911,0.032612
01067,161119,0.335354,-0.242175,9.827318,0.000508,0.000927,0.001415,-0.500455,0.467625,-0.456169,-1.210203,-2.093597,0.035121
01068,161219,0.342984,-0.242340,9.817802,0.000214,0.002828,0.002607,-0.504436,0.469681,-0.456069,-1.210874,-2.092614,0.034417
01069,161319,0.336404,-0.232555,9.816800,0.002318,0.001048,0.001124,-0.503448,0.470638,-0.455518,-1.210520,-2.092623,0.032506
01070,161419,0.340590,-0.214609,9.846515,0.001705,0.002812,0.001496,-0.503965,0.470597,-0.454518,-1.210683,-2.091798,0.030356
01071,161519,0.326041,-0.229537,9.827507,0.001068,0.003016,0.002776,-0.504975,0.468098,-0.454146,-1.210946,-2.091011,0.030419
01072,161619,0.322986,-0.235351,9.812705,0.001500,0.001744,0.002650,-0.505430,0.471192,-0.455992,-1.211139,-2.090757,0.027865
01073,161719,0.324259,-0.220705,9.827548,0.003054,0.001358,0.001200,-0.503900,0.470766,-0.458017,-1.210012,-2.090331,0.025972
01074,161819,0.329130,-0.221724,9.818595,0.001013,0.002650,0.001835,-0.503959,0.473587,-0.454365,-1.211049,-2.089589,0.021259
01075,161919,0.330544,-0.240876,9.826115,0.000746,0.001411,0.001748,-0.502554,0.470357,-0.450019,-1.212404,-2.089953,0.019397
01076,162019,0.321767,-0.242624,9.833300,0.002871,0.001253,0.000824,-0.505949,0.470155,-0.455044,-1.211783,-2.090172,0.016007
01077,162119,0.327037,-0.232674,9.821299,0.001959,0.004491,0.001551,-0.503919,0.470219,-0.457042,-1.211363,-2.088073,0.014459
01078,162219,0.343341,-0.240751,9.825768,0.000027,0.001291,0.001724,-0.503916,0.466756,-0.457720,-1.211435,-2.087753,0.016438
01079,162319,0.333379,-0.236250,9.827465,0.001991,0.002546,0.001829,-0.502397,0.470268,-0.458541,-1.210754,-2.086426,0.016206
01080,162419,0.341880,-0.260677,9.826261,0.002932,0.001401,0.001962,-0.506457,0.469640,-0.454570,-1.210143,-2.086664,0.013502
01081,162519,0.342642,-0.237916,9.818395,0.004520,0.001524,0.002896,-0.506941,0.472662,-0.454917,-1.209051,-2.086802,0.008175
01082,162619,0.326056,-0.240934,9.823998,0.002007,0.000064,0.001948,-0.503472,0.472558,-0.453917,-1.209451,-2.087538,0.004236
01083,162719,0.332513,-0.241907,9.823915,0.001124,0.000508,0.002003,-0.503456,0.471112,-0.454992,-1.209974,-2.087900,0.001905
01084,162819,0.335525,-0.229524,9.814635,0.002008,0.000482,0.001231,-0.504423,0.466740,-0.457221,-1.208995,-2.088166,0.003329
01085,162919,0.323933,-0.223688,9.825472,0.000977,0.001530,0.002477,-0.504418,0.469729,-0.457068,-1.209105,-2.087804,0.002380
01086,163019,0.323692,-0.229988,9.804927,0.000664,0.002484,0.000166,-0.504439,0.468186,-0.456145,-1.209263,-2.087049,0.001469
01087,163119,0.333444,-0.236621,9.813593,0.002295,0.000630,0.001275,-0.505453,0.468652,-0.455120,-1.208763,-2.087560,-0.000120
01088,163219,0.330989,-0.234984,9.834185,0.001711,0.000678,0.003397,-0.501950,0.467649,-0.456169,-1.208255,-2.087546,0.003065
01089,163319,0.336343,-0.228548,9.832606,0.001062,0.001508,0.002614,-0.500989,0.468533,-0.454119,-1.208531,-2.087199,0.005133
01090,163419,0.333282,-0.254950,9.823514,0.002182,0.002211,0.001954,-0.506918,0.469744,-0.456569,-1.208083,-2.086768,0.002166
01091,163519,0.320471,-0.246285,9.826518,0.002798,0.002222,0.002853,-0.506419,0.470235,-0.456543,-1.207372,-2.086265,-0.000522
01092,163619,0.335352,-0.241892,9.839245,0.002088,-0.000175,0.003267,-0.505922,0.469729,-0.456569,-1.206988,-2.087078,-0.002149
01093,163719,0.347298,-0.230296,9.848283,0.002780,0.000344,0.000869,-0.506474,0.470589,-0.453519,-1.206772,-2.088022,-0.007012
01094,163819,0.317885,-0.231088,9.827507,0.002571,0.002479,0.001438,-0.502472,0.469577,-0.454568,-1.206288,-2.087220,-0.007601
01095,163919,0.333841,-0.238924,9.834406,-0.000483,0.002328,0.002771,-0.502962,0.469111,-0.455094,-1.207440,-2.086483,-0.007171
01096,164019,0.345448,-0.235836,9.822053,0.001193,0.002911,0.002063,-0.503450,0.469641,-0.455568,-1.207634,-2.085410,-0.007985
01097,164119,0.340495,-0.222324,9.847204,0.001886,0.001357,0.000965,-0.502940,0.471152,-0.455992,-1.207557,-2.085126,-0.010592
01098,164219,0.322632,-0.238059,9.819429,0.001249,0.002007,0.003652,-0.504419,0.469231,-0.457093,-1.207480,-2.084479,-0.010484
01099,164319,0.339214,-0.226240,9.819044,0.000296,0.000678,0.004094,-0.505965,0.471103,-0.453994,-1.208749,-2.085076,-0.013793
01100,164419,0.331422,-0.235886,9.810337,0.001995,0.000146,0.001736,-0.504988,0.471039,-0.452993,-1.209119,-2.086018,-0.017945
01101,164519,0.336939,-0.229210,9.828116,0.000823,0.000187,0.002796,-0.502945,0.468163,-0.456144,-1.209212,-2.086396,-0.016149
01102,164619,0.318209,-0.248912,9.841680,0.002312,0.001447,0.002344,-0.500881,0.471787,-0.459465,-1.208425,-2.085437,-0.016578
01103,164719,0.329806,-0.223133,9.806399,0.002350,0.000992,0.003024,-0.504421,0.468234,-0.457144,-1.207547,-2.085383,-0.015723
01104,164819,0.317925,-0.232192,9.828160,-0.000128,-0.000993,0.000863,-0.502460,0.471096,-0.454992,-1.208753,-2.086508,-0.018181
01105,164919,0.338608,-0.233707,9.824141,0.000837,0.000701,0.001370,-0.504997,0.471513,-0.452468,-1.209929,-2.087182,-0.023242
01106,165019,0.332113,-0.236686,9.846014,0.002304,0.001861,0.001361,-0.503488,0.469047,-0.453594,-1.209687,-2.086944,-0.024171
01107,165119,0.330484,-0.232952,9.840064,0.001289,0.002022,0.001837,-0.504933,0.470685,-0.456018,-1.209942,-2.086455,-0.027461
01108,165219,0.333719,-0.237201,9.819060,0.000572,0.002777,0.001601,-0.503910,0.470243,-0.457542,-1.210277,-2.085273,-0.029326
01109,165319,0.343441,-0.247135,9.827691,0.002735,0.001532,0.002979,-0.504936,0.469191,-0.456094,-1.209498,-2.085061,-0.030253
01110,165419,0.336218,-0.234922,9.832260,0.002437,0.003600,0.001813,-0.503931,0.468701,-0.456619,-1.208688,-2.083534,-0.030391
01111,165519,0.328641,-0.222667,9.828461,0.003180,0.001904,0.002207,-0.503965,0.470099,-0.454543,-1.207998,-2.083191,-0.032374
01112,165619,0.322676,-0.237675,9.832641,0.003429,0.002500,0.001723,-0.504463,0.470605,-0.454518,-1.207252,-2.082555,-0.035710
01113,165719,0.321859,-0.236822,9.802529,0.002240,0.000319,0.002130,-0.501960,0.467126,-0.455695,-1.206427,-2.082842,-0.032216
01114,165819,0.338537,-0.246893,9.824225,0.000055,0.001665,0.000885,-0.501367,0.468356,-0.460642,-1.206236,-2.081750,-0.029658
01115,165919,0.340040,-0.236771,9.826026,0.002461,0.000496,0.003023,-0.503943,0.467182,-0.456195,-1.205296,-2.082054,-0.027417
01116,166019,0.323791,-0.236956,9.856370,0.001001,0.001003,0.003086,-0.503430,0.470187,-0.456542,-1.205574,-2.081942,-0.028198
01117,166119,0.323103,-0.243077,9.834215,0.001732,0.000813,0.003088,-0.504000,0.471497,-0.452468,-1.206265,-2.082431,-0.031660
01118,166219,0.322483,-0.244757,9.822735,0.000944,0.000747,0.000924,-0.504954,0.469143,-0.455094,-1.206637,-2.082804,-0.033956
01119,166319,0.333076,-0.236232,9.812564,0.001221,0.003033,0.000573,-0.506421,0.468740,-0.456620,-1.206590,-2.081847,-0.036972
01120,166419,0.334692,-0.226686,9.823783,0.001729,-0.000178,0.002762,-0.502914,0.469729,-0.457567,-1.206207,-2.082256,-0.036810
01121,166519,0.328505,-0.227743,9.836268,0.000795,0.002748,0.001833,-0.501907,0.470734,-0.458016,-1.206394,-2.080846,-0.037530
01122,166619,0.345264,-0.229043,9.824965,-0.000599,0.002565,0.000455,-0.503972,0.471570,-0.453968,-1.208150,-2.080185,-0.042482
01123,166719,0.326812,-0.236910,9.829346,-0.000741,0.002966,0.002850,-0.503475,0.471064,-0.453993,-1.209944,-2.079221,-0.045066
01124,166819,0.327140,-0.228224,9.839079,0.001754,0.001000,0.003765,-0.504486,0.468066,-0.453646,-1.209963,-2.079542,-0.044303
01125,166919,0.332932,-0.239219,9.825020,0.000377,-0.000976,0.001663,-0.503934,0.466708,-0.456721,-1.210034,-2.080650,-0.041983
01126,167019,0.323323,-0.235603,9.819068,0.000613,0.000594,0.002415,-0.503454,0.467150,-0.455695,-1.210198,-2.080908,-0.039599
01127,167119,0.311633,-0.245896,9.828111,0.002450,0.003164,0.002388,-0.503904,0.468275,-0.458144,-1.209119,-2.079453,-0.038662
01128,167219,0.327601,-0.244805,9.840423,0.002077,0.001948,0.002484,-0.504447,0.468660,-0.455620,-1.208719,-2.079015,-0.039018
01129,167319,0.319479,-0.226032,9.826164,0.000515,-0.001176,0.000340,-0.502437,0.473635,-0.455864,-1.209806,-2.080115,-0.044868
01130,167419,0.325264,-0.225417,9.829088,0.000091,0.001035,0.001475,-0.503463,0.467624,-0.455170,-1.210407,-2.080180,-0.043711
01131,167519,0.335205,-0.225676,9.819306,0.001402,-0.000063,0.002648,-0.503425,0.467721,-0.457169,-1.209990,-2.080636,-0.041642
01132,167619,0.328803,-0.224211,9.809879,0.001826,0.001174,0.001646,-0.503433,0.468693,-0.456619,-1.209539,-2.080442,-0.041474
01133,167719,0.327099,-0.243005,9.835634,0.003028,-0.000285,0.001601,-0.503430,0.470187,-0.456542,-1.208633,-2.081074,-0.043150
01134,167819,0.321413,-0.246959,9.818311,-0.000101,0.001216,0.003868,-0.504483,0.469560,-0.453570,-1.209951,-2.081245,-0.044144
01135,167919,0.312566,-0.230489,9.823113,0.002776,0.001188,0.001794,-0.504463,0.470605,-0.454518,-1.209589,-2.081336,-0.047465
01136,168019,0.332750,-0.229730,9.827606,0.002513,0.000824,0.000171,-0.505462,0.469126,-0.454595,-1.209145,-2.081754,-0.050779
01137,168119,0.351103,-0.235816,9.815103,0.001434,-0.000789,0.000788,-0.501984,0.469047,-0.454094,-1.209300,-2.082827,-0.050633
01138,168219,0.329579,-0.248225,9.829723,0.001393,0.002336,0.002752,-0.502406,0.470244,-0.458042,-1.209107,-2.081683,-0.050650
01139,168319,0.331289,-0.234090,9.828340,0.002514,0.000924,0.001779,-0.501937,0.469666,-0.456568,-1.208381,-2.081486,-0.050316
01140,168419,0.320855,-0.241439,9.846035,-0.000104,0.002141,0.003518,-0.502437,0.473635,-0.455864,-1.209888,-2.080642,-0.054509
01141,168519,0.328391,-0.248188,9.827375,0.001674,0.001878,0.002878,-0.504005,0.469006,-0.452595,-1.210229,-2.080507,-0.055186
01142,168619,0.330897,-0.239068,9.829624,0.002497,-0.000827,0.002232,-0.503432,0.469191,-0.456593,-1.209489,-2.081444,-0.055283
01143,168719,0.335404,-0.243536,9.803604,0.003375,0.000648,0.000857,-0.501940,0.467673,-0.456669,-1.207946,-2.081433,-0.052884
01144,168819,0.339927,-0.240364,9.829023,0.001987,-0.000094,0.002757,-0.505443,0.469175,-0.455594,-1.207721,-2.082229,-0.054634
01145,168919,0.336515,-0.245258,9.827129,0.001449,0.001211,0.001165,-0.504426,0.470203,-0.456543,-1.207752,-2.082090,-0.057580
01146,169019,0.336902,-0.238297,9.814192,0.001938,-0.000869,0.002053,-0.503939,0.469175,-0.456094,-1.207425,-2.083148,-0.058319
01147,169119,0.321808,-0.231604,9.832163,0.003648,0.001938,0.002932,-0.503967,0.469103,-0.454594,-1.206356,-2.082753,-0.058769
01148,169219,0.330297,-0.233155,9.833252,0.000926,0.002550,0.001731,-0.503462,0.468122,-0.455145,-1.206581,-2.081932,-0.058109
01149,169319,0.346255,-0.238861,9.810531,-0.000674,0.000442,0.002044,-0.505479,0.470075,-0.453544,-1.208311,-2.082634,-0.061815
01150,169419,0.341202,-0.234700,9.814036,0.000922,0.002840,0.002474,-0.502898,0.468781,-0.458618,-1.208107,-2.081209,-0.060504
01151,169519,0.327100,-0.237024,9.831916,0.001260,0.002235,0.001829,-0.503930,0.469199,-0.456594,-1.208097,-2.080439,-0.061380
01152,169619,0.341891,-0.238345,9.839127,0.001582,0.000815,0.002403,-0.504936,0.469191,-0.456094,-1.208019,-2.080615,-0.062906
01153,169719,0.326838,-0.233982,9.829186,0.003145,0.000261,0.002470,-0.504510,0.469986,-0.452045,-1.207761,-2.081490,-0.065655
01154,169819,0.334422,-0.239130,9.822162,0.001200,0.000265,0.000916,-0.504434,0.471176,-0.455992,-1.208162,-2.081934,-0.070219
01155,169919,0.331419,-0.231974,9.820923,0.001909,0.000452,0.001785,-0.502492,0.468533,-0.453620,-1.208087,-2.082382,-0.069289
01156,170019,0.319472,-0.231774,9.813186,0.002403,0.000065,-0.000176,-0.503449,0.470139,-0.455543,-1.207664,-2.082928,-0.072261
01157,170119,0.335306,-0.255707,9.823677,0.002429,-0.000307,0.002183,-0.502925,0.468709,-0.457119,-1.206816,-2.083467,-0.071224
01158,170219,0.318152,-0.244101,9.820061,0.001984,0.001747,0.002781,-0.504983,0.468572,-0.453620,-1.206806,-2.083368,-0.072206
01159,170319,0.329600,-0.238995,9.850814,0.000324,0.000849,0.001528,-0.502495,0.472494,-0.452917,-1.208319,-2.083603,-0.076829
01160,170419,0.344274,-0.242584,9.847116,0.000210,0.002895,0.002289,-0.502473,0.469079,-0.454594,-1.209161,-2.082528,-0.076173
01161,170519,0.335790,-0.209428,9.832869,0.001492,0.001516,0.002053,-0.503423,0.469215,-0.457093,-1.208937,-2.082063,-0.076395
01162,170619,0.325718,-0.238552,9.815968,0.002194,0.002464,0.001800,-0.503417,0.467246,-0.457695,-1.207934,-2.081024,-0.074032
01163,170719,0.325915,-0.240802,9.817042,0.000057,0.001120,0.001310,-0.502934,0.469183,-0.456593,-1.208579,-2.080806,-0.074255
01164,170819,0.328429,-0.248004,9.839963,0.000172,-0.000815,0.002139,-0.504434,0.471176,-0.455992,-1.209599,-2.081844,-0.078150
01165,170919,0.328590,-0.248558,9.821452,-0.000187,0.000632,0.002354,-0.503955,0.470621,-0.455018,-1.210877,-2.082119,-0.080910
01166,171019,0.331788,-0.219536,9.819667,0.001296,0.001539,0.002509,-0.501986,0.468050,-0.454145,-1.211004,-2.081836,-0.078249
01167,171119,0.320461,-0.241853,9.826439,0.001123,-0.000952,0.001645,-0.502448,0.467657,-0.456169,-1.210868,-2.082819,-0.075726
01168,171219,0.325848,-0.236721,9.829181,0.002811,0.001046,0.001145,-0.501920,0.468717,-0.457618,-1.209681,-2.082452,-0.074281
01169,171319,0.332051,-0.211839,9.822671,0.002400,0.001312,0.001507,-0.503431,0.469689,-0.456568,-1.209082,-2.082152,-0.075537
01170,171419,0.327240,-0.232245,9.820108,0.002090,0.001199,0.001794,-0.503452,0.468146,-0.455645,-1.208586,-2.082033,-0.074753
01171,171519,0.322639,-0.226817,9.822992,0.001172,0.001210,0.000950,-0.502971,0.469087,-0.454594,-1.208874,-2.081975,-0.075374
01172,171619,0.338318,-0.233251,9.818581,0.002258,0.000389,0.002462,-0.503442,0.468669,-0.456119,-1.208302,-2.082252,-0.074822
01173,171719,0.329007,-0.241285,9.816568,0.000825,0.002347,0.002252,-0.501995,0.468026,-0.453645,-1.208775,-2.081559,-0.072540
01174,171819,0.326741,-0.221559,9.816012,0.000258,0.002007,0.001918,-0.504439,0.468186,-0.456145,-1.209297,-2.081003,-0.072640
01175,171919,0.331017,-0.227842,9.826876,-0.000033,0.000655,0.000972,-0.502952,0.469633,-0.455568,-1.210209,-2.081149,-0.073799
01176,172019,0.329133,-0.250533,9.814878,0.000028,0.001107,0.002327,-0.503433,0.468693,-0.456619,-1.210842,-2.080959,-0.073294
01177,172119,0.336777,-0.226853,9.814093,0.002174,0.000349,0.001974,-0.504952,0.470637,-0.455018,-1.210793,-2.081480,-0.077061
01178,172219,0.327755,-0.230290,9.846351,0.002592,0.000538,0.002130,-0.502481,0.469553,-0.454069,-1.210419,-2.081797,-0.077191
01179,172319,0.322017,-0.226582,9.828450,0.001127,0.003914,0.001430,-0.504952,0.470139,-0.455044,-1.210886,-2.080285,-0.080741
01180,172419,0.330586,-0.234147,9.829180,0.002469,0.001140,0.002752,-0.504390,0.469801,-0.458568,-1.210036,-2.079932,-0.082125
01181,172519,0.320475,-0.242228,9.829137,0.000931,0.001531,0.003001,-0.503941,0.468178,-0.456145,-1.210184,-2.079591,-0.081117
01182,172619,0.333302,-0.242938,9.827897,0.002454,0.000110,0.001371,-0.505453,0.468652,-0.455120,-1.209693,-2.080307,-0.083237
01183,172719,0.329624,-0.234972,9.831293,-0.000153,0.001330,0.001566,-0.506491,0.471537,-0.452469,-1.211525,-2.080643,-0.090399
01184,172819,0.328250,-0.238114,9.805976,0.000938,-0.001644,0.001972,-0.504429,0.473667,-0.455865,-1.212481,-2.082118,-0.097899
01185,172919,0.333301,-0.222805,9.836594,0.000696,-0.002027,0.000861,-0.506453,0.466675,-0.455222,-1.212714,-2.084148,-0.098603
01186,173019,0.331795,-0.234728,9.828956,-0.001628,0.001561,0.001202,-0.505394,0.470790,-0.458017,-1.214424,-2.083684,-0.103446
01187,173119,0.325863,-0.252746,9.839924,-0.000160,0.001219,0.001270,-0.503902,0.469271,-0.458093,-1.215017,-2.083311,-0.104550
01188,173219,0.323842,-0.241118,9.838108,0.001593,0.001120,0.000253,-0.502979,0.470059,-0.454043,-1.215267,-2.083333,-0.106924
01189,173319,0.336957,-0.225294,9.825580,0.002236,0.001535,0.001725,-0.503969,0.468106,-0.454645,-1.214844,-2.083147,-0.106643
01190,173419,0.315292,-0.241625,9.836618,0.002520,0.000635,0.002554,-0.503950,0.468154,-0.455645,-1.214138,-2.083361,-0.105805
01191,173519,0.335438,-0.241082,9.829978,0.001719,0.001225,0.003596,-0.504447,0.469159,-0.455594,-1.214081,-2.083253,-0.106346
01192,173619,0.330501,-0.242411,9.843109,0.001189,0.001408,0.002235,-0.502970,0.469585,-0.454569,-1.214461,-2.083038,-0.106838
01193,173719,0.334233,-0.231266,9.825926,0.001520,0.001766,0.001992,-0.504482,0.470059,-0.453544,-1.214916,-2.082836,-0.109900
01194,173819,0.315623,-0.224858,9.824055,0.000677,-0.000500,0.001624,-0.503472,0.472558,-0.453917,-1.216113,-2.083777,-0.115630
01195,173919,0.327384,-0.231607,9.818182,-0.000156,0.002432,0.000003,-0.502966,0.472076,-0.454442,-1.217588,-2.082970,-0.121086
01196,174019,0.325411,-0.234324,9.847531,-0.000182,-0.001242,0.001846,-0.504474,0.469584,-0.454069,-1.218865,-2.084434,-0.123489
01197,174119,0.309753,-0.245963,9.846691,0.000943,0.001770,0.001919,-0.502444,0.469649,-0.456068,-1.219138,-2.083815,-0.123400
01198,174219,0.319244,-0.235255,9.840152,0.000366,0.001527,0.000975,-0.504945,0.469167,-0.455594,-1.219813,-2.083591,-0.126056
01199,174319,0.308115,-0.244048,9.811965,0.001937,0.000555,0.001612,-0.503957,0.469625,-0.455069,-1.219713,-2.083882,-0.127971
01200,174419,0.325325,-0.217954,9.823601,-0.000775,-0.000081,0.000896,-0.504422,0.472694,-0.456416,-1.221408,-2.084392,-0.135338
01201,174519,0.316392,-0.230683,9.824296,0.000151,0.000960,0.001743,-0.502971,0.469087,-0.454594,-1.222283,-2.084428,-0.135219
01202,174619,0.320323,-0.238454,9.820053,0.000882,0.001523,0.000786,-0.504440,0.467688,-0.456170,-1.222338,-2.084130,-0.135032
01203,174719,0.341858,-0.231539,9.805886,0.000151,0.002195,0.003357,-0.503932,0.468202,-0.456645,-1.222851,-2.083323,-0.133518
01204,174819,0.332325,-0.226273,9.808876,0.001533,0.000256,-0.000311,-0.503444,0.467672,-0.456170,-1.222476,-2.083690,-0.132764
01205,174919,0.322467,-0.250019,9.832683,-0.000085,0.001531,0.001832,-0.506432,0.468218,-0.456145,-1.223266,-2.083512,-0.135137
01206,175019,0.321899,-0.243492,9.828933,0.002081,-0.000223,0.001098,-0.501966,0.469095,-0.455094,-1.222918,-2.084103,-0.134162
01207,175119,0.331077,-0.233623,9.826722,0.002085,-0.000235,0.002304,-0.504491,0.470533,-0.453019,-1.223195,-2.085054,-0.137884
01208,175219,0.338719,-0.220144,9.822483,0.002251,-0.000612,0.002009,-0.504989,0.470541,-0.453019,-1.223391,-2.086257,-0.142413
01209,175319,0.336680,-0.227655,9.830350,0.002331,0.001884,0.004660,-0.502934,0.469183,-0.456593,-1.222795,-2.085521,-0.140471
01210,175419,0.341046,-0.242284,9.828903,0.002049,0.002757,0.001500,-0.503412,0.470236,-0.457542,-1.222328,-2.084248,-0.142484
01211,175519,0.339618,-0.240096,9.832812,0.000150,0.000489,0.002407,-0.501950,0.467649,-0.456169,-1.222743,-2.084338,-0.138279
01212,175619,0.334860,-0.227746,9.818837,-0.000340,0.001988,0.002287,-0.503889,0.471288,-0.458491,-1.223691,-2.083419,-0.141889
01213,175719,0.337738,-0.243625,9.823866,0.001090,0.000068,0.001785,-0.505914,0.468756,-0.457119,-1.223726,-2.083930,-0.144444
01214,175819,0.335519,-0.228510,9.822222,0.001344,0.000224,0.002431,-0.502942,0.469657,-0.456068,-1.223798,-2.084217,-0.144580
01215,175919,0.330124,-0.227522,9.832534,0.001326,0.000574,0.003060,-0.501979,0.466580,-0.454721,-1.223614,-2.084413,-0.138508
01216,176019,0.340392,-0.231530,9.842442,0.001513,0.001833,0.003009,-0.499989,0.470510,-0.454017,-1.223909,-2.083746,-0.136382
01217,176119,0.339229,-0.235922,9.821221,0.001266,0.001016,0.002160,-0.502443,0.470148,-0.456042,-1.224074,-2.083542,-0.136854
01218,176219,0.341089,-0.223419,9.814941,0.000834,0.002242,0.001409,-0.503915,0.472711,-0.456916,-1.224760,-2.082625,-0.143301
01219,176319,0.333081,-0.232408,9.827958,0.002426,0.000707,0.002125,-0.502498,0.470501,-0.453018,-1.224751,-2.082896,-0.144718
01220,176419,0.330399,-0.233473,9.820345,0.000271,0.001819,0.001692,-0.503963,0.471594,-0.454467,-1.225966,-2.082478,-0.149716
01221,176519,0.343273,-0.205833,9.831314,0.001711,0.001489,0.000467,-0.502416,0.469722,-0.457567,-1.225552,-2.081885,-0.150282
01222,176619,0.340465,-0.226508,9.815839,0.000318,0.001359,0.000965,-0.502969,0.470582,-0.454518,-1.226535,-2.081681,-0.152919
01223,176719,0.307798,-0.233857,9.832220,-0.000158,0.002993,0.001496,-0.505440,0.471168,-0.455493,-1.227839,-2.080602,-0.159183
01224,176819,0.321173,-0.245175,9.841153,0.000576,0.001444,0.001274,-0.502441,0.471144,-0.455992,-1.228525,-2.080154,-0.161765
01225,176919,0.330883,-0.245181,9.829051,0.001234,0.002967,0.002524,-0.501438,0.470156,-0.456542,-1.228598,-2.078715,-0.160699
01226,177019,0.332118,-0.249235,9.825921,0.002154,0.002134,0.001595,-0.504437,0.469183,-0.456094,-1.228177,-2.078034,-0.162483
01227,177119,0.336822,-0.228357,9.835193,0.002139,0.000771,0.001868,-0.502470,0.470574,-0.454518,-1.228120,-2.078121,-0.164000
01228,177219,0.312205,-0.209851,9.826606,0.003227,0.001606,0.002653,-0.501927,0.469690,-0.457067,-1.226936,-2.077456,-0.162693
01229,177319,0.341747,-0.235761,9.812445,0.001729,-0.000955,0.001196,-0.503460,0.469119,-0.455094,-1.226851,-2.078579,-0.163422
01230,177419,0.328322,-0.242562,9.809890,0.000422,0.001004,0.002347,-0.503437,0.471658,-0.455966,-1.227768,-2.078433,-0.167529
01231,177519,0.337915,-0.250209,9.836866,0.002052,-0.000589,0.000256,-0.505518,0.468982,-0.451596,-1.228052,-2.079832,-0.171572
01232,177619,0.331967,-0.241545,9.833458,0.001475,0.000566,0.002208,-0.501926,0.470686,-0.457017,-1.228009,-2.079751,-0.172112
01233,177719,0.338708,-0.231356,9.823314,0.002103,0.004361,0.001302,-0.503929,0.469697,-0.456568,-1.227598,-2.077706,-0.174292
01234,177819,0.347662,-0.218631,9.803507,0.001628,0.000571,0.002093,-0.503413,0.469239,-0.457593,-1.227242,-2.077699,-0.174435
01235,177919,0.332576,-0.235068,9.810212,0.000035,0.001320,0.000854,-0.503499,0.468026,-0.453146,-1.228250,-2.077730,-0.173781
01236,178019,0.331358,-0.228518,9.841617,0.001002,0.000631,0.000971,-0.504972,0.469593,-0.454069,-1.228855,-2.078135,-0.177508
01237,178119,0.334264,-0.230666,9.851449,0.001630,0.001982,0.002603,-0.503950,0.468154,-0.455645,-1.228659,-2.077553,-0.176447
01238,178219,0.329315,-0.220348,9.828555,0.000975,0.002902,0.000942,-0.501412,0.469232,-0.458092,-1.228498,-2.076044,-0.174593
01239,178319,0.336998,-0.228634,9.818963,0.001484,0.001178,0.002530,-0.503461,0.468621,-0.455119,-1.228510,-2.075934,-0.173774
01240,178419,0.344454,-0.234864,9.831202,0.003263,0.001085,0.001687,-0.501944,0.470638,-0.456017,-1.227580,-2.075665,-0.174714
01241,178519,0.335653,-0.250391,9.845115,0.004266,0.000978,0.002998,-0.501515,0.468468,-0.452620,-1.226272,-2.075780,-0.171066
01242,178619,0.336273,-0.238634,9.827674,-0.000069,0.000529,0.002296,-0.502961,0.469609,-0.455069,-1.227297,-2.076001,-0.171362
01243,178719,0.322691,-0.227980,9.821795,0.002229,0.001172,0.003727,-0.504971,0.470091,-0.454044,-1.227331,-2.076061,-0.174268
01244,178819,0.333361,-0.249827,9.830383,-0.000535,0.002403,0.001959,-0.503488,0.469047,-0.453594,-1.228769,-2.075399,-0.174642
01245,178919,0.334177,-0.226064,9.831190,0.000979,0.002679,0.001312,-0.501455,0.471104,-0.455492,-1.229257,-2.074232,-0.175963
01246,179019,0.324048,-0.239301,9.805515,-0.001273,0.002362,0.001892,-0.502445,0.469151,-0.456093,-1.230729,-2.073283,-0.175000
01247,179119,0.321044,-0.245195,9.828994,0.002700,0.000197,0.000764,-0.501962,0.471088,-0.454992,-1.230310,-2.073628,-0.177260
01248,179219,0.334692,-0.234831,9.815336,-0.000365,0.000962,0.000537,-0.503428,0.471682,-0.456466,-1.231574,-2.073480,-0.182429
01249,179319,0.333442,-0.233213,9.849393,0.001958,0.001804,-0.000707,-0.504907,0.469761,-0.457568,-1.231122,-2.072890,-0.187110
01250,179419,0.331562,-0.236816,9.835211,0.002480,0.000319,0.002374,-0.504002,0.470501,-0.452519,-1.231221,-2.073522,-0.190382
01251,179519,0.313106,-0.237977,9.798012,0.002479,0.000395,0.000993,-0.505958,0.470131,-0.454544,-1.231037,-2.074063,-0.196381
01252,179619,0.347298,-0.234644,9.827720,0.002211,0.001146,0.003067,-0.504918,0.468741,-0.457119,-1.230441,-2.073864,-0.197299
01253,179719,0.328609,-0.241380,9.834337,0.003496,0.000731,0.002738,-0.502428,0.468203,-0.457144,-1.228918,-2.073757,-0.194035
01254,179819,0.327176,-0.218992,9.819308,0.002322,0.000156,0.003357,-0.503950,0.468154,-0.455645,-1.228357,-2.074210,-0.192565
01255,179919,0.326588,-0.229348,9.844916,0.001267,0.002067,0.002584,-0.504446,0.469657,-0.455569,-1.228627,-2.073589,-0.194789
01256,180019,0.337672,-0.222217,9.823738,0.002067,0.001397,0.002852,-0.502467,0.472068,-0.454441,-1.228857,-2.073286,-0.198315
01257,180119,0.346895,-0.213501,9.844603,0.000208,0.001037,0.001097,-0.504934,0.470187,-0.456043,-1.229729,-2.073249,-0.202977
01258,180219,0.339878,-0.237759,9.825585,0.001257,0.001145,0.002166,-0.502944,0.468661,-0.456119,-1.229709,-2.073036,-0.201589
01259,180319,0.348323,-0.215103,9.824098,0.000313,0.000311,0.003181,-0.505460,0.470123,-0.454544,-1.230789,-2.073563,-0.205769
01260,180419,0.324677,-0.229100,9.824233,0.001681,0.001437,0.001653,-0.503495,0.470517,-0.453018,-1.231242,-2.073475,-0.208881
01261,180519,0.340164,-0.238378,9.837336,0.001779,0.002586,0.003031,-0.505985,0.470556,-0.453019,-1.231784,-2.072863,-0.214911
01262,180619,0.333231,-0.242964,9.836697,0.002195,0.001410,0.002456,-0.504952,0.470139,-0.455044,-1.231684,-2.072686,-0.218984
01263,180719,0.325675,-0.250247,9.818033,0.001954,0.000891,0.001903,-0.503425,0.467721,-0.457169,-1.230989,-2.072578,-0.216563
01264,180819,0.333342,-0.228657,9.815149,0.001385,0.001939,0.002599,-0.503408,0.472229,-0.457440,-1.231238,-2.071740,-0.221927
01265,180919,0.334265,-0.251169,9.822714,0.000494,0.003201,0.000924,-0.504944,0.469665,-0.455569,-1.231943,-2.070516,-0.226083
01266,181019,0.330701,-0.234917,9.824186,0.000796,0.002526,0.003657,-0.502980,0.469561,-0.454069,-1.232641,-2.069669,-0.225583
01267,181119,0.331193,-0.248880,9.819966,0.000453,0.002709,0.003408,-0.505455,0.472614,-0.454417,-1.234032,-2.068766,-0.234665
01268,181219,0.322521,-0.236825,9.826718,0.000782,0.002298,0.000455,-0.503454,0.472108,-0.454942,-1.234935,-2.067978,-0.241559
01269,181319,0.335164,-0.216302,9.812208,0.000112,0.000920,0.001224,-0.504454,0.470131,-0.455044,-1.235985,-2.068060,-0.245830
01270,181419,0.333126,-0.232338,9.819949,0.000417,0.003695,0.001307,-0.503448,0.470638,-0.455518,-1.236816,-2.066442,-0.249445
01271,181519,0.336414,-0.245865,9.833266,0.001059,0.000358,0.000427,-0.504933,0.470685,-0.456018,-1.237271,-2.066781,-0.256057
01272,181619,0.344638,-0.236489,9.822207,0.001107,0.002188,0.001651,-0.502423,0.471192,-0.456991,-1.237527,-2.065823,-0.258803
01273,181719,0.343439,-0.233592,9.810498,0.001112,0.000627,0.001516,-0.502930,0.471176,-0.456492,-1.237875,-2.065833,-0.262476
01274,181819,0.345591,-0.233963,9.811667,0.002193,0.000260,0.001766,-0.503947,0.470147,-0.455543,-1.237651,-2.066213,-0.265723
01275,181919,0.332480,-0.225648,9.833136,0.003177,0.003348,0.002437,-0.502948,0.471626,-0.455467,-1.237056,-2.064732,-0.269995
01276,182019,0.342243,-0.231155,9.822836,0.001950,0.000103,0.001594,-0.503470,0.468596,-0.454619,-1.236854,-2.065301,-0.269409
01277,182119,0.343221,-0.240482,9.810697,0.000789,0.002375,0.002342,-0.505978,0.469584,-0.453570,-1.237765,-2.064753,-0.274913
01278,182219,0.314222,-0.236564,9.817443,-0.000159,0.002320,0.005960,-0.503969,0.468106,-0.454645,-1.238808,-2.064034,-0.271673
01279,182319,0.341634,-0.230886,9.830945,0.000582,0.002549,0.007017,-0.503414,0.468741,-0.457618,-1.239070,-2.062875,-0.267997
01280,182419,0.319244,-0.231017,9.818329,0.001454,-0.000130,0.004191,-0.503485,0.470541,-0.453518,-1.239649,-2.063591,-0.270008
01281,182519,0.330249,-0.242659,9.816532,0.003328,0.000096,0.003273,-0.501440,0.468661,-0.456618,-1.238293,-2.063871,-0.264844
01282,182619,0.344214,-0.225581,9.816751,0.000769,0.001110,0.001713,-0.501478,0.468067,-0.454644,-1.238579,-2.063773,-0.259621
01283,182719,0.345964,-0.246810,9.832021,-0.000053,0.001416,0.001315,-0.503937,0.470171,-0.456043,-1.239557,-2.063458,-0.263111
01284,182819,0.328993,-0.220367,9.816984,0.001349,0.001542,0.002270,-0.504441,0.472646,-0.455416,-1.240226,-2.063076,-0.271994
01285,182919,0.338489,-0.226518,9.816232,0.000468,0.001316,0.000832,-0.502455,0.468629,-0.455619,-1.240652,-2.062825,-0.270016
01286,183019,0.333422,-0.246911,9.837659,0.001168,-0.000022,0.001530,-0.502427,0.468701,-0.457118,-1.240483,-2.063197,-0.267692
01287,183119,0.319237,-0.237502,9.832841,0.002599,0.001754,0.002482,-0.505939,0.470179,-0.455544,-1.240146,-2.062818,-0.274039
01288,183219,0.334984,-0.242306,9.814088,0.002720,0.000925,0.001919,-0.501439,0.469658,-0.456568,-1.239268,-2.062617,-0.271778
01289,183319,0.325541,-0.227274,9.830260,0.002105,0.002162,0.002193,-0.505941,0.469182,-0.455595,-1.239061,-2.062028,-0.276332
01290,183419,0.325346,-0.231633,9.822117,0.002198,0.001507,0.002627,-0.504456,0.469135,-0.455094,-1.238800,-2.061776,-0.277987
01291,183519,0.348997,-0.235115,9.818797,0.001471,0.001522,0.002820,-0.504447,0.469159,-0.455594,-1.238890,-2.061471,-0.279553
01292,183619,0.353121,-0.256217,9.839641,0.003097,0.000445,0.002404,-0.502935,0.468685,-0.456619,-1.237743,-2.061638,-0.277643
01293,183719,0.330961,-0.249203,9.814957,0.002250,0.000040,0.003268,-0.504907,0.469761,-0.457568,-1.237224,-2.062014,-0.280945
01294,183819,0.350161,-0.235383,9.813716,0.001177,0.003998,0.004505,-0.503937,0.470670,-0.456017,-1.237651,-2.060172,-0.283863
01295,183919,0.341273,-0.239900,9.821342,0.001348,0.001915,0.005819,-0.505920,0.470725,-0.456518,-1.238051,-2.059560,-0.289718
01296,184019,0.328514,-0.230939,9.827325,0.001561,0.000691,0.003724,-0.504435,0.470677,-0.456018,-1.238272,-2.059644,-0.294085
01297,184119,0.325898,-0.247485,9.827527,0.001710,0.000414,0.004643,-0.501973,0.470068,-0.454543,-1.238416,-2.059900,-0.292065
01298,184219,0.333681,-0.225783,9.817208,0.002359,-0.000947,0.002045,-0.501487,0.468541,-0.454119,-1.237945,-2.061023,-0.287278
01299,184319,0.326503,-0.242598,9.819134,0.000842,0.000699,0.000704,-0.504383,0.468331,-0.459144,-1.237711,-2.060937,-0.288108
01300,184419,0.317443,-0.230721,9.819217,0.000944,0.000327,0.001096,-0.502961,0.469609,-0.455069,-1.238132,-2.061299,-0.288943
01301,184519,0.320953,-0.253061,9.843375,0.000599,0.000308,0.002018,-0.503961,0.467632,-0.455170,-1.238522,-2.061750,-0.286838
01302,184619,0.326559,-0.225810,9.839111,0.001370,0.002519,0.003604,-0.503954,0.471120,-0.454993,-1.239032,-2.060838,-0.291261
01303,184719,0.336706,-0.251346,9.827757,0.002615,0.001668,0.001453,-0.503429,0.470686,-0.456517,-1.238475,-2.060297,-0.295062
01304,184819,0.327584,-0.246889,9.814466,0.002993,0.001941,0.002406,-0.501949,0.468147,-0.456144,-1.237328,-2.059621,-0.290133
01305,184919,0.328720,-0.230213,9.812210,0.001947,0.000807,0.001589,-0.501514,0.468967,-0.452594,-1.237377,-2.059860,-0.286744
01306,185019,0.321149,-0.229159,9.823710,-0.000146,0.000236,0.001273,-0.504399,0.469777,-0.458068,-1.238101,-2.060078,-0.290414
01307,185119,0.334242,-0.235043,9.822957,0.001494,0.001313,0.003687,-0.501963,0.470590,-0.455018,-1.238356,-2.059774,-0.290054
01308,185219,0.335709,-0.221008,9.816711,0.002138,0.001708,0.002102,-0.502435,0.469673,-0.456568,-1.237882,-2.059179,-0.289533
01309,185319,0.337685,-0.227423,9.835549,-0.000210,0.000911,0.001747,-0.503931,0.468701,-0.456619,-1.238681,-2.059135,-0.289852
01310,185419,0.332407,-0.228262,9.827353,0.000050,0.000982,0.001793,-0.501964,0.470092,-0.455043,-1.239647,-2.059056,-0.289508
01311,185519,0.337884,-0.238072,9.829685,0.000942,0.001208,0.002197,-0.502930,0.471176,-0.456492,-1.240108,-2.058737,-0.292948
01312,185619,0.318643,-0.220778,9.841639,0.003468,0.001750,0.000422,-0.500993,0.471498,-0.453467,-1.239461,-2.058288,-0.294595
01313,185719,0.347578,-0.260518,9.827921,0.003233,0.003006,0.001131,-0.503977,0.468580,-0.454120,-1.238622,-2.057272,-0.295146
01314,185819,0.344400,-0.233870,9.827635,0.000405,0.001506,0.004433,-0.502991,0.468540,-0.453620,-1.239481,-2.057073,-0.291897
01315,185919,0.324263,-0.254762,9.823562,0.000336,0.000760,0.006623,-0.501981,0.471040,-0.453992,-1.240665,-2.057132,-0.290772
01316,186019,0.347344,-0.231354,9.832956,0.003439,0.002014,0.004067,-0.503440,0.469665,-0.456068,-1.239611,-2.056432,-0.290937
01317,186119,0.312007,-0.225451,9.804370,0.003227,-0.001300,0.003451,-0.502924,0.469705,-0.457068,-1.238503,-2.057527,-0.290588
01318,186219,0.339192,-0.223911,9.816197,0.001417,0.000810,0.002315,-0.503994,0.469528,-0.453069,-1.239007,-2.057824,-0.292378
01319,186319,0.334657,-0.234117,9.810798,-0.000290,-0.000344,0.003237,-0.506918,0.469744,-0.456569,-1.240198,-2.058600,-0.299398
01320,186419,0.326769,-0.227504,9.820614,0.001786,0.001310,0.002175,-0.500979,0.469055,-0.454593,-1.240034,-2.058353,-0.294735
01321,186519,0.311628,-0.231628,9.832539,0.001452,0.004114,0.002696,-0.502942,0.469657,-0.456068,-1.240059,-2.056444,-0.294786
01322,186619,0.333704,-0.227428,9.817714,0.002045,0.002447,0.003357,-0.502981,0.468565,-0.454120,-1.239884,-2.055679,-0.292175
01323,186719,0.330036,-0.219080,9.845235,0.000599,0.000832,0.001887,-0.501933,0.471658,-0.456466,-1.240551,-2.055529,-0.295023
01324,186819,0.338620,-0.247139,9.846913,0.002168,0.001490,0.003386,-0.504417,0.470227,-0.457043,-1.240206,-2.055087,-0.298554
01325,186919,0.320710,-0.239539,9.831816,0.001487,-0.001018,0.001159,-0.501924,0.471683,-0.456966,-1.240282,-2.055963,-0.301870
01326,187019,0.329026,-0.231641,9.818152,0.001750,0.000774,0.001297,-0.504442,0.471650,-0.455467,-1.240558,-2.056052,-0.309658
01327,187119,0.329878,-0.235103,9.819794,0.001279,0.002718,0.001166,-0.503965,0.470597,-0.454518,-1.241062,-2.055114,-0.314471
01328,187219,0.326721,-0.235562,9.821379,0.000943,-0.000726,0.001828,-0.501976,0.468075,-0.454645,-1.241282,-2.056108,-0.309573
01329,187319,0.335255,-0.238459,9.812856,0.003259,0.001214,0.002399,-0.504427,0.469705,-0.456568,-1.240288,-2.055887,-0.312651
01330,187419,0.322599,-0.244202,9.830030,0.001773,0.003775,0.003216,-0.500478,0.470542,-0.454517,-1.240347,-2.054167,-0.309618
01331,187519,0.339111,-0.220231,9.833889,0.001199,0.001977,0.002068,-0.504921,0.466748,-0.457221,-1.240050,-2.053559,-0.307532
01332,187619,0.321110,-0.225412,9.842089,-0.000106,0.001942,0.003445,-0.502940,0.471152,-0.455992,-1.241208,-2.052855,-0.310323
01333,187719,0.333292,-0.233720,9.847382,0.002574,0.000391,0.003477,-0.504473,0.470083,-0.454044,-1.241041,-2.053300,-0.313568
01334,187819,0.336659,-0.239099,9.839585,0.001039,0.001030,0.002807,-0.504455,0.469633,-0.455069,-1.241531,-2.053310,-0.316272
01335,187919,0.321301,-0.233843,9.840226,0.002328,0.002195,0.002244,-0.502924,0.469705,-0.457068,-1.240914,-2.052424,-0.316695
01336,188019,0.318432,-0.225303,9.837518,0.001874,0.001008,0.003789,-0.503901,0.469769,-0.458068,-1.240514,-2.052156,-0.318272
01337,188119,0.345721,-0.232634,9.836941,0.000410,-0.000607,0.003052,-0.501396,0.472744,-0.458414,-1.241162,-2.052608,-0.321983
01338,188219,0.339212,-0.235506,9.824148,0.000146,0.001491,0.002000,-0.503947,0.470147,-0.455543,-1.242123,-2.052289,-0.325380
01339,188319,0.359018,-0.243897,9.821724,-0.000698,0.000071,0.001299,-0.504448,0.468162,-0.455645,-1.243286,-2.052857,-0.325724
01340,188419,0.313095,-0.225446,9.855929,0.000594,0.001703,0.001966,-0.504430,0.468210,-0.456645,-1.243587,-2.052395,-0.325834
01341,188519,0.330127,-0.245791,9.833892,0.000765,0.000327,0.000502,-0.502941,0.470155,-0.456043,-1.244033,-2.052675,-0.328146
01342,188619,0.334068,-0.216849,9.813302,0.000021,0.002850,0.001415,-0.505954,0.472622,-0.454417,-1.245674,-2.051690,-0.341157
01343,188719,0.326676,-0.207564,9.844619,0.002916,0.001517,0.002113,-0.501946,0.469641,-0.456068,-1.244781,-2.051244,-0.339409
01344,188819,0.338089,-0.247617,9.825313,0.000032,-0.000035,0.001665,-0.505958,0.470131,-0.454544,-1.246057,-2.051959,-0.346916
01345,188919,0.334284,-0.245167,9.841612,0.001181,0.000700,0.003219,-0.504463,0.470107,-0.454544,-1.246613,-2.052172,-0.350560
01346,189019,0.328113,-0.232552,9.837409,0.001207,0.000274,0.002703,-0.504923,0.471208,-0.456492,-1.247051,-2.052463,-0.358127
01347,189119,0.328819,-0.231992,9.814584,0.000457,0.002907,0.002310,-0.504490,0.471031,-0.452993,-1.248362,-2.051514,-0.364575
01348,189219,0.329220,-0.251811,9.812206,0.002383,0.001656,0.001806,-0.501486,0.469039,-0.454094,-1.247927,-2.051154,-0.360268
01349,189319,0.335275,-0.244330,9.831341,0.000434,0.000604,0.001109,-0.503965,0.470597,-0.454518,-1.248912,-2.051412,-0.365316
01350,189419,0.347022,-0.249805,9.839857,0.003236,0.001605,0.000352,-0.505515,0.470476,-0.451520,-1.248791,-2.051401,-0.373694
01351,189519,0.325508,-0.234137,9.821264,0.000434,-0.001389,0.000968,-0.502472,0.469577,-0.454568,-1.249524,-2.052773,-0.373176
01352,189619,0.330692,-0.229318,9.827193,0.001954,-0.000133,0.001282,-0.503431,0.469689,-0.456568,-1.249180,-2.053295,-0.374940
01353,189719,0.346103,-0.227997,9.835213,0.003271,0.001223,0.002036,-0.500976,0.470550,-0.454517,-1.248363,-2.053079,-0.372988
01354,189819,0.337247,-0.222713,9.828404,0.001529,0.000953,0.002206,-0.503474,0.471562,-0.453967,-1.248928,-2.053116,-0.378667
01355,189919,0.327540,-0.221952,9.813645,0.000952,0.001061,0.000737,-0.502462,0.470099,-0.455043,-1.249362,-2.053036,-0.379572
01356,190019,0.337339,-0.220051,9.828660,0.001790,0.000581,0.000960,-0.502455,0.468629,-0.455619,-1.249025,-2.053228,-0.376807
01357,190119,0.345174,-0.237552,9.828333,0.002025,0.001038,0.004301,-0.501436,0.471153,-0.456491,-1.248798,-2.052935,-0.376117
01358,190219,0.338877,-0.251684,9.835979,0.001737,0.000135,0.003328,-0.502987,0.470533,-0.453518,-1.249147,-2.053479,-0.377562
01359,190319,0.346704,-0.229119,9.827564,0.000674,0.001630,0.001446,-0.502469,0.471072,-0.454492,-1.249970,-2.053080,-0.380355
01360,190419,0.335172,-0.227945,9.841287,0.003219,0.001112,0.001408,-0.502910,0.472221,-0.457440,-1.249107,-2.052725,-0.387133
01361,190519,0.334823,-0.254647,9.839486,0.002023,0.001307,0.001350,-0.504954,0.469143,-0.455094,-1.248955,-2.052609,-0.390792
01362,190619,0.340323,-0.232197,9.832467,0.001500,-0.000490,0.001783,-0.505450,0.470147,-0.455044,-1.249294,-2.053503,-0.397728
01363,190719,0.332534,-0.229180,9.822424,0.001290,0.000324,0.002223,-0.501983,0.469545,-0.454069,-1.249589,-2.053906,-0.395186
01364,190819,0.335420,-0.234953,9.809089,0.002084,0.001993,0.002424,-0.502910,0.472221,-0.457440,-1.249397,-2.053034,-0.401515
01365,190919,0.333851,-0.241327,9.823326,0.001542,0.000910,0.002613,-0.502934,0.469183,-0.456593,-1.249203,-2.052946,-0.400183
01366,191019,0.330475,-0.248687,9.833187,-0.001327,0.001069,0.003134,-0.503465,0.471586,-0.454467,-1.251349,-2.052861,-0.405514
01367,191119,0.334712,-0.229889,9.822098,0.001130,0.001397,0.001107,-0.504475,0.469086,-0.454095,-1.251804,-2.052755,-0.408034
01368,191219,0.337239,-0.225814,9.826282,0.002008,0.000866,0.003100,-0.505403,0.470766,-0.457517,-1.251607,-2.052640,-0.416043
01369,191319,0.323450,-0.234803,9.829556,0.002930,0.001053,0.002280,-0.505469,0.470099,-0.454044,-1.251280,-2.052712,-0.422828
01370,191419,0.335705,-0.235227,9.835391,0.002556,0.001173,0.002080,-0.504427,0.469705,-0.456568,-1.250670,-2.052511,-0.426563
01371,191519,0.346113,-0.230313,9.807249,0.002367,0.002987,0.001727,-0.505449,0.465687,-0.455772,-1.249758,-2.051507,-0.422418
01372,191619,0.324100,-0.245216,9.813218,0.002701,0.000641,-0.001203,-0.502930,0.471176,-0.456492,-1.249131,-2.051562,-0.428368
01373,191719,0.337800,-0.237727,9.833697,0.002246,0.000625,0.001822,-0.505940,0.469681,-0.455569,-1.248948,-2.051795,-0.435715
01374,191819,0.329912,-0.231905,9.827938,0.000561,0.001261,0.002710,-0.502452,0.470622,-0.455517,-1.249654,-2.051525,-0.436787
01375,191919,0.326455,-0.233058,9.830780,0.000553,0.000451,0.000967,-0.504940,0.472156,-0.455442,-1.250737,-2.051757,-0.448824
01376,192019,0.330103,-0.235293,9.835006,0.000454,0.000672,0.001555,-0.503932,0.468202,-0.456645,-1.251055,-2.051884,-0.447713
01377,192119,0.335813,-0.248586,9.829465,0.002149,0.000432,0.001758,-0.502972,0.468589,-0.454619,-1.250696,-2.052252,-0.445020
