PacketCounter,SampleTimeFine,Acc_X,Acc_Y,Acc_Z,Gyr_X,Gyr_Y,Gyr_Z,Mag_X,Mag_Y,Mag_Z,Roll,Pitch,Yaw
00771,177139,9.640773,-0.188992,2.036423,-0.006676,0.030431,0.016843,-0.533124,0.100161,-0.386757,-7.780825,-77.468725,7.597659
00772,177239,9.617804,-0.161703,2.005216,-0.012799,0.027655,0.013354,-0.532635,0.095171,-0.387011,-7.810479,-77.452665,7.620546
00773,177339,9.601582,-0.161631,1.992950,-0.019366,0.021872,0.009779,-0.532615,0.096215,-0.387960,-7.836717,-77.440173,7.636083
00774,177439,9.585669,-0.147913,2.018082,-0.020496,0.016854,0.008210,-0.533131,0.096673,-0.386935,-7.861293,-77.430657,7.649254
00775,177539,9.606635,-0.148516,2.058957,-0.021945,0.015927,0.004465,-0.534617,0.096223,-0.387461,-7.877427,-77.421963,7.652929
00776,177639,9.622094,-0.190343,2.042268,-0.022238,0.024063,0.002375,-0.534606,0.096745,-0.387935,-7.885519,-77.408821,7.648193
00777,177739,9.642225,-0.238738,2.023704,-0.013769,0.042641,0.003739,-0.534147,0.095645,-0.385987,-7.885690,-77.385035,7.640312
00778,177839,9.611016,-0.232200,2.054512,-0.006410,0.052981,0.004165,-0.532635,0.095171,-0.387011,-7.879114,-77.355351,7.629838
00779,177939,9.614658,-0.198393,1.996072,-0.006774,0.064268,0.003525,-0.534089,0.097284,-0.388909,-7.867219,-77.319321,7.613698
00780,178039,9.586276,-0.197583,1.904949,-0.017922,0.067687,0.004263,-0.533600,0.097252,-0.388409,-7.862440,-77.281309,7.598304
00781,178139,9.515087,-0.239895,2.001771,-0.027284,0.051601,0.003873,-0.534082,0.095814,-0.389485,-7.867665,-77.252465,7.587666
00782,178239,9.571079,-0.214378,2.103126,-0.043456,0.027628,0.009711,-0.532608,0.094745,-0.388536,-7.905071,-77.236770,7.600523
00783,178339,9.664770,-0.195393,2.108501,-0.048543,0.019698,0.011434,-0.533598,0.098248,-0.388359,-7.952382,-77.225439,7.620549
00784,178439,9.676686,-0.173960,2.028008,-0.044246,0.030637,0.009535,-0.532610,0.093749,-0.388587,-7.988563,-77.208060,7.631689
00785,178539,9.666603,-0.179491,1.974137,-0.047059,0.044803,0.007123,-0.530114,0.096699,-0.388434,-8.015278,-77.182848,7.631472
00786,178639,9.644040,-0.191742,2.008190,-0.052661,0.059429,0.003996,-0.531598,0.097245,-0.388908,-8.032216,-77.149599,7.617937
00787,178739,9.567996,-0.178574,2.044582,-0.058149,0.060877,0.002506,-0.532566,0.097332,-0.390408,-8.048055,-77.115657,7.600050
00788,178839,9.487688,-0.199961,1.989767,-0.066506,0.044430,0.000243,-0.533060,0.099832,-0.390281,-8.068822,-77.091239,7.582303
00789,178939,9.492674,-0.148601,2.022249,-0.070845,0.018571,0.000255,-0.531606,0.098217,-0.388358,-8.101126,-77.081500,7.573845
00790,179039,9.556474,-0.117940,2.096722,-0.069373,-0.005322,0.001248,-0.532069,0.096826,-0.390434,-8.143394,-77.085238,7.576477
00791,179139,9.637659,-0.094303,2.122957,-0.063549,-0.018413,-0.000467,-0.534575,0.098811,-0.389333,-8.182676,-77.096543,7.579471
00792,179239,9.688733,-0.155117,2.188113,-0.058242,-0.013526,-0.005976,-0.530110,0.099190,-0.388307,-8.203513,-77.105526,7.566664
00793,179339,9.678422,-0.226006,2.187769,-0.060980,0.006063,-0.014819,-0.532611,0.098208,-0.387858,-8.197002,-77.104120,7.524194
00794,179439,9.645799,-0.359866,2.180870,-0.065799,0.030547,-0.018030,-0.531122,0.100652,-0.387231,-8.176643,-77.089084,7.464681
00795,179539,9.610495,-0.415201,2.168268,-0.070912,0.053792,-0.018068,-0.531600,0.101704,-0.388180,-8.151057,-77.060859,7.396791
00796,179639,9.523782,-0.426231,2.138808,-0.077366,0.066718,-0.014152,-0.529611,0.099680,-0.388281,-8.134534,-77.024976,7.334398
00797,179739,9.497082,-0.361396,2.098716,-0.081193,0.063105,-0.009870,-0.528564,0.101777,-0.390678,-8.132230,-76.990794,7.284336
00798,179839,9.513096,-0.276425,2.137327,-0.080128,0.049309,-0.004525,-0.529083,0.100242,-0.389755,-8.147363,-76.964005,7.252791
00799,179939,9.534624,-0.204916,2.150679,-0.080111,0.037361,0.000724,-0.529590,0.100724,-0.389230,-8.179513,-76.943568,7.238723
00800,180039,9.597469,-0.158179,2.186453,-0.080214,0.028131,0.002228,-0.525075,0.102719,-0.390626,-8.218566,-76.928244,7.231683
00801,180139,9.647455,-0.214080,2.212974,-0.068461,0.032836,-0.001645,-0.526114,0.100147,-0.388754,-8.239718,-76.910568,7.213177
00802,180239,9.639928,-0.294019,2.276900,-0.050884,0.036357,-0.004067,-0.528566,0.100781,-0.390729,-8.243664,-76.891087,7.187346
00803,180339,9.635615,-0.379712,2.260582,-0.027975,0.047962,-0.009146,-0.526544,0.101818,-0.392177,-8.218138,-76.865434,7.144726
00804,180439,9.611470,-0.469138,2.262560,-0.013820,0.056188,-0.014260,-0.526074,0.101738,-0.390678,-8.169440,-76.835519,7.086630
00805,180539,9.567986,-0.503271,2.245856,-0.008807,0.071610,-0.012798,-0.524557,0.098797,-0.392329,-8.116411,-76.796719,7.027025
00806,180639,9.503733,-0.413746,2.177606,-0.008347,0.077078,-0.010047,-0.524089,0.102679,-0.390126,-8.068262,-76.754581,6.972693
00807,180739,9.455024,-0.282297,2.104766,-0.009217,0.058285,-0.006773,-0.527051,0.101802,-0.391677,-8.035177,-76.722838,6.933317
00808,180839,9.493489,-0.265047,2.152335,-0.013164,0.035769,-0.007446,-0.526554,0.101296,-0.391703,-8.010505,-76.703921,6.900258
00809,180939,9.526609,-0.276972,2.220287,-0.014653,0.019231,-0.007016,-0.522608,0.100140,-0.389753,-7.993362,-76.694349,6.874056
00810,181039,9.554650,-0.319880,2.246588,-0.014229,0.011193,-0.008592,-0.526546,0.100323,-0.392253,-7.974940,-76.689457,6.846789
00811,181139,9.528932,-0.327271,2.328945,-0.001965,0.009092,-0.011878,-0.524068,0.098765,-0.391829,-7.942346,-76.686004,6.812177
00812,181239,9.518667,-0.272477,2.373303,0.019233,0.014123,-0.010596,-0.526110,0.102140,-0.388653,-7.899013,-76.679575,6.779011
00813,181339,9.518105,-0.269973,2.349125,0.039321,0.021529,-0.010728,-0.525562,0.098789,-0.391829,-7.841440,-76.668935,6.743038
00814,181439,9.544049,-0.238923,2.343165,0.047678,0.026383,-0.007958,-0.526565,0.100275,-0.391254,-7.784177,-76.655305,6.712303
00815,181539,9.601516,-0.256984,2.299387,0.038728,0.032617,-0.004295,-0.526567,0.099279,-0.391304,-7.738851,-76.637841,6.688565
00816,181639,9.598914,-0.283722,2.261251,0.017053,0.040837,0.000113,-0.524069,0.098267,-0.391854,-7.713891,-76.615365,6.672995
00817,181739,9.671255,-0.130856,2.185260,-0.001857,0.043993,0.000199,-0.525570,0.099761,-0.391279,-7.698968,-76.591096,6.656604
00818,181839,9.453056,-0.468710,2.240651,-0.000207,0.034303,0.004941,-0.525122,0.097640,-0.388881,-7.697614,-76.571959,6.655131
00819,181939,9.479085,-0.313550,2.230248,-0.020067,0.031913,0.006724,-0.524060,0.097793,-0.392380,-7.712655,-76.554040,6.658814
00820,182039,9.490529,-0.185640,2.212658,-0.000304,0.021536,0.003468,-0.523581,0.097737,-0.391380,-7.711935,-76.542265,6.657936
00821,182139,9.542983,-0.186383,2.304236,0.024183,0.023089,-0.002924,-0.527573,0.098772,-0.390831,-7.681510,-76.530094,6.640942
00822,182239,9.611962,-0.181088,2.341224,0.040074,0.033248,-0.006048,-0.523571,0.097761,-0.391880,-7.631362,-76.512384,6.613030
00823,182339,9.637780,-0.263788,2.397604,0.044250,0.046297,-0.010244,-0.525569,0.094803,-0.392032,-7.564891,-76.487564,6.570789
00824,182439,9.642132,-0.375320,2.368381,0.046176,0.060319,-0.013002,-0.524592,0.094739,-0.391033,-7.486689,-76.454965,6.517611
00825,182539,9.618888,-0.434685,2.369748,0.043541,0.070112,-0.010604,-0.528100,0.093251,-0.390110,-7.413002,-76.416598,6.467514
00826,182639,9.545937,-0.420124,2.353615,0.041201,0.078745,-0.007937,-0.530083,0.093307,-0.390611,-7.344694,-76.373107,6.421561
00827,182739,9.461018,-0.370653,2.321223,0.042538,0.077523,-0.000755,-0.527575,0.092319,-0.391660,-7.293168,-76.329767,6.393655
00828,182839,9.448899,-0.212572,2.301922,0.046603,0.071047,0.004106,-0.527066,0.093332,-0.392109,-7.252794,-76.289748,6.379621
00829,182939,9.492578,-0.091636,2.334750,0.046546,0.068113,0.006029,-0.529560,0.091877,-0.392186,-7.217883,-76.251252,6.371178
00830,183039,9.539804,-0.006192,2.331729,0.042988,0.069856,0.003971,-0.527562,0.089378,-0.392812,-7.179760,-76.211912,6.357333
00831,183139,9.602426,-0.033118,2.321236,0.036505,0.082405,0.000158,-0.527022,0.091958,-0.394685,-7.132975,-76.165710,6.330745
00832,183239,9.597761,-0.156701,2.341906,0.024859,0.094560,-0.005114,-0.528537,0.090937,-0.393736,-7.077454,-76.112965,6.288283
00833,183339,9.520110,-0.262402,2.349495,0.015140,0.095345,-0.005057,-0.527081,0.090319,-0.391762,-7.027772,-76.059758,6.246089
00834,183439,9.452859,-0.360192,2.346543,0.011360,0.080731,-0.007499,-0.529019,0.089498,-0.394812,-6.979145,-76.015019,6.202740
00835,183539,9.474537,-0.337707,2.339430,0.019817,0.068388,-0.005692,-0.529555,0.089410,-0.392813,-6.933534,-75.977164,6.167485
00836,183639,9.530895,-0.235807,2.402655,0.040529,0.055740,-0.000195,-0.529010,0.089522,-0.395312,-6.892244,-75.946112,6.148912
00837,183739,9.578485,-0.166503,2.374042,0.061381,0.058935,-0.002278,-0.530486,0.089594,-0.396312,-6.833529,-75.913382,6.124692
00838,183839,9.609678,-0.123268,2.333614,0.069846,0.067627,-0.006642,-0.528516,0.087023,-0.395439,-6.757912,-75.876001,6.088043
00839,183939,9.549124,-0.224248,2.301583,0.061247,0.067913,-0.011645,-0.528519,0.085529,-0.395515,-6.676146,-75.838785,6.039967
00840,184039,9.490154,-0.298607,2.358388,0.041599,0.048026,-0.010159,-0.528525,0.087497,-0.394913,-6.614521,-75.812774,6.001046
00841,184139,9.509757,-0.339681,2.378947,0.016701,0.034509,-0.001220,-0.529483,0.088108,-0.396888,-6.590965,-75.793858,5.986674
00842,184239,9.502383,-0.325148,2.374694,0.013411,0.036741,0.001937,-0.526986,0.086598,-0.397463,-6.575882,-75.773462,5.979094
00843,184339,9.460641,-0.244626,2.313394,0.019350,0.042108,0.005784,-0.526482,0.089579,-0.397310,-6.564673,-75.749762,5.979021
00844,184439,9.471214,-0.119489,2.363651,0.024053,0.043467,0.007885,-0.526981,0.089089,-0.397336,-6.555103,-75.725153,5.983422
00845,184539,9.490169,0.019472,2.422995,0.030368,0.048684,0.002742,-0.527998,0.088060,-0.396388,-6.529016,-75.697909,5.974518
00846,184639,9.488269,0.047707,2.361960,0.027264,0.041230,-0.000740,-0.524991,0.087562,-0.397412,-6.498813,-75.675138,5.959535
00847,184739,9.502502,-0.034673,2.390400,0.022873,0.028840,-0.005393,-0.526035,0.086960,-0.394938,-6.463899,-75.659721,5.937096
00848,184839,9.536586,-0.131249,2.470711,0.010609,0.018536,-0.009011,-0.526021,0.089475,-0.395311,-6.430568,-75.650396,5.909039
00849,184939,9.517983,-0.224289,2.453867,-0.000811,0.024522,-0.010418,-0.522967,0.090094,-0.398783,-6.399191,-75.637745,5.876244
00850,185039,9.475383,-0.216834,2.384096,-0.015195,0.032682,-0.009638,-0.523452,0.092119,-0.399182,-6.375812,-75.620394,5.843196
00851,185139,9.440116,-0.178163,2.324283,-0.028177,0.029315,-0.005704,-0.522445,0.092626,-0.399656,-6.369481,-75.604712,5.820067
00852,185239,9.418455,-0.099873,2.361698,-0.031939,0.019465,-0.001686,-0.520499,0.092474,-0.397156,-6.376635,-75.594387,5.808636
00853,185339,9.441067,-0.103654,2.432655,-0.029296,0.013673,-0.001828,-0.520957,0.094073,-0.399079,-6.383353,-75.587366,5.798320
00854,185439,9.471198,-0.120057,2.445585,-0.017479,0.010305,-0.004356,-0.522477,0.095519,-0.397504,-6.378500,-75.582421,5.783050
00855,185539,9.470377,-0.222724,2.434794,-0.004916,0.007126,-0.006562,-0.521918,0.098644,-0.400350,-6.362353,-75.579423,5.763551
00856,185639,9.478622,-0.296354,2.439252,0.011794,0.000953,-0.007285,-0.520913,0.098155,-0.400875,-6.336579,-75.579981,5.743997
00857,185739,9.543753,-0.348085,2.451353,0.025734,-0.004707,-0.008010,-0.523883,0.098748,-0.401850,-6.302634,-75.583800,5.724250
00858,185839,9.576564,-0.390865,2.457346,0.028366,-0.004742,-0.009253,-0.522912,0.099657,-0.400300,-6.264475,-75.587711,5.701706
00859,185939,9.613873,-0.433455,2.438133,0.034013,0.006009,-0.012376,-0.522380,0.103209,-0.401621,-6.213608,-75.585686,5.669378
00860,186039,9.631449,-0.403632,2.457271,0.039844,0.010908,-0.010347,-0.524386,0.100725,-0.401249,-6.162791,-75.580736,5.640548
00861,186139,9.652817,-0.315339,2.464263,0.045148,0.015275,-0.009461,-0.524340,0.100846,-0.403748,-6.109917,-75.573234,5.612730
00862,186239,9.656142,-0.228184,2.439104,0.046912,0.022561,-0.009882,-0.523853,0.099817,-0.403299,-6.053430,-75.561603,5.582222
00863,186339,9.633611,-0.205443,2.432246,0.036870,0.026204,-0.006589,-0.526356,0.098338,-0.402876,-6.009191,-75.547691,5.558421
00864,186439,9.538667,-0.197868,2.432806,0.033008,0.016694,-0.005239,-0.524303,0.100942,-0.405747,-5.972405,-75.539114,5.540029
00865,186539,9.489962,-0.192217,2.471211,0.041154,0.000587,-0.004145,-0.525325,0.101882,-0.404197,-5.937099,-75.539643,5.527987
00866,186639,9.417407,-0.305101,2.445622,0.050918,-0.003018,-0.005964,-0.526335,0.104839,-0.403046,-5.893029,-75.542328,5.512669
00867,186739,9.258424,-0.425870,2.370701,0.055679,0.001247,-0.006195,-0.524353,0.103787,-0.402596,-5.844812,-75.542589,5.495883
00868,186839,9.164936,-0.385657,2.303096,0.049742,0.001737,0.001764,-0.527332,0.104357,-0.403071,-5.817543,-75.542105,5.497212
00869,186939,9.161099,-0.180485,2.235838,0.043108,-0.009382,0.014207,-0.526776,0.105490,-0.406019,-5.824091,-75.547244,5.529540
00870,187039,9.249771,0.095441,2.270671,0.042722,-0.026950,0.021667,-0.526332,0.106333,-0.402970,-5.851275,-75.561969,5.582952
00871,187139,9.459182,0.274224,2.388207,0.038758,-0.043162,0.025154,-0.527312,0.104903,-0.404046,-5.892096,-75.585726,5.648106
00872,187239,9.611610,0.280963,2.512102,0.028406,-0.049923,0.022722,-0.527755,0.110013,-0.406291,-5.935028,-75.613468,5.709314
00873,187339,9.697844,0.105830,2.557795,0.016086,-0.050492,0.020304,-0.528800,0.108414,-0.403868,-5.979865,-75.641660,5.765202
00874,187439,9.743008,-0.100194,2.573926,0.011952,-0.054431,0.012806,-0.531750,0.109555,-0.405818,-6.011429,-75.672529,5.804939
00875,187539,9.722887,-0.312931,2.562355,0.021208,-0.054283,0.007452,-0.532219,0.110133,-0.407292,-6.025861,-75.703621,5.832460
00876,187639,9.645680,-0.455178,2.514789,0.027260,-0.041127,0.000703,-0.532265,0.110511,-0.404767,-6.018752,-75.727612,5.841323
00877,187739,9.507122,-0.503025,2.456542,0.026009,-0.015887,-0.001610,-0.531214,0.110141,-0.407791,-6.001307,-75.737353,5.838776
00878,187839,9.353314,-0.421285,2.306949,0.023183,0.003270,-0.002840,-0.535653,0.114294,-0.409589,-5.978276,-75.736252,5.828790
00879,187939,9.277298,-0.264514,2.236205,0.018051,0.000251,0.000765,-0.535651,0.115291,-0.409538,-5.966999,-75.736662,5.827897
00880,188039,9.316602,-0.110387,2.211032,0.008796,-0.013461,0.006294,-0.536121,0.115371,-0.411037,-5.976611,-75.744567,5.843088
00881,188139,9.392701,-0.012379,2.278032,-0.002078,-0.031308,0.012162,-0.534664,0.115251,-0.409038,-6.009789,-75.762298,5.876167
00882,188239,9.509664,0.008991,2.350192,-0.013714,-0.045040,0.011224,-0.537140,0.118304,-0.409386,-6.050811,-75.787908,5.910460
00883,188339,9.566719,-0.049593,2.411979,-0.024252,-0.053098,0.010612,-0.538119,0.117371,-0.410437,-6.098512,-75.818139,5.945414
00884,188439,9.590982,-0.223077,2.443509,-0.040999,-0.050048,0.010447,-0.536611,0.119863,-0.410809,-6.154878,-75.846630,5.979403
00885,188539,9.587726,-0.358203,2.455143,-0.047486,-0.040294,0.012024,-0.539048,0.119051,-0.413859,-6.216358,-75.869452,6.014825
00886,188639,9.531113,-0.405008,2.430876,-0.039696,-0.025677,0.008895,-0.538616,0.123334,-0.409632,-6.262864,-75.884128,6.039404
00887,188739,9.523931,-0.382460,2.368375,-0.028951,-0.017815,0.005839,-0.540065,0.122980,-0.412157,-6.294447,-75.894511,6.054938
00888,188839,9.499230,-0.289672,2.365619,-0.015033,-0.016610,0.002892,-0.539537,0.124041,-0.413605,-6.311121,-75.904390,6.063321
00889,188939,9.519151,-0.250314,2.334162,-0.013160,-0.023028,0.002507,-0.539047,0.125005,-0.413055,-6.327488,-75.917949,6.072492
00890,189039,9.515313,-0.204545,2.313226,-0.017254,-0.025705,0.001560,-0.542032,0.126547,-0.412979,-6.344744,-75.933095,6.080162
00891,189139,9.468241,-0.201677,2.322285,-0.035480,-0.033908,-0.001312,-0.538481,0.126660,-0.416477,-6.368015,-75.953095,6.083266
00892,189239,9.518278,-0.205682,2.314190,-0.048575,-0.026309,0.000421,-0.536012,0.129538,-0.414824,-6.400834,-75.968660,6.088479
00893,189339,9.517229,-0.073642,2.401902,-0.060388,-0.004644,0.004557,-0.538493,0.130100,-0.415300,-6.444278,-75.971620,6.097669
00894,189439,9.510535,0.064595,2.343180,-0.073056,-0.000327,0.006791,-0.536958,0.132165,-0.417197,-6.498868,-75.971979,6.110870
00895,189539,9.573503,0.222185,2.222451,-0.072690,0.005324,0.006098,-0.537932,0.134222,-0.418095,-6.550048,-75.969178,6.120783
00896,189639,9.516716,0.168154,2.295223,-0.081446,-0.010651,0.003460,-0.536950,0.136650,-0.416968,-6.604290,-75.975648,6.128687
00897,189739,9.537434,-0.006828,2.351686,-0.089203,-0.035885,-0.006449,-0.537896,0.138779,-0.419366,-6.647019,-75.997134,6.120147
00898,189839,9.570204,-0.194921,2.437263,-0.080309,-0.046846,-0.012463,-0.535860,0.142331,-0.421187,-6.673857,-76.025251,6.100483
00899,189939,9.587335,-0.335239,2.446612,-0.060774,-0.034999,-0.017783,-0.534401,0.143207,-0.419136,-6.674173,-76.046973,6.065024
00900,190039,9.542726,-0.502831,2.351845,-0.046381,-0.007908,-0.021537,-0.534871,0.143287,-0.420635,-6.650428,-76.053522,6.013267
00901,190139,9.410701,-0.589518,2.334687,-0.031358,0.005073,-0.017443,-0.532866,0.150231,-0.420280,-6.624095,-76.052399,5.967706
00902,190239,9.392574,-0.564171,2.389220,-0.019250,0.003767,-0.012742,-0.528872,0.150192,-0.420778,-6.602056,-76.051695,5.933713
00903,190339,9.397726,-0.494384,2.345180,-0.011841,-0.013730,-0.009066,-0.530369,0.154177,-0.420075,-6.588916,-76.060698,5.913257
00904,190439,9.443689,-0.448674,2.324529,-0.008418,-0.039706,-0.009768,-0.530373,0.157143,-0.419423,-6.579124,-76.084528,5.898270
00905,190539,9.510147,-0.434116,2.341813,0.002023,-0.058133,-0.009952,-0.526384,0.159072,-0.419320,-6.567829,-76.118854,5.887895
00906,190639,9.570161,-0.435753,2.362971,0.016462,-0.064196,-0.008729,-0.524903,0.161990,-0.418168,-6.552698,-76.156546,5.882088
00907,190739,9.557108,-0.411168,2.340765,0.027459,-0.055174,-0.012032,-0.521826,0.165148,-0.422513,-6.521220,-76.189314,5.865931
00908,190839,9.505193,-0.425888,2.332269,0.028077,-0.048571,-0.013022,-0.521802,0.167688,-0.423385,-6.485298,-76.218381,5.845563
00909,190939,9.538201,-0.396799,2.310787,0.027285,-0.032169,-0.006656,-0.515871,0.167971,-0.420859,-6.460251,-76.237694,5.835923
00910,191039,9.462299,-0.260813,2.258290,0.025717,-0.028774,-0.003415,-0.512799,0.173099,-0.424602,-6.442720,-76.254867,5.833095
00911,191139,9.461649,-0.089347,2.212413,0.029947,-0.041575,-0.000445,-0.510861,0.173420,-0.421577,-6.432983,-76.279144,5.840788
00912,191239,9.500097,-0.005961,2.252400,0.031915,-0.054855,-0.000191,-0.508335,0.177938,-0.422848,-6.426133,-76.310971,5.852617
00913,191339,9.566859,-0.031687,2.247362,0.030205,-0.059692,-0.000978,-0.504864,0.179328,-0.421771,-6.419647,-76.345609,5.863812
00914,191439,9.608007,-0.130777,2.234949,0.026814,-0.055305,-0.002976,-0.504346,0.179867,-0.422745,-6.409233,-76.377883,5.868967
00915,191539,9.607012,-0.290288,2.205856,0.018069,-0.044202,-0.005626,-0.500324,0.185357,-0.423964,-6.394676,-76.404012,5.864702
00916,191639,9.595036,-0.354688,2.147918,0.009051,-0.031921,-0.004465,-0.496360,0.188709,-0.422285,-6.384804,-76.423083,5.859938
00917,191739,9.558551,-0.295105,2.165068,0.005839,-0.034083,0.000879,-0.492846,0.188726,-0.423783,-6.389970,-76.443052,5.868750
00918,191839,9.500162,-0.188536,2.145174,0.001360,-0.033589,0.005340,-0.489854,0.190173,-0.423706,-6.408137,-76.462464,5.888295
00919,191939,9.491289,-0.071318,2.122758,0.001098,-0.033084,0.013836,-0.484374,0.196041,-0.422900,-6.446445,-76.481053,5.928403
00920,192039,9.480723,0.008892,2.159643,-0.006191,-0.038237,0.017592,-0.480923,0.196387,-0.420874,-6.499262,-76.502334,5.979137
00921,192139,9.541218,0.031853,2.198633,-0.000725,-0.052683,0.017949,-0.477443,0.197803,-0.420297,-6.553811,-76.531811,6.034871
00922,192239,9.626329,-0.041914,2.226795,0.007334,-0.055858,0.013714,-0.472469,0.199194,-0.419719,-6.594703,-76.563368,6.081307
00923,192339,9.692548,-0.194815,2.269230,0.008669,-0.038841,0.008125,-0.468549,0.203920,-0.415466,-6.616960,-76.585603,6.109366
00924,192439,9.626268,-0.332367,2.207991,0.001477,-0.012498,0.001571,-0.463115,0.204710,-0.412914,-6.620489,-76.593279,6.113932
00925,192539,9.516431,-0.406874,2.162098,-0.002291,-0.008944,-0.000003,-0.459633,0.206623,-0.412312,-6.621504,-76.599040,6.113690
00926,192639,9.480273,-0.391306,2.187358,0.000998,-0.020575,0.002660,-0.456682,0.206479,-0.410312,-6.630289,-76.611246,6.123370
00927,192739,9.484641,-0.393342,2.254691,0.012004,-0.032620,0.006359,-0.449248,0.211223,-0.407556,-6.645050,-76.630056,6.145671
00928,192839,9.511945,-0.376036,2.341946,0.020637,-0.038489,0.010021,-0.446297,0.210581,-0.405581,-6.665387,-76.651951,6.178784
00929,192939,9.564914,-0.341002,2.393953,0.027051,-0.037763,0.012589,-0.439841,0.209931,-0.404605,-6.688131,-76.673246,6.218140
00930,193039,9.593514,-0.312329,2.384352,0.032615,-0.028284,0.015588,-0.436949,0.208148,-0.399683,-6.712331,-76.688930,6.262265
00931,193139,9.588633,-0.321246,2.308048,0.030245,-0.007201,0.015751,-0.431981,0.210513,-0.398554,-6.732391,-76.692595,6.300737
00932,193239,9.557394,-0.308630,2.219433,0.020455,0.017425,0.011435,-0.430583,0.208255,-0.393657,-6.740707,-76.682537,6.321375
00933,193339,9.524132,-0.192478,2.124181,0.004378,0.033380,0.014546,-0.424176,0.206489,-0.390233,-6.761127,-76.663198,6.344988
00934,193439,9.485521,0.010820,2.037018,-0.008872,0.025122,0.021677,-0.419757,0.206748,-0.386708,-6.808442,-76.648088,6.388446
00935,193539,9.480311,0.108143,2.040253,-0.014233,-0.003473,0.025938,-0.418360,0.203992,-0.381836,-6.877068,-76.648961,6.450657
00936,193639,9.500922,0.069550,2.094139,-0.023946,-0.028764,0.026639,-0.415460,0.201237,-0.377464,-6.960240,-76.664165,6.522101
00937,193739,9.579290,-0.027477,2.213369,-0.028257,-0.050994,0.026057,-0.411013,0.196609,-0.376192,-7.051184,-76.692029,6.598991
00938,193839,9.685846,-0.107211,2.328451,-0.027183,-0.054559,0.027067,-0.409672,0.193211,-0.368347,-7.145317,-76.721816,6.679783
00939,193939,9.712089,-0.150087,2.320163,-0.025345,-0.044691,0.022597,-0.411174,0.189248,-0.368551,-7.224938,-76.746281,6.746738
00940,194039,9.647320,-0.248164,2.275680,-0.024279,-0.028694,0.014653,-0.408335,0.188318,-0.360578,-7.280074,-76.762207,6.789161
00941,194139,9.565952,-0.337844,2.142060,-0.022445,-0.009181,0.007407,-0.407433,0.182605,-0.356359,-7.310733,-76.767567,6.807515
00942,194239,9.458957,-0.435312,2.065111,-0.028304,0.000309,0.005188,-0.409488,0.178506,-0.353564,-7.336526,-76.767701,6.817420
00943,194339,9.365365,-0.444255,2.029397,-0.034384,-0.005340,0.004086,-0.407032,0.174408,-0.352267,-7.364979,-76.771134,6.826474
00944,194439,9.334751,-0.420645,2.045116,-0.031479,-0.023418,0.008119,-0.407583,0.170808,-0.349946,-7.407268,-76.784547,6.851447
00945,194539,9.391496,-0.351881,2.118082,-0.024689,-0.045136,0.012431,-0.409168,0.166629,-0.345652,-7.463096,-76.809976,6.894319
00946,194639,9.479935,-0.253087,2.207498,-0.018323,-0.062297,0.015595,-0.409731,0.161510,-0.342907,-7.528647,-76.844904,6.950918
00947,194739,9.586244,-0.175989,2.278952,-0.017246,-0.072466,0.018668,-0.411325,0.157806,-0.338087,-7.604663,-76.885354,7.018889
00948,194839,9.727485,-0.149905,2.291072,-0.013249,-0.064125,0.017565,-0.414399,0.151682,-0.334394,-7.673340,-76.921129,7.081667
00949,194939,9.784166,-0.111341,2.315999,-0.001252,-0.031410,0.015648,-0.413437,0.148106,-0.333072,-7.719863,-76.938455,7.128752
00950,195039,9.717666,-0.180038,2.259941,0.002617,-0.005678,0.005926,-0.417422,0.142713,-0.333853,-7.731873,-76.941914,7.142685
00951,195139,9.633705,-0.280472,2.136038,0.004329,0.005785,-0.003452,-0.422991,0.139095,-0.329534,-7.716150,-76.939590,7.129154
00952,195239,9.503826,-0.379289,2.179748,0.000508,-0.005907,-0.008138,-0.423015,0.136058,-0.328687,-7.695061,-76.944261,7.107866
00953,195339,9.505183,-0.427784,2.239621,0.003090,-0.021707,-0.006275,-0.428553,0.129547,-0.326520,-7.682319,-76.957752,7.096662
00954,195439,9.536212,-0.424373,2.246444,0.007864,-0.027497,-0.000153,-0.429592,0.125979,-0.324699,-7.683807,-76.974053,7.102871
00955,195539,9.554124,-0.394283,2.189007,0.012199,-0.012431,0.005499,-0.432631,0.123914,-0.322303,-7.691752,-76.981363,7.118254
00956,195639,9.500467,-0.332828,2.115155,0.009668,-0.001319,0.012216,-0.437091,0.121067,-0.323956,-7.713994,-76.981850,7.146820
00957,195739,9.499047,-0.262002,2.093485,0.003039,0.001995,0.017689,-0.439618,0.116551,-0.322686,-7.752368,-76.980035,7.188047
00958,195839,9.499309,-0.174882,2.109232,-0.002027,0.006864,0.022175,-0.444640,0.114540,-0.320790,-7.802977,-76.975106,7.238854
00959,195939,9.477718,-0.146449,2.076986,-0.002229,-0.004055,0.023290,-0.445671,0.110498,-0.319494,-7.860058,-76.976284,7.296187
00960,196039,9.454063,-0.160435,2.033910,-0.002576,-0.033315,0.024981,-0.450655,0.109082,-0.319571,-7.931469,-76.993930,7.368024
00961,196139,9.519226,-0.197220,2.091249,0.002629,-0.068019,0.020630,-0.454684,0.105063,-0.317777,-8.001366,-77.031600,7.441360
00962,196239,9.603575,-0.171785,2.212850,0.010999,-0.081922,0.018767,-0.457175,0.105103,-0.317778,-8.067106,-77.077284,7.515341
00963,196339,9.686194,-0.156570,2.223194,0.016323,-0.075344,0.015452,-0.459228,0.102499,-0.314906,-8.119684,-77.119485,7.578936
00964,196439,9.665157,-0.171966,2.215042,0.020470,-0.059154,0.011608,-0.461731,0.100521,-0.314509,-8.154877,-77.152802,7.627128
00965,196539,9.628571,-0.201076,2.178441,0.019312,-0.049826,0.005349,-0.463744,0.099509,-0.313561,-8.171974,-77.181331,7.656075
00966,196639,9.587121,-0.231871,2.195210,0.015088,-0.043740,0.002656,-0.467792,0.095441,-0.310766,-8.182664,-77.206624,7.675967
00967,196739,9.558785,-0.265618,2.173997,0.011644,-0.044700,0.002183,-0.467295,0.094437,-0.310817,-8.194547,-77.232494,7.695055
00968,196839,9.555158,-0.269805,2.163247,0.010489,-0.041136,0.000844,-0.469749,0.094573,-0.312817,-8.202503,-77.256450,7.709438
00969,196939,9.569425,-0.289522,2.158360,0.006829,-0.032514,0.003379,-0.471806,0.089478,-0.310073,-8.215846,-77.275304,7.727193
00970,197039,9.585204,-0.310697,2.082786,0.003910,-0.023951,0.005863,-0.473832,0.091406,-0.307973,-8.234055,-77.289101,7.748218
00971,197139,9.555537,-0.297430,2.014272,0.003967,-0.022979,0.010741,-0.479302,0.091517,-0.308474,-8.264208,-77.301951,7.781519
00972,197239,9.553154,-0.293926,2.007562,0.000684,-0.027088,0.013811,-0.478330,0.093422,-0.306873,-8.305562,-77.316881,7.824371
00973,197339,9.525238,-0.233859,2.044587,-0.000420,-0.039559,0.021186,-0.477826,0.091445,-0.307474,-8.370861,-77.338264,7.891116
00974,197439,9.553023,-0.168969,2.113699,0.001126,-0.047825,0.024630,-0.477331,0.094901,-0.306797,-8.447261,-77.364026,7.970140
00975,197539,9.577355,-0.151158,2.138796,0.006943,-0.049588,0.020356,-0.477348,0.096347,-0.305721,-8.510434,-77.391125,8.039019
00976,197639,9.607008,-0.185988,2.137972,0.006825,-0.045652,0.015237,-0.478851,0.096347,-0.305221,-8.559423,-77.416414,8.093288
00977,197739,9.571987,-0.254588,2.164532,-0.001665,-0.043154,0.011685,-0.478355,0.095342,-0.305272,-8.603481,-77.440576,8.137516
00978,197839,9.546658,-0.300389,2.160713,-0.004474,-0.041131,0.008334,-0.476844,0.094371,-0.306322,-8.639999,-77.463866,8.172367
00979,197939,9.544265,-0.309874,2.143553,-0.003230,-0.039917,0.007164,-0.476891,0.099208,-0.303069,-8.672484,-77.486560,8.203813
00980,198039,9.582050,-0.263633,2.108348,0.002859,-0.029793,0.006395,-0.477915,0.099152,-0.301570,-8.695657,-77.503581,8.229291
00981,198139,9.591733,-0.217003,2.085513,0.004973,-0.033419,0.009905,-0.478928,0.100116,-0.300520,-8.728066,-77.522349,8.265469
00982,198239,9.593242,-0.206012,2.079604,0.001254,-0.037729,0.011210,-0.476452,0.097063,-0.300172,-8.767728,-77.543440,8.306892
00983,198339,9.600912,-0.219766,2.086726,-0.000463,-0.048475,0.012023,-0.477413,0.101137,-0.301468,-8.814851,-77.570538,8.354944
00984,198439,9.604365,-0.232021,2.075898,-0.003948,-0.057517,0.011642,-0.479914,0.100654,-0.300994,-8.866811,-77.602780,8.405899
00985,198539,9.606158,-0.248732,2.053586,-0.003124,-0.064994,0.010788,-0.480874,0.100268,-0.303020,-8.919375,-77.639322,8.457949
00986,198639,9.605193,-0.248824,2.100321,-0.007455,-0.065297,0.006027,-0.479437,0.104062,-0.299317,-8.962506,-77.676446,8.497796
00987,198739,9.612335,-0.256326,2.137031,-0.007029,-0.069094,0.003317,-0.481450,0.103049,-0.298369,-9.000143,-77.715950,8.532265
00988,198839,9.604237,-0.267306,2.141386,-0.009395,-0.061187,0.001820,-0.480442,0.104552,-0.298792,-9.032176,-77.751103,8.559606
00989,198939,9.550909,-0.293719,2.074227,-0.011880,-0.050995,0.000521,-0.479429,0.109044,-0.299063,-9.058163,-77.780598,8.579300
00990,199039,9.494813,-0.339322,1.990121,-0.014373,-0.036407,-0.001908,-0.478461,0.108458,-0.297589,-9.073250,-77.802058,8.586377
00991,199139,9.435701,-0.315278,1.898411,-0.016612,-0.032472,-0.000463,-0.476934,0.110997,-0.298961,-9.091817,-77.821169,8.595701
00992,199239,9.423082,-0.320162,1.888136,-0.014241,-0.044727,0.004008,-0.475465,0.112894,-0.297359,-9.125991,-77.846813,8.622378
00993,199339,9.488742,-0.340081,1.954558,-0.012625,-0.059552,0.013877,-0.478459,0.114910,-0.296759,-9.191676,-77.879940,8.682231
00994,199439,9.537595,-0.303506,1.972400,-0.008871,-0.074984,0.021019,-0.476463,0.116872,-0.296656,-9.281072,-77.921122,8.768524
00995,199539,9.658180,-0.261930,2.026136,-0.010888,-0.084860,0.026167,-0.474967,0.117845,-0.296605,-9.390182,-77.967378,8.873779
00996,199639,9.736201,-0.208310,2.072126,-0.015989,-0.079253,0.031070,-0.472475,0.123760,-0.295800,-9.513553,-78.009957,8.990609
00997,199739,9.689129,-0.182722,2.055268,-0.020905,-0.075314,0.032060,-0.470001,0.125167,-0.294723,-9.641403,-78.050161,9.109123
00998,199839,9.619504,-0.181089,2.071845,-0.019877,-0.072013,0.028772,-0.469478,0.128196,-0.295570,-9.759114,-78.088760,9.217860
00999,199939,9.556912,-0.216204,1.994136,-0.015564,-0.069444,0.024948,-0.469465,0.130712,-0.295943,-9.863580,-78.126237,9.315571
01000,200039,9.494855,-0.267605,1.963356,-0.009080,-0.067728,0.023566,-0.468466,0.132190,-0.295866,-9.960413,-78.162846,9.409267
01001,200139,9.481727,-0.317317,1.868427,-0.001821,-0.072115,0.027558,-0.468466,0.137149,-0.295113,-10.066560,-78.201504,9.516713
01002,200239,9.560850,-0.313674,1.896457,-0.004372,-0.081327,0.035007,-0.466462,0.138636,-0.295536,-10.199541,-78.244565,9.650062
01003,200339,9.628692,-0.275379,1.954643,-0.018283,-0.082346,0.042708,-0.467970,0.141103,-0.294409,-10.362906,-78.287342,9.806280
01004,200439,9.763113,-0.160760,1.990729,-0.033620,-0.078353,0.048220,-0.466951,0.143626,-0.295282,-10.549174,-78.327200,9.976892
01005,200539,9.841831,-0.018684,2.004084,-0.041647,-0.067102,0.054215,-0.469463,0.147579,-0.293580,-10.751691,-78.359974,10.159382
01006,200639,9.801974,0.073326,1.956359,-0.050411,-0.050296,0.044650,-0.466437,0.147130,-0.295603,-10.925084,-78.384206,10.306996
01007,200739,9.686181,0.029398,1.925866,-0.065035,-0.043686,0.032203,-0.467389,0.151228,-0.297400,-11.069723,-78.406005,10.416696
01008,200839,9.542285,-0.151711,1.987469,-0.075160,-0.049042,0.015684,-0.467400,0.155664,-0.296172,-11.178115,-78.432588,10.483467
01009,200939,9.522776,-0.319670,2.050794,-0.072162,-0.054016,0.004573,-0.469328,0.155366,-0.299696,-11.257309,-78.463171,10.522181
01010,201039,9.603574,-0.489539,2.041168,-0.062332,-0.045101,0.002140,-0.472323,0.157382,-0.299096,-11.319589,-78.488994,10.549377
01011,201139,9.575752,-0.590835,1.861445,-0.037719,-0.025987,0.001963,-0.471315,0.158386,-0.299544,-11.356960,-78.504093,10.565537
01012,201239,9.517298,-0.632154,1.737822,-0.013853,-0.020104,0.008852,-0.471281,0.162445,-0.300841,-11.396619,-78.515112,10.597981
01013,201339,9.574112,-0.604375,1.756713,0.005722,-0.028813,0.021888,-0.476237,0.166059,-0.301664,-11.466192,-78.529542,10.672389
01014,201439,9.660789,-0.530091,1.821900,0.009901,-0.039393,0.033271,-0.470792,0.167371,-0.299587,-11.571158,-78.548590,10.785346
01015,201539,9.704721,-0.420540,1.877136,0.000603,-0.055536,0.041375,-0.475228,0.168061,-0.302062,-11.713616,-78.575713,10.931109
01016,201639,9.708661,-0.356229,1.853729,-0.016406,-0.070719,0.040370,-0.475716,0.173549,-0.301783,-11.872597,-78.611397,11.083770
01017,201739,9.667604,-0.310212,1.865077,-0.038960,-0.078303,0.042168,-0.473211,0.176523,-0.302129,-12.055009,-78.651030,11.247128
01018,201839,9.586177,-0.214089,1.859002,-0.055543,-0.074281,0.035507,-0.474715,0.176024,-0.301655,-12.226994,-78.689117,11.390142
01019,201939,9.503524,-0.194831,1.867839,-0.059912,-0.057931,0.025002,-0.474729,0.178966,-0.300503,-12.362928,-78.719256,11.493825
01020,202039,9.428367,-0.191700,1.855888,-0.051326,-0.043291,0.012006,-0.478205,0.180041,-0.300953,-12.448867,-78.742764,11.551539
01021,202139,9.420541,-0.241548,1.846561,-0.035482,-0.038750,0.002528,-0.476727,0.185924,-0.299149,-12.496437,-78.764891,11.579384
01022,202239,9.531967,-0.334810,1.843610,-0.017292,-0.050125,-0.000240,-0.477677,0.186060,-0.301648,-12.533029,-78.793719,11.606661
01023,202339,9.635566,-0.497651,1.896062,-0.006843,-0.065531,-0.005671,-0.476677,0.188536,-0.301521,-12.558176,-78.831830,11.628369
01024,202439,9.735929,-0.595676,1.912591,-0.002491,-0.067368,-0.001246,-0.478720,0.190914,-0.298395,-12.594813,-78.870405,11.664324
01025,202539,9.781525,-0.633307,1.905183,-0.002456,-0.058628,0.007842,-0.480729,0.192392,-0.297320,-12.652100,-78.902942,11.721335
01026,202639,9.771727,-0.600863,1.831649,-0.000719,-0.049771,0.019385,-0.478226,0.193871,-0.297743,-12.736084,-78.929058,11.806556
01027,202739,9.714824,-0.491351,1.759433,-0.002903,-0.050559,0.033339,-0.477244,0.196299,-0.296616,-12.862215,-78.953818,11.933437
01028,202839,9.683153,-0.380791,1.783967,-0.009011,-0.049025,0.040450,-0.478754,0.198267,-0.295515,-13.011784,-78.976753,12.080621
01029,202939,9.646077,-0.255705,1.829598,-0.012993,-0.052231,0.042660,-0.481279,0.199705,-0.293441,-13.172691,-79.001116,12.237021
01030,203039,9.591491,-0.190056,1.851101,-0.015596,-0.054977,0.039635,-0.479789,0.202148,-0.292813,-13.328879,-79.027325,12.387083
01031,203139,9.567222,-0.146817,1.840546,-0.010416,-0.043646,0.031742,-0.479775,0.204664,-0.293186,-13.452167,-79.048196,12.506649
01032,203239,9.545304,-0.113643,1.772276,-0.002359,-0.031995,0.025435,-0.479760,0.208175,-0.293508,-13.544896,-79.063382,12.599787
01033,203339,9.553556,-0.194371,1.704741,0.005631,-0.030924,0.021221,-0.482745,0.210216,-0.293407,-13.620319,-79.078523,12.679958
01034,203439,9.585581,-0.259163,1.702308,0.010746,-0.040975,0.018374,-0.482325,0.208520,-0.289485,-13.691826,-79.099634,12.759123
01035,203539,9.674970,-0.319899,1.754232,0.013026,-0.063970,0.020864,-0.482742,0.212209,-0.293306,-13.785839,-79.133188,12.862531
01036,203639,9.739979,-0.356809,1.782350,0.011651,-0.081848,0.024000,-0.483763,0.213647,-0.291730,-13.903214,-79.176223,12.988909
01037,203739,9.765582,-0.380304,1.822747,0.011131,-0.092219,0.026297,-0.484732,0.213735,-0.293230,-14.036117,-79.224653,13.130773
01038,203839,9.760103,-0.346726,1.805887,0.007021,-0.098151,0.028668,-0.485733,0.216218,-0.292604,-14.183937,-79.275983,13.285400
01039,203939,9.750172,-0.315324,1.787519,0.001048,-0.095417,0.030091,-0.486730,0.215735,-0.292629,-14.338726,-79.325518,13.443611
01040,204039,9.693315,-0.296099,1.773617,-0.008336,-0.079380,0.027772,-0.488735,0.219206,-0.291453,-14.481202,-79.366408,13.583800
01041,204139,9.639090,-0.269601,1.714667,-0.020097,-0.060742,0.024566,-0.492185,0.218860,-0.293478,-14.607558,-79.397367,13.700716
01042,204239,9.514630,-0.225634,1.578249,-0.033617,-0.055057,0.021363,-0.490187,0.216859,-0.294079,-14.728374,-79.425606,13.804106
01043,204339,9.504674,-0.238563,1.565627,-0.043677,-0.066927,0.017022,-0.493694,0.221326,-0.292352,-14.851943,-79.461029,13.904424
01044,204439,9.559301,-0.274357,1.574524,-0.050974,-0.082934,0.017827,-0.495662,0.219437,-0.293954,-14.995597,-79.505165,14.020906
01045,204539,9.671932,-0.389014,1.629181,-0.056846,-0.102088,0.018224,-0.497154,0.220458,-0.293904,-15.160446,-79.559787,14.155502
01046,204639,9.790220,-0.455910,1.699803,-0.056051,-0.112760,0.020326,-0.497632,0.221510,-0.294852,-15.341576,-79.619918,14.307087
01047,204739,9.795107,-0.476154,1.729245,-0.049903,-0.115868,0.017875,-0.500171,0.220433,-0.292405,-15.516303,-79.682050,14.455714
01048,204839,9.710389,-0.454188,1.723868,-0.041914,-0.109016,0.010490,-0.503583,0.220681,-0.296404,-15.660025,-79.741460,14.577451
01049,204939,9.646535,-0.400395,1.694455,-0.028286,-0.095795,0.001211,-0.502616,0.220094,-0.294930,-15.757573,-79.794969,14.660181
01050,205039,9.656295,-0.410759,1.638540,-0.016773,-0.084292,-0.004095,-0.505561,0.223726,-0.296753,-15.823081,-79.842942,14.717046
01051,205139,9.656494,-0.445113,1.604418,-0.007703,-0.078701,-0.001961,-0.507535,0.224304,-0.297727,-15.885652,-79.887492,14.776198
01052,205239,9.659114,-0.476977,1.589618,-0.008140,-0.072829,-0.002890,-0.507535,0.224304,-0.297727,-15.940954,-79.928944,14.827703
01053,205339,9.662454,-0.503667,1.593419,-0.007254,-0.073481,-0.000798,-0.511494,0.228401,-0.298525,-16.003321,-79.970417,14.886891
01054,205439,9.701814,-0.496144,1.647519,-0.012026,-0.073013,0.008904,-0.508508,0.226859,-0.298600,-16.098861,-80.010078,14.976979
01055,205539,9.774504,-0.441460,1.692939,-0.016988,-0.072653,0.017995,-0.509475,0.232902,-0.299295,-16.226161,-80.048056,15.096416
01056,205639,9.796498,-0.377035,1.743573,-0.028289,-0.067910,0.021849,-0.513403,0.233608,-0.302270,-16.368589,-80.082749,15.224626
01057,205739,9.762472,-0.324906,1.808624,-0.047208,-0.059400,0.022766,-0.512930,0.235022,-0.300694,-16.517681,-80.112549,15.348584
01058,205839,9.733994,-0.308556,1.787968,-0.066407,-0.046608,0.014871,-0.515929,0.240004,-0.299441,-16.641517,-80.136553,15.435733
01059,205939,9.745286,-0.324258,1.691904,-0.080265,-0.033857,0.009114,-0.514360,0.240172,-0.303439,-16.743415,-80.154472,15.492551
01060,206039,9.774219,-0.379141,1.611509,-0.076090,-0.012388,0.005897,-0.516346,0.243692,-0.303262,-16.812476,-80.161133,15.518469
01061,206139,9.778270,-0.417816,1.553450,-0.064256,0.001849,0.002952,-0.522820,0.244791,-0.303213,-16.851860,-80.160476,15.521148
01062,206239,9.755186,-0.484613,1.497463,-0.053262,0.012373,0.002152,-0.518847,0.242711,-0.302814,-16.872365,-80.154187,15.511059
01063,206339,9.658424,-0.514161,1.446742,-0.050605,0.007140,0.003769,-0.525337,0.245257,-0.301689,-16.901513,-80.150508,15.511286
01064,206439,9.564522,-0.567889,1.545355,-0.052640,-0.016994,-0.003028,-0.524313,0.245313,-0.303188,-16.933597,-80.161190,15.513308
01065,206539,9.643980,-0.618445,1.669916,-0.066445,-0.045269,0.000330,-0.527284,0.244910,-0.304214,-17.011647,-80.186793,15.553952
01066,206639,9.737343,-0.658341,1.687790,-0.074850,-0.050513,0.008112,-0.529780,0.241961,-0.304367,-17.124730,-80.213936,15.625254
01067,206739,9.754442,-0.616064,1.583760,-0.074930,-0.037584,0.015744,-0.530306,0.241896,-0.302868,-17.249971,-80.232679,15.708839
01068,206839,9.673964,-0.572941,1.472924,-0.076176,-0.023875,0.020138,-0.532281,0.241478,-0.303894,-17.376740,-80.243148,15.793246
01069,206939,9.607433,-0.496695,1.408337,-0.078548,-0.022157,0.017714,-0.534248,0.240087,-0.305470,-17.495704,-80.253074,15.868350
01070,207039,9.557265,-0.438637,1.434335,-0.070086,-0.036892,0.012299,-0.536762,0.237587,-0.304598,-17.607654,-80.271967,15.941254
01071,207139,9.484854,-0.453373,1.430454,-0.063961,-0.061763,0.004836,-0.538748,0.236148,-0.305175,-17.717979,-80.305720,16.016063
01072,207239,9.466355,-0.536256,1.419637,-0.055179,-0.100077,-0.003020,-0.538275,0.237064,-0.303624,-17.838256,-80.361730,16.106061
01073,207339,9.514582,-0.606678,1.436531,-0.047192,-0.141850,-0.003058,-0.541755,0.236147,-0.304176,-17.998905,-80.440484,16.241624
01074,207439,9.706227,-0.582301,1.503884,-0.040929,-0.156244,-0.001840,-0.543763,0.237625,-0.303101,-18.177829,-80.526793,16.399320
01075,207539,9.837783,-0.542787,1.549386,-0.030908,-0.129561,-0.000579,-0.543261,0.234652,-0.303753,-18.329181,-80.598278,16.534849
01076,207639,9.839003,-0.509106,1.470850,-0.024461,-0.092558,-0.003200,-0.545735,0.233743,-0.304804,-18.429592,-80.650071,16.622465
01077,207739,9.785455,-0.517340,1.362500,-0.019056,-0.068862,-0.004698,-0.551223,0.234305,-0.304281,-18.496721,-80.689247,16.679478
01078,207839,9.708570,-0.485266,1.307011,-0.020338,-0.063442,-0.007768,-0.550197,0.229901,-0.306508,-18.548882,-80.726040,16.720574
01079,207939,9.703357,-0.505261,1.346305,-0.024416,-0.067720,-0.010788,-0.550705,0.229387,-0.306034,-18.598516,-80.765711,16.756736
01080,208039,9.709190,-0.445875,1.384875,-0.033529,-0.073924,-0.012717,-0.554201,0.229916,-0.305510,-18.654307,-80.809105,16.793843
01081,208139,9.705739,-0.398849,1.426103,-0.041093,-0.073059,-0.012832,-0.557715,0.224941,-0.304766,-18.713483,-80.852049,16.829983
01082,208239,9.735243,-0.382889,1.452818,-0.048030,-0.068843,-0.011327,-0.556178,0.228003,-0.306612,-18.777297,-80.892425,16.866792
01083,208339,9.730582,-0.382578,1.426268,-0.054637,-0.062043,-0.010483,-0.559660,0.225591,-0.307240,-18.840307,-80.928954,16.898949
01084,208439,9.730482,-0.418385,1.400560,-0.050901,-0.049148,-0.011938,-0.558671,0.226548,-0.306689,-18.881554,-80.958761,16.911234
01085,208539,9.715379,-0.449097,1.388776,-0.041595,-0.041407,-0.010119,-0.560124,0.223702,-0.309341,-18.914794,-80.984038,16.920808
01086,208639,9.681036,-0.486240,1.340793,-0.032273,-0.031170,-0.012654,-0.563059,0.222898,-0.312391,-18.922135,-81.004242,16.909566
01087,208739,9.678355,-0.527835,1.324046,-0.025433,-0.020535,-0.017526,-0.565550,0.222439,-0.312418,-18.896385,-81.019592,16.868791
01088,208839,9.682455,-0.579154,1.347436,-0.026682,-0.019540,-0.017030,-0.565018,0.221033,-0.314493,-18.871847,-81.034310,16.828518
01089,208939,9.696834,-0.577013,1.389994,-0.032792,-0.021868,-0.015064,-0.565519,0.219546,-0.314569,-18.860276,-81.049923,16.797829
01090,209039,9.687277,-0.523706,1.483453,-0.039039,-0.021743,-0.011976,-0.567503,0.218606,-0.315120,-18.862740,-81.064889,16.777723
01091,209139,9.682552,-0.488106,1.496350,-0.038745,-0.018379,-0.011211,-0.568468,0.220686,-0.316518,-18.863681,-81.077882,16.756248
01092,209239,9.726619,-0.491549,1.482359,-0.036984,-0.011302,-0.011607,-0.567417,0.220317,-0.319542,-18.853863,-81.087106,16.724904
01093,209339,9.745015,-0.532672,1.456347,-0.039877,-0.004728,-0.012258,-0.570927,0.217833,-0.318671,-18.835680,-81.092881,16.683415
01094,209439,9.769455,-0.563003,1.439232,-0.042130,-0.001595,-0.011924,-0.570879,0.218451,-0.321144,-18.816264,-81.096888,16.639370
01095,209539,9.766059,-0.559239,1.415780,-0.044050,0.000505,-0.013611,-0.568895,0.218894,-0.320618,-18.789653,-81.100062,16.586929
01096,209639,9.761317,-0.542660,1.430111,-0.048755,0.007456,-0.018104,-0.569875,0.217463,-0.321695,-18.742006,-81.100286,16.510467
01097,209739,9.762472,-0.485856,1.431047,-0.051521,0.011947,-0.017926,-0.570876,0.214988,-0.321822,-18.691309,-81.098029,16.429313
01098,209839,9.764752,-0.412842,1.394716,-0.047641,0.011851,-0.021156,-0.572827,0.217607,-0.323695,-18.627324,-81.096407,16.336960
01099,209939,9.713133,-0.359502,1.364214,-0.035921,0.010420,-0.023777,-0.572301,0.217671,-0.325194,-18.549197,-81.096030,16.237090
01100,210039,9.678394,-0.311675,1.372153,-0.023692,0.003228,-0.029800,-0.572257,0.216795,-0.327744,-18.451437,-81.100639,16.124441
01101,210139,9.652733,-0.341023,1.371693,-0.004965,0.003124,-0.036366,-0.575235,0.211909,-0.328999,-18.320092,-81.106461,15.988662
01102,210239,9.645786,-0.421613,1.393692,0.010967,0.008251,-0.044899,-0.574713,0.214939,-0.329845,-18.143880,-81.110969,15.816712
01103,210339,9.678282,-0.520968,1.389048,0.010586,0.022532,-0.051205,-0.573711,0.212954,-0.330446,-17.929655,-81.108724,15.606066
01104,210439,9.690734,-0.574100,1.368407,0.004085,0.039695,-0.051454,-0.576169,0.210598,-0.332574,-17.699373,-81.097035,15.375392
01105,210539,9.694911,-0.615833,1.313439,-0.008531,0.041676,-0.042506,-0.574699,0.212496,-0.330972,-17.506035,-81.082586,15.174786
01106,210639,9.724593,-0.600570,1.313260,-0.019679,0.038671,-0.030728,-0.575150,0.212624,-0.333471,-17.364076,-81.067671,15.019714
01107,210739,9.771518,-0.513694,1.341242,-0.022203,0.035949,-0.018831,-0.578601,0.212277,-0.335497,-17.268405,-81.052172,14.910029
01108,210839,9.755587,-0.468291,1.361998,-0.016762,0.040928,-0.006589,-0.574075,0.210334,-0.338096,-17.207143,-81.031852,14.838328
01109,210939,9.697963,-0.480414,1.356315,-0.001268,0.042099,-0.002616,-0.577554,0.209417,-0.338648,-17.149858,-81.010212,14.779636
01110,211039,9.663785,-0.487859,1.340180,0.016310,0.040863,0.000185,-0.575593,0.207320,-0.337250,-17.093826,-80.988773,14.732405
01111,211139,9.644613,-0.509078,1.342552,0.033952,0.041565,-0.000586,-0.577557,0.207922,-0.338724,-17.024607,-80.967076,14.682055
01112,211239,9.624426,-0.479305,1.346185,0.045849,0.042224,-0.005722,-0.578528,0.206515,-0.340300,-16.930558,-80.945872,14.613460
01113,211339,9.564526,-0.444737,1.344685,0.050071,0.035765,-0.009229,-0.577503,0.207070,-0.341774,-16.829180,-80.928781,14.539889
01114,211439,9.576325,-0.418150,1.403521,0.045259,0.023763,-0.010563,-0.579505,0.206579,-0.341300,-16.738710,-80.918478,14.474570
01115,211539,9.724331,-0.339162,1.439312,0.044463,0.032466,-0.004343,-0.579996,0.205615,-0.341851,-16.661236,-80.902363,14.421949
01116,211639,9.601411,-0.357616,1.516694,0.072089,0.039649,0.007291,-0.580954,0.206225,-0.343825,-16.600623,-80.880384,14.402433
01117,211739,10.000212,-0.272602,1.423069,0.018277,0.041392,0.015007,-0.580009,0.203598,-0.341452,-16.595491,-80.856194,14.407884
01118,211839,9.565056,-0.403741,1.428667,0.023975,0.015879,0.020465,-0.581534,0.202055,-0.340030,-16.631605,-80.845119,14.458418
01119,211939,9.486489,-0.387303,1.490588,0.028346,-0.019730,0.021506,-0.582481,0.203685,-0.342453,-16.704998,-80.853408,14.549249
01120,212039,9.723486,-0.447185,1.449303,0.014758,-0.021195,0.022567,-0.581015,0.203091,-0.340979,-16.791477,-80.862306,14.645447
01121,212139,9.643804,-0.527411,1.535121,0.056359,0.003056,0.027745,-0.584054,0.201025,-0.338582,-16.846913,-80.857018,14.734342
01122,212239,9.808026,-0.504394,1.445065,0.041189,0.032976,0.036479,-0.584982,0.202704,-0.342005,-16.909746,-80.833859,14.821929
01123,212339,9.628421,-0.460889,1.309882,0.064246,0.031557,0.037379,-0.582455,0.202761,-0.344003,-16.963566,-80.811325,14.913773
01124,212439,9.497878,-0.411187,1.344546,0.094047,0.015697,0.031212,-0.585549,0.200551,-0.338608,-16.995565,-80.798511,15.000814
01125,212539,9.602650,-0.342426,1.400244,0.095194,-0.000416,0.021513,-0.585494,0.200695,-0.341607,-17.010639,-80.796152,15.071377
01126,212639,9.630245,-0.391219,1.480859,0.091988,-0.014635,0.021661,-0.587968,0.199288,-0.342683,-17.042767,-80.801554,15.157356
01127,212739,9.589589,-0.379969,1.535367,0.079975,-0.027925,0.028251,-0.587008,0.199674,-0.340658,-17.117983,-80.813108,15.280009
01128,212839,9.647452,-0.304429,1.555081,0.063905,-0.046584,0.035227,-0.586991,0.199224,-0.341683,-17.245865,-80.833656,15.446680
01129,212939,9.725109,-0.279896,1.513913,0.049746,-0.049175,0.038487,-0.590009,0.198203,-0.340236,-17.396276,-80.855002,15.627944
01130,213039,9.712094,-0.296078,1.457250,0.043017,-0.037159,0.038579,-0.588505,0.198203,-0.340735,-17.538642,-80.869695,15.797148
01131,213139,9.596832,-0.318178,1.407540,0.046409,-0.026375,0.037057,-0.589510,0.198693,-0.340210,-17.662644,-80.878707,15.949715
01132,213239,9.495505,-0.340025,1.386293,0.055598,-0.020762,0.034198,-0.591030,0.199641,-0.338660,-17.765770,-80.885110,16.086468
01133,213339,9.506194,-0.341467,1.330312,0.066997,-0.022804,0.027265,-0.592484,0.196298,-0.341338,-17.841160,-80.893819,16.201743
01134,213439,9.538974,-0.412727,1.329545,0.073944,-0.033365,0.019951,-0.593985,0.197792,-0.340762,-17.899488,-80.909559,16.303766
01135,213539,9.598412,-0.471998,1.372848,0.081112,-0.050471,0.019711,-0.590971,0.196322,-0.342337,-17.972155,-80.934652,16.424464
01136,213639,9.663099,-0.507377,1.451710,0.080322,-0.063735,0.023032,-0.593535,0.197166,-0.338289,-18.072049,-80.966353,16.572260
01137,213739,9.686227,-0.461201,1.481558,0.084642,-0.065292,0.025968,-0.592983,0.195807,-0.341363,-18.182185,-80.998331,16.732921
01138,213839,9.669630,-0.404540,1.490816,0.082969,-0.061122,0.026071,-0.593984,0.193332,-0.341491,-18.289814,-81.027970,16.890059
01139,213939,9.660133,-0.350856,1.477661,0.078935,-0.057115,0.025518,-0.596529,0.194223,-0.338442,-18.394065,-81.055483,17.041425
01140,214039,9.643019,-0.308477,1.464241,0.080957,-0.061814,0.026395,-0.597515,0.194762,-0.338916,-18.506358,-81.085346,17.202094
01141,214139,9.614852,-0.273585,1.439020,0.085853,-0.064619,0.024773,-0.596496,0.196787,-0.339814,-18.614323,-81.116983,17.361209
01142,214239,9.578897,-0.266804,1.429372,0.088635,-0.075294,0.022865,-0.596531,0.193227,-0.338493,-18.727533,-81.154718,17.527233
01143,214339,9.538087,-0.265697,1.413742,0.086815,-0.082709,0.021332,-0.597988,0.192849,-0.340518,-18.846401,-81.196709,17.697910
01144,214439,9.531784,-0.229235,1.459720,0.095745,-0.084169,0.016971,-0.596035,0.191725,-0.338569,-18.947840,-81.240250,17.856111
01145,214539,9.564338,-0.198357,1.503943,0.109640,-0.076214,0.015738,-0.597062,0.190174,-0.337146,-19.028389,-81.279669,18.001214
01146,214639,9.579313,-0.156749,1.435237,0.127121,-0.057607,0.010631,-0.599043,0.191226,-0.337595,-19.058822,-81.309946,18.105739
01147,214739,9.575079,-0.146406,1.389853,0.144236,-0.050805,0.004998,-0.602010,0.187858,-0.339273,-19.051361,-81.337597,18.181847
01148,214839,9.655392,-0.168949,1.444705,0.154269,-0.060457,0.003107,-0.602553,0.188742,-0.336724,-19.043388,-81.370832,18.263245
01149,214939,9.744982,-0.209149,1.520663,0.158229,-0.075961,0.007518,-0.604027,0.189810,-0.337673,-19.068325,-81.411633,18.380218
01150,215039,9.855980,-0.278286,1.594088,0.160974,-0.086964,0.014425,-0.602515,0.189336,-0.338697,-19.130894,-81.457072,18.536826
01151,215139,9.871337,-0.332715,1.622826,0.158588,-0.087836,0.022166,-0.605057,0.186764,-0.336326,-19.225035,-81.501479,18.723958
01152,215239,9.843799,-0.334980,1.609278,0.151945,-0.081092,0.029395,-0.606565,0.184273,-0.335954,-19.342029,-81.540805,18.930328
01153,215339,9.773828,-0.259655,1.525417,0.147005,-0.068971,0.032833,-0.606001,0.184433,-0.339453,-19.460127,-81.572857,19.134933
01154,215439,9.704434,-0.135099,1.436236,0.153028,-0.054532,0.034334,-0.606530,0.182874,-0.338030,-19.562507,-81.596768,19.327127
01155,215539,9.629228,-0.048406,1.340616,0.158834,-0.054883,0.034048,-0.609043,0.180873,-0.337132,-19.661612,-81.620884,19.519363
01156,215639,9.573951,-0.022808,1.312726,0.162915,-0.066271,0.030285,-0.608090,0.182729,-0.334532,-19.760254,-81.651833,19.713484
01157,215739,9.620106,-0.022599,1.371487,0.162722,-0.078530,0.030745,-0.610530,0.179924,-0.337683,-19.877947,-81.689255,19.926734
01158,215839,9.453218,-0.063187,1.357823,0.177428,-0.104488,0.029833,-0.608074,0.181283,-0.335607,-20.020224,-81.740771,20.173320
01159,215939,9.648249,-0.201450,1.499996,0.176141,-0.111847,0.038295,-0.613075,0.180317,-0.334660,-20.207177,-81.794469,20.464270
01160,216039,9.850723,-0.170170,1.537832,0.178760,-0.100816,0.050453,-0.612071,0.179827,-0.335185,-20.425702,-81.839666,20.788598
01161,216139,9.833016,-0.146263,1.575251,0.167260,-0.094698,0.058235,-0.614064,0.179361,-0.335211,-20.674191,-81.879816,21.136506
01162,216239,9.814432,-0.065599,1.591398,0.161471,-0.089697,0.066150,-0.614091,0.179787,-0.333686,-20.951285,-81.915441,21.509927
01163,216339,9.716490,0.017408,1.538445,0.164746,-0.082232,0.072691,-0.615024,0.178975,-0.337236,-21.242777,-81.945459,21.899758
01164,216439,9.669091,0.117775,1.455401,0.157402,-0.072195,0.069801,-0.615571,0.177367,-0.334813,-21.514769,-81.970461,22.265624
01165,216539,9.597318,0.116038,1.352852,0.147293,-0.066286,0.065390,-0.616113,0.178750,-0.332238,-21.768600,-81.993023,22.607282
01166,216639,9.617129,0.089436,1.320598,0.136473,-0.065332,0.065899,-0.614065,0.178863,-0.335236,-22.030478,-82.014766,22.950792
01167,216739,9.637281,0.029952,1.320264,0.122413,-0.071028,0.065522,-0.615080,0.178830,-0.334237,-22.309238,-82.039398,23.303197
01168,216839,9.704789,-0.017282,1.373069,0.100060,-0.081749,0.064365,-0.617104,0.176298,-0.332865,-22.615092,-82.069715,23.670006
01169,216939,9.818859,-0.057929,1.426335,0.091078,-0.077937,0.070174,-0.617101,0.178291,-0.332764,-22.944357,-82.096449,24.055233
01170,217039,9.844004,0.001082,1.490562,0.083391,-0.058848,0.073867,-0.616585,0.177833,-0.333788,-23.262924,-82.111991,24.425197
01171,217139,9.764946,-0.059266,1.513573,0.061794,-0.051715,0.076629,-0.615098,0.178782,-0.333237,-23.593586,-82.122859,24.794870
01172,217239,9.733247,-0.075333,1.501328,0.043282,-0.049552,0.075861,-0.615083,0.182294,-0.333559,-23.928989,-82.132468,25.158616
01173,217339,9.725142,-0.158294,1.552561,0.030534,-0.039412,0.079088,-0.619092,0.179319,-0.332713,-24.267193,-82.135713,25.517812
01174,217439,9.681091,-0.262463,1.503033,0.024541,-0.023795,0.080409,-0.613621,0.179707,-0.332186,-24.586929,-82.130202,25.854901
01175,217539,9.637860,-0.328417,1.389538,0.027028,-0.015042,0.083824,-0.614590,0.179296,-0.333711,-24.902200,-82.119054,26.188930
01176,217639,9.631091,-0.411024,1.274552,0.033323,-0.011647,0.088875,-0.614585,0.182286,-0.333559,-25.225788,-82.104661,26.535006
01177,217739,9.622338,-0.465607,1.233970,0.041547,-0.015896,0.090048,-0.616580,0.180823,-0.333636,-25.555348,-82.091908,26.891881
01178,217839,9.600472,-0.532645,1.312653,0.050735,-0.017617,0.088757,-0.615574,0.180831,-0.334136,-25.876834,-82.080077,27.245929
01179,217939,9.563044,-0.580971,1.393366,0.057944,-0.014855,0.090309,-0.612537,0.181900,-0.336583,-26.193873,-82.066146,27.599668
01180,218039,9.492404,-0.590231,1.391361,0.061600,-0.017933,0.088953,-0.616066,0.184326,-0.333958,-26.508286,-82.053855,27.952883
01181,218139,9.369136,-0.669575,1.300658,0.070016,-0.030922,0.086703,-0.613076,0.185275,-0.333906,-26.832715,-82.048506,28.321085
01182,218239,9.401374,-0.738318,1.223483,0.082992,-0.053230,0.084128,-0.613576,0.183789,-0.333983,-27.181761,-82.054904,28.721647
01183,218339,9.522179,-0.845907,1.208042,0.096988,-0.075964,0.084140,-0.613574,0.185283,-0.333906,-27.566845,-82.072499,29.166678
01184,218439,9.617164,-0.938601,1.213319,0.109043,-0.086964,0.084447,-0.613591,0.185734,-0.332881,-27.969454,-82.095150,29.636349
01185,218539,9.661408,-1.007531,1.246926,0.113580,-0.083810,0.082385,-0.611564,0.184304,-0.334956,-28.358446,-82.116297,30.094869
01186,218639,9.679848,-1.093395,1.296760,0.116370,-0.076633,0.085833,-0.612579,0.184271,-0.333957,-28.746532,-82.132433,30.554062
01187,218739,9.673638,-1.147467,1.321317,0.115550,-0.073176,0.086418,-0.610084,0.187221,-0.333804,-29.132178,-82.146215,31.010296
01188,218839,9.690496,-1.152205,1.354061,0.115989,-0.072962,0.087698,-0.611591,0.185228,-0.333406,-29.523463,-82.159074,31.472457
01189,218939,9.696117,-1.162694,1.378859,0.116296,-0.079678,0.090167,-0.610601,0.186683,-0.332829,-29.939072,-82.174090,31.959328
01190,219039,9.733945,-1.197659,1.363478,0.122025,-0.087763,0.093277,-0.610645,0.182600,-0.331034,-30.381640,-82.191682,32.476701
01191,219139,9.763161,-1.240107,1.335967,0.133817,-0.103275,0.098623,-0.609661,0.186024,-0.329856,-30.872417,-82.214751,33.049522
01192,219239,9.844970,-1.276925,1.311991,0.144937,-0.110346,0.102731,-0.612640,0.186594,-0.330331,-31.390435,-82.239349,33.656230
01193,219339,10.012885,-1.272032,1.351463,0.151147,-0.103710,0.099928,-0.612671,0.185026,-0.328908,-31.883830,-82.260790,34.241640
01194,219439,10.084535,-1.157270,1.490693,0.158426,-0.095597,0.097536,-0.612659,0.186545,-0.329331,-32.349221,-82.278319,34.802968
01195,219539,10.094409,-0.968829,1.569223,0.152584,-0.077324,0.088889,-0.613128,0.187124,-0.330806,-32.747564,-82.289080,35.293237
01196,219639,10.122034,-0.830211,1.700661,0.145865,-0.048850,0.078141,-0.611168,0.189487,-0.328679,-33.046835,-82.289046,35.679640
01197,219739,10.087864,-0.768364,1.761336,0.127645,-0.027061,0.065788,-0.611130,0.184625,-0.331432,-33.262053,-82.282155,35.970691
01198,219839,9.983368,-0.732518,1.845145,0.110190,-0.023846,0.055023,-0.612640,0.186594,-0.330331,-33.441178,-82.276935,36.215232
01199,219939,9.865913,-0.727106,1.934404,0.101290,-0.032330,0.049127,-0.612153,0.185565,-0.329882,-33.623988,-82.277476,36.458350
01200,220039,9.691786,-0.750832,1.931110,0.092574,-0.049052,0.043890,-0.613142,0.184110,-0.330458,-33.832567,-82.287483,36.722432
01201,220139,9.561991,-0.785896,1.884218,0.091784,-0.064973,0.037870,-0.611625,0.186626,-0.331330,-34.058675,-82.306792,37.003737
01202,220239,9.441275,-0.863286,1.756996,0.091657,-0.073772,0.034169,-0.613683,0.186489,-0.327832,-34.294083,-82.331259,37.294340
01203,220339,9.331080,-0.960283,1.615594,0.096713,-0.072464,0.029644,-0.613684,0.185991,-0.327858,-34.509145,-82.356370,37.567319
01204,220439,9.194902,-1.030984,1.532806,0.100704,-0.074280,0.025429,-0.612197,0.186939,-0.327307,-34.713129,-82.383528,37.831410
01205,220539,9.086613,-1.066396,1.491213,0.101252,-0.082058,0.024710,-0.613683,0.186489,-0.327832,-34.935146,-82.414400,38.113990
01206,220639,9.020379,-1.111297,1.522901,0.101930,-0.091538,0.023151,-0.612612,0.186666,-0.331830,-35.176986,-82.450026,38.416937
01207,220739,9.004425,-1.134540,1.581784,0.100477,-0.101054,0.028963,-0.612155,0.184569,-0.329933,-35.466821,-82.487932,38.767428
01208,220839,8.987251,-1.167952,1.568509,0.098586,-0.112794,0.034983,-0.613208,0.183942,-0.326960,-35.812352,-82.528978,39.172969
01209,220939,9.082333,-1.152746,1.605515,0.094783,-0.124430,0.040639,-0.617671,0.185057,-0.327910,-36.214476,-82.573105,39.633344
01210,221039,9.248787,-1.119798,1.704849,0.085835,-0.128680,0.044083,-0.614203,0.184456,-0.326934,-36.650258,-82.617517,40.122445
01211,221139,9.389635,-1.077550,1.776204,0.072216,-0.120945,0.044527,-0.613759,0.185300,-0.323885,-37.080136,-82.657688,40.597677
01212,221239,9.467259,-1.011589,1.763123,0.062960,-0.118044,0.041904,-0.616202,0.186456,-0.326334,-37.502930,-82.696930,41.060379
01213,221339,9.446461,-1.001709,1.716411,0.056880,-0.114194,0.036334,-0.614715,0.187405,-0.325783,-37.903448,-82.735897,41.497070
01214,221439,9.403930,-0.976254,1.678639,0.059474,-0.116344,0.026390,-0.615729,0.182414,-0.325537,-38.277573,-82.778917,41.908614
01215,221539,9.457400,-0.927455,1.690131,0.061785,-0.107799,0.011195,-0.616752,0.182856,-0.324013,-38.576602,-82.823154,42.245763
01216,221639,9.417594,-0.924331,1.771336,0.070203,-0.104638,-0.004235,-0.616213,0.185436,-0.325885,-38.810398,-82.871248,42.521994
01217,221739,9.460577,-0.886577,1.851804,0.086157,-0.104215,-0.016389,-0.615780,0.185259,-0.322386,-38.993413,-82.923339,42.756235
01218,221839,9.402338,-0.892770,1.952535,0.095009,-0.105538,-0.031225,-0.616301,0.182728,-0.321513,-39.124494,-82.981228,42.943230
01219,221939,9.370249,-0.896251,2.021807,0.110215,-0.105234,-0.041454,-0.619291,0.181779,-0.321565,-39.211033,-83.042565,43.094103
01220,222039,9.338302,-0.895733,2.055360,0.117768,-0.102587,-0.050509,-0.616302,0.182230,-0.321539,-39.253824,-83.105912,43.205249
01221,222139,9.328670,-0.932267,2.113034,0.127753,-0.103126,-0.062468,-0.619328,0.181682,-0.319566,-39.249269,-83.173747,43.274456
01222,222239,9.340342,-0.981522,2.211607,0.126742,-0.107684,-0.073073,-0.618305,0.181241,-0.321091,-39.219785,-83.247358,43.317964
01223,222339,9.329922,-1.093132,2.253914,0.137001,-0.115391,-0.079046,-0.617820,0.179216,-0.320692,-39.185386,-83.326457,43.362435
01224,222439,9.398707,-1.086635,2.277097,0.151033,-0.111964,-0.078901,-0.618347,0.178653,-0.319218,-39.132462,-83.403884,43.396342
01225,222539,9.394095,-1.099747,2.208990,0.148288,-0.111068,-0.082732,-0.620325,0.176242,-0.320345,-39.062809,-83.482204,43.411821
01226,222639,9.420949,-1.094293,2.081035,0.138472,-0.109826,-0.087838,-0.619865,0.175639,-0.318372,-38.973755,-83.561723,43.402112
01227,222739,9.353976,-1.090668,2.064951,0.124200,-0.115196,-0.091361,-0.621866,0.176145,-0.317847,-38.894671,-83.644812,43.394206
01228,222839,9.329389,-1.007348,2.123744,0.107240,-0.120615,-0.097220,-0.619878,0.173622,-0.317973,-38.817785,-83.732333,43.378735
01229,222939,9.297293,-0.938019,2.121435,0.093352,-0.139265,-0.100685,-0.621375,0.172151,-0.318050,-38.794782,-83.829333,43.409464
01230,223039,9.286348,-0.822709,2.153337,0.091031,-0.142274,-0.108428,-0.621428,0.173502,-0.314975,-38.750396,-83.930372,43.417345
01231,223139,9.299930,-0.697591,2.076116,0.091572,-0.140690,-0.116781,-0.620917,0.170552,-0.316127,-38.663398,-84.033620,43.382685
01232,223239,9.371010,-0.620052,2.149994,0.094557,-0.145864,-0.123996,-0.622907,0.171581,-0.316077,-38.558455,-84.141680,43.331710
01233,223339,9.502098,-0.649523,2.334402,0.104302,-0.150404,-0.133564,-0.624435,0.168543,-0.314730,-38.417673,-84.255087,43.250333
01234,223439,9.632757,-0.764303,2.373773,0.118985,-0.159513,-0.138238,-0.624454,0.168494,-0.313731,-38.274766,-84.374129,43.175289
01235,223539,9.709858,-0.882461,2.331900,0.130201,-0.181632,-0.145923,-0.622456,0.165996,-0.314357,-38.165488,-84.505733,43.140504
01236,223639,9.781216,-0.987454,2.304982,0.137464,-0.205005,-0.152773,-0.623461,0.166486,-0.313832,-38.103189,-84.650183,43.157093
01237,223739,9.761607,-1.039266,2.304901,0.136172,-0.220505,-0.158805,-0.625042,0.164798,-0.309410,-38.070208,-84.803644,43.202372
01238,223839,9.728477,-1.019488,2.266534,0.127937,-0.225011,-0.164525,-0.625533,0.163335,-0.309987,-38.030716,-84.961051,43.236361
01239,223939,9.661730,-0.927491,2.261168,0.105361,-0.228011,-0.169123,-0.622548,0.161295,-0.310087,-37.991735,-85.121330,43.257867
01240,224039,9.611735,-0.810150,2.371656,0.078337,-0.224256,-0.173943,-0.625066,0.161761,-0.308563,-37.924780,-85.281502,43.235751
01241,224139,9.584305,-0.718609,2.470593,0.062376,-0.210143,-0.179128,-0.626536,0.159863,-0.310165,-37.771555,-85.436993,43.117907
01242,224239,9.624979,-0.661250,2.519934,0.048421,-0.183626,-0.181123,-0.629582,0.158770,-0.307218,-37.484223,-85.580995,42.857541
01243,224339,9.681837,-0.690891,2.449879,0.042775,-0.165328,-0.183445,-0.630135,0.159132,-0.304193,-37.082083,-85.717220,42.478834
01244,224439,9.727134,-0.710606,2.256575,0.045692,-0.158001,-0.188815,-0.629146,0.155130,-0.304396,-36.583302,-85.851594,42.004961
01245,224539,9.813865,-0.687281,2.153310,0.037166,-0.171205,-0.201314,-0.630623,0.154206,-0.305447,-36.037224,-85.995883,41.478848
01246,224639,10.046001,-0.648082,2.294520,0.028047,-0.168038,-0.214782,-0.628656,0.155596,-0.303871,-35.346816,-86.142681,40.802914
01247,224739,10.372935,-0.618846,2.618890,0.003825,-0.120013,-0.227409,-0.630158,0.151136,-0.304100,-34.284487,-86.270168,39.740432
01248,224839,10.534432,-0.685050,2.797565,-0.010303,-0.042606,-0.237881,-0.630168,0.151112,-0.303600,-32.694131,-86.362173,38.140842
01249,224939,10.680092,-0.764774,2.823121,-0.015281,0.018651,-0.236469,-0.630161,0.149641,-0.304176,-30.746402,-86.420528,36.180431
01250,225039,10.912943,-0.823127,2.611972,-0.034306,0.061948,-0.228998,-0.631698,0.146579,-0.302330,-28.615047,-86.450639,34.025200
01251,225139,11.225815,-0.930223,2.344818,-0.049149,0.123689,-0.218745,-0.632622,0.145791,-0.306380,-26.289860,-86.441283,31.667254
01252,225239,11.217840,-1.269331,1.982745,-0.065482,0.158924,-0.194173,-0.631129,0.144771,-0.306430,-24.064917,-86.401757,29.400297
01253,225339,11.134329,-1.595093,1.639632,-0.037246,0.148777,-0.161869,-0.634068,0.146434,-0.308854,-22.180870,-86.355168,27.491007
01254,225439,11.197649,-1.773067,1.402924,0.033224,0.117852,-0.137416,-0.632587,0.144393,-0.308455,-20.607728,-86.316276,25.933615
01255,225539,11.406372,-1.783094,1.045849,0.125328,0.076325,-0.122280,-0.634520,0.141604,-0.312107,-19.264072,-86.294229,24.659004
01256,225639,11.618164,-1.703179,0.744212,0.219155,0.036635,-0.112532,-0.634518,0.142600,-0.312056,-18.074628,-86.290114,23.592773
01257,225739,11.813536,-1.606346,0.551241,0.294831,-0.003786,-0.105542,-0.633021,0.144071,-0.311979,-17.010120,-86.305525,22.695188
01258,225839,11.883644,-1.449870,0.553604,0.345020,-0.032573,-0.100426,-0.637505,0.138686,-0.312760,-16.025208,-86.334886,21.906195
01259,225939,11.772186,-1.276088,0.662637,0.381547,-0.051031,-0.099319,-0.638031,0.138123,-0.311286,-15.059436,-86.373405,21.157376
01260,226039,11.538017,-1.043826,0.778936,0.411058,-0.071273,-0.097134,-0.637069,0.135046,-0.309938,-14.124051,-86.422039,20.455975
01261,226139,11.325204,-0.671035,0.878923,0.429683,-0.095238,-0.092553,-0.639016,0.134201,-0.312489,-13.248675,-86.482688,19.825428
01262,226239,11.166318,-0.220546,1.000435,0.426925,-0.099881,-0.091277,-0.640530,0.133679,-0.311515,-12.369611,-86.545160,19.189643
01263,226339,10.928668,0.240251,1.121065,0.394125,-0.070107,-0.090299,-0.644556,0.131653,-0.309619,-11.432479,-86.590196,18.476890
01264,226439,10.524282,0.644879,1.073171,0.325605,-0.006102,-0.087257,-0.644516,0.132746,-0.311567,-10.426838,-86.598163,17.656196
01265,226539,10.032760,0.960632,0.747113,0.231912,0.049553,-0.082484,-0.644494,0.129828,-0.313219,-9.426041,-86.573417,16.786569
01266,226639,9.450151,1.180414,0.275145,0.126399,0.085087,-0.079295,-0.646943,0.132455,-0.315092,-8.477376,-86.527459,15.908572
01267,226739,8.841742,1.307299,-0.157687,0.026782,0.083576,-0.079529,-0.644533,0.128736,-0.311271,-7.607477,-86.481638,15.052264
01268,226839,8.295923,1.414588,-0.586350,-0.061436,0.048847,-0.082075,-0.645010,0.130286,-0.312194,-6.823081,-86.455116,14.230948
01269,226939,8.142640,1.359959,-0.755131,-0.123195,0.018713,-0.087412,-0.648959,0.129449,-0.314246,-6.064800,-86.445550,13.400332
01270,227039,8.100339,1.176589,-0.906474,-0.144476,0.001116,-0.078726,-0.646439,0.130479,-0.315694,-5.416545,-86.445030,12.667736
01271,227139,8.177955,1.002679,-1.001554,-0.131198,-0.031632,-0.069448,-0.645947,0.132439,-0.315092,-4.870616,-86.462396,12.045295
01272,227239,8.421819,0.837372,-0.914421,-0.109889,-0.064446,-0.065467,-0.649961,0.131932,-0.313619,-4.365934,-86.498104,11.476433
01273,227339,8.786472,0.655632,-0.680065,-0.082641,-0.083334,-0.062511,-0.647952,0.130454,-0.314694,-3.873743,-86.544298,10.935753
01274,227439,9.242296,0.468548,-0.464506,-0.048177,-0.089648,-0.046524,-0.648946,0.131965,-0.314618,-3.504354,-86.593366,10.537908
01275,227539,9.693747,0.354814,-0.233211,-0.024938,-0.084085,-0.029656,-0.647964,0.134392,-0.313492,-3.271328,-86.638640,10.290024
01276,227639,10.010113,0.270402,-0.063389,-0.007935,-0.062968,-0.011009,-0.649999,0.130839,-0.311671,-3.194086,-86.671261,10.207961
01277,227739,10.132448,0.201990,0.042493,0.001207,-0.037489,0.002085,-0.650459,0.131940,-0.313619,-3.225558,-86.688946,10.240046
01278,227839,10.157650,0.182429,0.111634,0.004380,-0.012111,0.017703,-0.650463,0.134906,-0.312967,-3.395579,-86.691651,10.412735
01279,227939,10.149347,0.235832,0.093664,-0.002228,0.017934,0.031219,-0.647408,0.135525,-0.316439,-3.684021,-86.676713,10.700256
01280,228039,10.095721,0.367304,0.130328,-0.031864,0.024399,0.040759,-0.651391,0.136585,-0.316390,-4.075331,-86.657666,11.073820
01281,228139,9.970509,0.486469,0.197861,-0.063888,0.017994,0.038440,-0.648938,0.135951,-0.314415,-4.462266,-86.642279,11.424632
01282,228239,9.807616,0.669492,0.511664,-0.090066,0.005999,0.031036,-0.650933,0.139944,-0.313713,-4.797898,-86.633982,11.709037
01283,228339,9.679597,0.820332,0.797242,-0.138253,-0.000654,0.020904,-0.653416,0.139011,-0.314264,-5.066077,-86.629896,11.898219
01284,228439,9.536062,0.865584,0.926327,-0.171889,0.009236,0.016456,-0.651916,0.142475,-0.314086,-5.299988,-86.620342,12.033773
01285,228539,9.368149,0.847752,0.974570,-0.179102,0.028894,0.022726,-0.652881,0.144058,-0.315509,-5.577947,-86.599186,12.209316
01286,228639,9.154702,0.839569,1.005002,-0.179997,0.038210,0.023208,-0.649411,0.144951,-0.314458,-5.848120,-86.572628,12.376554
01287,228739,8.983642,0.837060,1.010041,-0.171597,0.039956,0.013999,-0.650921,0.146919,-0.313357,-6.020398,-86.545567,12.450549
01288,228839,8.862766,0.792765,1.113904,-0.156447,0.041016,0.001087,-0.653388,0.149498,-0.314230,-6.059119,-86.518648,12.399441
01289,228939,8.795819,0.635683,1.120964,-0.141592,0.039972,-0.009331,-0.652376,0.148036,-0.315306,-5.992814,-86.492923,12.251640
01290,229039,8.756224,0.409941,1.098397,-0.125986,0.024656,-0.013437,-0.650861,0.149555,-0.316229,-5.895248,-86.476132,12.081473
01291,229139,8.843758,0.156857,1.062977,-0.099274,0.004845,-0.017758,-0.652838,0.152600,-0.316577,-5.762007,-86.470839,11.890895
01292,229239,8.916599,-0.015968,1.108234,-0.066013,-0.006190,-0.017310,-0.651823,0.153130,-0.317551,-5.624355,-86.471756,11.714991
01293,229339,8.884623,-0.181475,0.991839,-0.031928,-0.024049,-0.009410,-0.651890,0.151467,-0.314128,-5.556434,-86.482375,11.628517
01294,229439,8.892961,-0.211453,0.950677,-0.001765,-0.030230,-0.000880,-0.655347,0.153089,-0.315552,-5.555954,-86.496026,11.626924
01295,229539,8.838572,-0.150337,0.893021,0.010421,-0.042788,0.006772,-0.653316,0.153652,-0.317526,-5.631741,-86.516397,11.708736
01296,229639,8.619593,-0.072049,0.906054,0.011901,-0.069016,0.014640,-0.656325,0.152655,-0.316578,-5.806905,-86.551248,11.890954
01297,229739,8.476628,0.041230,0.954340,0.007871,-0.102662,0.020823,-0.657311,0.153193,-0.317053,-6.081227,-86.604844,12.170187
01298,229839,8.455824,0.162657,0.961354,-0.002377,-0.130113,0.025206,-0.654386,0.153974,-0.313502,-6.443018,-86.673689,12.531139
01299,229939,8.540803,0.310492,1.015809,-0.016562,-0.149905,0.029572,-0.656380,0.153009,-0.313554,-6.895321,-86.753332,12.974586
01300,230039,8.676267,0.387698,1.071466,-0.027869,-0.164332,0.032819,-0.657358,0.158031,-0.313800,-7.428679,-86.840699,13.492690
01301,230139,8.764337,0.454844,1.139755,-0.021733,-0.182718,0.034826,-0.656911,0.155412,-0.311428,-8.036177,-86.938027,14.088519
01302,230239,8.900296,0.556129,1.234300,-0.017134,-0.191519,0.033514,-0.656382,0.157469,-0.312825,-8.679775,-87.040059,14.723081
01303,230339,9.091499,0.637373,1.307679,-0.002738,-0.184019,0.027618,-0.656924,0.158851,-0.310250,-9.278678,-87.137964,15.321093
01304,230439,9.264424,0.712847,1.342413,0.016765,-0.162844,0.020730,-0.659421,0.160361,-0.309675,-9.783893,-87.224218,15.836443
01305,230539,9.360907,0.648807,1.328295,0.048605,-0.124121,0.008856,-0.659891,0.160441,-0.311175,-10.076603,-87.289570,16.157274
01306,230639,9.396291,0.562481,1.310685,0.079084,-0.090101,0.007797,-0.657891,0.159437,-0.311725,-10.277201,-87.335736,16.403360
01307,230739,9.486738,0.422702,1.346183,0.107939,-0.075483,0.011623,-0.657947,0.159293,-0.308726,-10.481670,-87.373183,16.669861
01308,230839,9.519902,0.242375,1.434607,0.146095,-0.071774,0.019573,-0.658402,0.162885,-0.310547,-10.760253,-87.407595,17.032429
01309,230939,9.615452,0.118246,1.582553,0.176906,-0.068697,0.027992,-0.657916,0.161358,-0.310124,-11.127257,-87.439201,17.501170
01310,231039,9.703642,0.036053,1.582020,0.191458,-0.047823,0.045907,-0.658371,0.164452,-0.311970,-11.668217,-87.456820,18.152375
01311,231139,9.850874,0.049381,1.500125,0.183823,-0.011484,0.067596,-0.658870,0.163961,-0.311996,-12.394546,-87.451104,18.984753
01312,231239,9.920911,0.072528,1.372663,0.160025,0.024951,0.086871,-0.659314,0.168075,-0.314292,-13.263389,-87.422018,19.946153
01313,231339,9.924786,0.178875,1.235662,0.124276,0.047646,0.105505,-0.656850,0.168960,-0.312741,-14.287720,-87.377019,21.042730
01314,231439,9.971638,0.381231,1.112931,0.084857,0.054301,0.117292,-0.657317,0.170535,-0.314164,-15.415246,-87.325656,22.220051
01315,231539,10.061539,0.610327,1.000007,0.036628,0.051081,0.120007,-0.657267,0.173146,-0.316536,-16.567388,-87.274559,23.394407
01316,231639,10.241583,0.818867,0.934621,-0.006708,0.037921,0.117525,-0.657776,0.177092,-0.315334,-17.718763,-87.229991,24.543191
01317,231739,10.505466,0.966278,1.007784,-0.040924,0.022782,0.113007,-0.656236,0.176690,-0.317858,-18.858198,-87.193384,25.660440
01318,231839,10.789874,1.057209,1.259130,-0.058550,0.023845,0.103971,-0.653729,0.180661,-0.318153,-19.874082,-87.156897,26.643918
01319,231939,11.007256,1.107385,1.630491,-0.056039,0.044157,0.092815,-0.654741,0.182621,-0.317053,-20.660293,-87.110917,27.398916
01320,232039,11.274961,1.021372,2.084123,-0.032626,0.095122,0.085556,-0.652211,0.183675,-0.319000,-21.125812,-87.038666,27.846282
01321,232139,11.628633,0.657237,2.533533,0.008660,0.190148,0.089815,-0.653111,0.185924,-0.323897,-21.215332,-86.914552,27.940858
01322,232239,11.992024,0.286423,2.617020,0.057771,0.319844,0.108861,-0.651569,0.191477,-0.325616,-20.975631,-86.717074,27.733912
01323,232339,12.299333,-0.306396,2.464727,0.124526,0.436318,0.137616,-0.651549,0.192522,-0.326565,-20.590530,-86.451186,27.419585
01324,232439,12.445878,-0.638435,2.191050,0.177412,0.506805,0.167235,-0.646417,0.193825,-0.334509,-20.253401,-86.141324,27.183612
01325,232539,12.658462,-0.556262,1.810233,0.183747,0.545758,0.176683,-0.647848,0.198477,-0.337280,-19.920550,-85.808505,26.955495
01326,232639,13.121739,-0.327823,1.218514,0.148514,0.593650,0.169679,-0.643769,0.198655,-0.342277,-19.484644,-85.451110,26.603694
01327,232739,13.699690,-0.148613,0.422796,0.114596,0.604275,0.161151,-0.642740,0.201700,-0.343624,-19.047923,-85.089463,26.231419
01328,232839,13.815795,0.085118,-0.442961,0.064178,0.539693,0.153890,-0.641132,0.207921,-0.348816,-18.781296,-84.764141,26.000734
01329,232939,13.193870,0.268200,-1.378051,-0.013398,0.400975,0.124723,-0.639580,0.209038,-0.351764,-18.686079,-84.519617,25.897481
01330,233039,12.139799,0.347481,-1.939122,-0.089816,0.206926,0.069052,-0.638526,0.215619,-0.353932,-18.696190,-84.390886,25.856041
01331,233139,11.189749,0.185989,-1.852743,-0.136638,0.021304,0.014448,-0.640490,0.216221,-0.355407,-18.779248,-84.373165,25.860946
01332,233239,10.085246,-0.010722,-1.482588,-0.125919,-0.146414,-0.005688,-0.638019,0.221092,-0.353653,-19.063133,-84.450283,26.073807
01333,233339,9.040097,-0.087656,-1.111284,-0.086139,-0.298267,-0.019005,-0.640559,0.224474,-0.350477,-19.560246,-84.612050,26.523721
01334,233439,8.000798,-0.286667,-0.733862,-0.052756,-0.432323,-0.029548,-0.639568,0.226428,-0.349875,-20.296963,-84.847732,27.233308
01335,233539,7.430836,-0.547616,-0.365805,0.005287,-0.489625,-0.044742,-0.638633,0.228734,-0.346249,-21.112626,-85.116375,28.055236
01336,233639,6.807830,-0.917891,0.004464,0.104402,-0.484823,-0.059908,-0.639138,0.229714,-0.345699,-21.853354,-85.384670,28.858615
01337,233739,6.456841,-1.325729,0.184371,0.214277,-0.444839,-0.069207,-0.636721,0.235437,-0.340895,-22.445543,-85.632966,29.575839
01338,233839,6.376835,-1.610636,0.222966,0.327617,-0.339460,-0.067564,-0.640747,0.233411,-0.338999,-22.738036,-85.824704,30.057430
01339,233939,6.990872,-1.676380,0.232633,0.398675,-0.143740,-0.055066,-0.637278,0.233308,-0.337998,-22.503469,-85.910148,30.051312
01340,234039,7.804791,-1.645307,0.161577,0.428930,0.074637,-0.043794,-0.638698,0.233524,-0.341997,-21.670084,-85.877224,29.462208
01341,234139,8.516047,-1.476158,0.020331,0.408727,0.240015,-0.032163,-0.636159,0.229643,-0.345198,-20.488063,-85.752775,28.511869
01342,234239,9.160515,-1.175742,0.111559,0.359337,0.324810,-0.004808,-0.633631,0.234658,-0.346442,-19.377394,-85.575981,27.604522
01343,234339,10.044363,-0.600300,0.216107,0.280330,0.370256,0.032566,-0.633083,0.236764,-0.348840,-18.538227,-85.366514,26.923885
01344,234439,10.929473,-0.098159,0.108394,0.197202,0.379842,0.057593,-0.628046,0.237327,-0.351812,-17.952456,-85.146767,26.449522
01345,234539,11.730642,0.205112,-0.171878,0.134140,0.346755,0.081814,-0.630002,0.236957,-0.353837,-17.661760,-84.940645,26.234931
01346,234639,11.998372,0.309858,-0.596190,0.066196,0.275761,0.089001,-0.627488,0.239457,-0.354708,-17.605217,-84.772134,26.216301
01347,234739,11.515707,0.239908,-0.624458,-0.014510,0.170543,0.072339,-0.629951,0.239568,-0.356209,-17.694260,-84.664111,26.297442
01348,234839,10.659570,0.035769,-0.242344,-0.073151,0.057504,0.043938,-0.626894,0.241184,-0.359631,-17.858989,-84.622819,26.420870
01349,234939,9.852119,-0.190387,0.188910,-0.081598,-0.042244,0.015799,-0.625913,0.243113,-0.358529,-18.051439,-84.640893,26.567283
01350,235039,9.345017,-0.347485,0.559332,-0.066448,-0.103753,-0.005865,-0.626904,0.246119,-0.358377,-18.228307,-84.696307,26.706754
01351,235139,8.910957,-0.444767,0.885078,-0.046669,-0.143698,-0.024782,-0.627448,0.246504,-0.355852,-18.363861,-84.776819,26.816099
01352,235239,8.572018,-0.512278,1.093684,-0.023494,-0.163433,-0.047510,-0.623955,0.249438,-0.355699,-18.392492,-84.872134,26.831397
01353,235339,8.266419,-0.557605,1.171853,0.001224,-0.162721,-0.066957,-0.626979,0.245428,-0.354404,-18.286412,-84.970543,26.725663
01354,235439,8.067119,-0.556012,1.158960,0.010646,-0.135621,-0.082797,-0.626968,0.246448,-0.354853,-18.015323,-85.056968,26.459722
01355,235539,7.946553,-0.505393,1.109052,0.022280,-0.093069,-0.093071,-0.625480,0.247895,-0.354276,-17.575610,-85.121813,26.031252
01356,235639,7.981243,-0.396517,0.999238,0.034897,-0.056973,-0.106072,-0.626934,0.250008,-0.356174,-16.960974,-85.168772,25.434515
01357,235739,8.178758,-0.327157,0.946684,0.033124,-0.032201,-0.116302,-0.623907,0.250555,-0.358147,-16.221194,-85.203202,24.711203
01358,235839,8.419943,-0.293021,0.891263,0.035305,-0.035072,-0.119892,-0.626436,0.250000,-0.356174,-15.451448,-85.238981,23.959109
01359,235939,8.674226,-0.354232,0.855105,0.026231,-0.069550,-0.115155,-0.623452,0.246963,-0.356326,-14.768553,-85.292337,23.288990
01360,236039,8.891606,-0.545035,0.781765,0.017793,-0.107501,-0.107061,-0.625447,0.250957,-0.355623,-14.196384,-85.364992,22.725171
01361,236139,9.075881,-0.773073,0.835414,0.006905,-0.134798,-0.091036,-0.624444,0.249968,-0.356174,-13.771637,-85.450211,22.303048
01362,236239,9.167099,-1.026273,0.919868,0.005355,-0.146614,-0.068773,-0.623437,0.250475,-0.356647,-13.511735,-85.538794,22.045435
01363,236339,9.183364,-1.193215,1.059726,0.008755,-0.149714,-0.046086,-0.624435,0.249494,-0.356699,-13.411252,-85.626000,21.949694
01364,236439,9.174025,-1.268129,1.229673,0.012904,-0.152554,-0.023510,-0.626950,0.251455,-0.355098,-13.478413,-85.711752,22.024467
01365,236539,9.108967,-1.206828,1.387267,0.014163,-0.155298,-0.006581,-0.623950,0.252428,-0.355546,-13.682131,-85.796703,22.236882
01366,236639,9.033264,-1.026734,1.474743,0.012904,-0.144677,0.005078,-0.623501,0.250805,-0.353124,-13.965654,-85.874040,22.528565
01367,236739,8.950567,-0.771495,1.522189,0.014657,-0.123943,0.002539,-0.626465,0.254388,-0.353946,-14.198649,-85.940074,22.770569
01368,236839,8.934281,-0.550582,1.502179,0.013811,-0.100816,-0.004966,-0.625508,0.253279,-0.351998,-14.333715,-85.994235,22.913895
01369,236939,8.971981,-0.384884,1.487596,0.005243,-0.084445,-0.018954,-0.626433,0.251495,-0.356098,-14.331746,-86.041252,22.914922
01370,237039,9.091436,-0.222725,1.417666,-0.008089,-0.076659,-0.040212,-0.625957,0.254902,-0.354421,-14.148887,-86.086922,22.726973
01371,237139,9.237535,-0.177614,1.378683,-0.023924,-0.072492,-0.067750,-0.627448,0.251462,-0.355098,-13.735746,-86.133994,22.299126
01372,237239,9.411238,-0.201942,1.362669,-0.034130,-0.064882,-0.095998,-0.625453,0.252925,-0.355022,-13.067341,-86.180287,21.609599
01373,237339,9.559581,-0.234861,1.362223,-0.044091,-0.054380,-0.126859,-0.625929,0.249518,-0.356699,-12.107084,-86.223889,20.621891
01374,237439,9.642944,-0.286676,1.362251,-0.055442,-0.028018,-0.157401,-0.627909,0.251567,-0.357098,-10.824368,-86.254865,19.304549
01375,237539,9.755624,-0.365254,1.285449,-0.058557,0.004993,-0.181541,-0.627418,0.253029,-0.356522,-9.265855,-86.267473,17.709060
01376,237639,9.827289,-0.449996,1.097256,-0.056461,0.026886,-0.191443,-0.624390,0.248618,-0.359249,-7.585340,-86.265564,15.992518
01377,237739,9.848589,-0.649336,0.914299,-0.042801,0.038295,-0.191647,-0.625884,0.249140,-0.359224,-5.888936,-86.253904,14.267879
01378,237839,9.845742,-0.992775,0.758425,-0.005814,0.048364,-0.183888,-0.625801,0.248858,-0.363748,-4.245521,-86.232861,12.617541
01379,237939,10.008219,-1.415634,0.648066,0.060865,0.064061,-0.167128,-0.627825,0.246327,-0.362375,-2.723353,-86.199317,11.126945
01380,238039,10.454249,-1.860198,0.657225,0.143269,0.083579,-0.144938,-0.627778,0.246945,-0.364849,-1.368792,-86.151727,9.851573
01381,238139,10.921030,-2.076240,0.851319,0.213301,0.097620,-0.120330,-0.628788,0.244446,-0.364477,-0.215432,-86.094082,8.817994
01382,238239,11.319964,-1.844016,1.346714,0.233115,0.104422,-0.099529,-0.628252,0.245033,-0.366450,0.742800,-86.031322,7.991304
01383,238339,11.859865,-1.253278,2.290804,0.180442,0.125208,-0.081714,-0.629271,0.242509,-0.365578,1.493063,-85.955964,7.342763
01384,238439,12.529385,-0.504066,3.264881,0.088208,0.180508,-0.082358,-0.630713,0.240685,-0.368679,2.153660,-85.848263,6.731055
01385,238539,13.106673,0.324990,3.739363,-0.005513,0.305561,-0.093064,-0.629642,0.240861,-0.372677,2.765072,-85.668102,6.114703
01386,238639,13.384881,0.947310,3.507857,-0.072961,0.466843,-0.118991,-0.630574,0.241046,-0.376176,3.408084,-85.394263,5.427702
01387,238739,13.627641,1.136282,2.791075,-0.106429,0.596212,-0.139221,-0.626984,0.241256,-0.381673,4.032447,-85.045069,4.739868
01388,238839,13.846333,0.892279,1.622151,-0.103306,0.653523,-0.137503,-0.627384,0.239037,-0.387298,4.533981,-84.662681,4.176773
01389,238939,13.714960,0.328908,0.347080,-0.071848,0.616477,-0.123831,-0.626789,0.241761,-0.392169,4.922360,-84.301822,3.745128
01390,239039,13.154505,-0.098629,-0.894466,-0.029776,0.478367,-0.107842,-0.627728,0.242918,-0.395117,5.268009,-84.020523,3.380426
01391,239139,12.073161,-0.303098,-2.026394,-0.007118,0.266668,-0.110743,-0.626749,0.243352,-0.394091,5.719861,-83.859799,2.921839
01392,239239,10.513814,-0.242933,-2.707614,-0.037072,0.017052,-0.127827,-0.628186,0.244517,-0.397040,6.363680,-83.840088,2.252841
01393,239339,9.426708,-0.006107,-2.629891,-0.052793,-0.244524,-0.117498,-0.632163,0.243608,-0.397592,7.112109,-83.969295,1.469658
01394,239439,8.730541,0.571658,-1.925727,0.000543,-0.442129,-0.112910,-0.631222,0.243946,-0.394567,8.053694,-84.210036,0.523287
01395,239539,8.278266,1.104140,-0.821498,0.074928,-0.544257,-0.127065,-0.638289,0.243317,-0.389597,9.300659,-84.505614,-0.686664
01396,239639,7.820906,1.541310,0.360570,0.137813,-0.533567,-0.130717,-0.637798,0.244780,-0.389021,10.734651,-84.791964,-2.047674
01397,239739,7.669042,1.595395,1.138123,0.126982,-0.433918,-0.130193,-0.641839,0.244699,-0.386023,12.181858,-85.019109,-3.427623
01398,239839,7.769295,1.313812,1.341514,0.028654,-0.275258,-0.097243,-0.643852,0.243686,-0.385075,13.235317,-85.158957,-4.468532
01399,239939,7.906700,0.948198,1.091787,-0.083082,-0.095223,-0.046813,-0.644348,0.244690,-0.385025,13.648557,-85.204023,-4.931058
01400,240039,8.071496,0.507803,0.420036,-0.136621,0.044918,0.012080,-0.643380,0.244104,-0.383550,13.419880,-85.178890,-4.780172
01401,240139,8.529010,0.444829,-0.139955,-0.151658,0.102551,0.059026,-0.643821,0.245253,-0.386498,12.789078,-85.127664,-4.234352
01402,240239,9.051474,0.297389,-0.558381,-0.146267,0.110679,0.099744,-0.644316,0.246755,-0.386422,11.897789,-85.076359,-3.423943
01403,240339,9.385361,0.007422,-0.742927,-0.135653,0.068744,0.139151,-0.644336,0.246209,-0.385448,10.827682,-85.051989,-2.427893
01404,240439,9.764230,-0.143607,-0.692399,-0.132906,0.010143,0.172564,-0.644778,0.246859,-0.388422,9.617384,-85.062465,-1.289533
01405,240539,10.048786,-0.213026,-0.616092,-0.123874,-0.034830,0.192626,-0.643780,0.247342,-0.388396,8.319198,-85.098137,-0.057802
01406,240639,10.158689,-0.126747,-0.629893,-0.094465,-0.082714,0.190717,-0.648277,0.250354,-0.387245,7.072507,-85.158595,1.139075
01407,240739,10.287326,0.078609,-0.421387,-0.052755,-0.134395,0.168955,-0.647346,0.249671,-0.383772,6.004913,-85.245069,2.180083
01408,240839,10.173774,0.405765,-0.013763,-0.004318,-0.164338,0.139907,-0.648867,0.250620,-0.382222,5.148681,-85.345581,3.036722
01409,240939,10.066942,0.717971,0.417510,0.026008,-0.175459,0.109615,-0.652361,0.251647,-0.381672,4.496331,-85.450074,3.706131
01410,241039,9.869562,0.968403,0.780339,0.039350,-0.179832,0.087194,-0.655321,0.252265,-0.383147,3.988427,-85.555571,4.238221
01411,241139,9.550403,1.089758,0.971052,0.040214,-0.179727,0.068267,-0.654917,0.251518,-0.378175,3.599078,-85.659950,4.651830
01412,241239,9.268339,1.134129,1.067616,0.018554,-0.174826,0.056527,-0.654898,0.252064,-0.379149,3.266663,-85.760906,4.995844
01413,241339,8.904170,1.198614,0.987463,-0.013859,-0.158552,0.051596,-0.659360,0.253181,-0.380099,2.932165,-85.852233,5.323286
01414,241439,8.595893,1.203124,0.946512,-0.055742,-0.138966,0.052259,-0.658909,0.253052,-0.377600,2.546897,-85.932204,5.677536
01415,241539,8.275765,1.047589,0.876707,-0.107145,-0.121193,0.055135,-0.658395,0.256556,-0.377921,2.088742,-86.001868,6.075297
01416,241639,8.142114,0.783964,0.836239,-0.152566,-0.114631,0.056717,-0.661420,0.257005,-0.375898,1.574934,-86.067554,6.502726
01417,241739,8.166667,0.478382,0.804830,-0.184069,-0.116210,0.066147,-0.661930,0.255494,-0.375475,0.947534,-86.133961,7.025885
01418,241839,8.275175,0.224702,0.775980,-0.191239,-0.141274,0.081996,-0.661955,0.256917,-0.373899,0.160096,-86.214367,7.705278
01419,241939,8.431799,0.048881,0.807513,-0.171439,-0.167453,0.094493,-0.663475,0.258363,-0.372324,-0.761073,-86.309045,8.529985
01420,242039,8.568273,-0.038738,0.795889,-0.136419,-0.189901,0.102477,-0.660437,0.259931,-0.374746,-1.786760,-86.415547,9.479432
01421,242139,8.621514,0.006785,0.649427,-0.100148,-0.207564,0.111393,-0.663991,0.258821,-0.371299,-2.943968,-86.530786,10.581356
01422,242239,8.623644,0.121668,0.573572,-0.067960,-0.229578,0.111350,-0.664524,0.260227,-0.369224,-4.174681,-86.657184,11.775248
01423,242339,8.670175,0.242884,0.602195,-0.033380,-0.242320,0.111906,-0.663572,0.261087,-0.366673,-5.497735,-86.789222,13.081321
01424,242439,8.802508,0.397292,0.710242,-0.010139,-0.260934,0.108932,-0.663593,0.260042,-0.365725,-6.911198,-86.930226,14.491101
01425,242539,8.938703,0.556822,0.748000,0.005445,-0.284465,0.106458,-0.668037,0.261206,-0.367675,-8.461241,-87.082736,16.046393
01426,242639,9.065219,0.608779,0.829451,0.019705,-0.304336,0.101894,-0.666616,0.261488,-0.363650,-10.160443,-87.244537,17.758989
01427,242739,9.037839,0.696594,0.918179,0.025556,-0.317950,0.097588,-0.667662,0.259391,-0.361253,-12.048993,-87.411728,19.664257
01428,242839,8.957486,0.710625,1.013003,0.035891,-0.329671,0.093259,-0.666645,0.260918,-0.362176,-14.171779,-87.582802,21.809656
01429,242939,8.846567,0.708492,1.147968,0.038503,-0.336670,0.086690,-0.669249,0.259672,-0.356230,-16.550270,-87.754914,24.212195
01430,243039,8.721010,0.667131,1.264286,0.038921,-0.331697,0.085808,-0.670749,0.261664,-0.355629,-19.279339,-87.919927,26.965523
01431,243139,8.725285,0.638028,1.348764,0.055184,-0.313665,0.086719,-0.668774,0.262083,-0.354603,-22.357986,-88.069598,30.077689
01432,243239,8.767445,0.553894,1.416459,0.082215,-0.270120,0.093045,-0.670786,0.261568,-0.353630,-25.684584,-88.188651,33.453184
01433,243339,8.918468,0.456395,1.404070,0.109248,-0.218714,0.103199,-0.673804,0.261045,-0.352157,-29.137378,-88.272109,36.970242
01434,243439,9.112152,0.416668,1.305531,0.122486,-0.169321,0.114396,-0.673909,0.259285,-0.346735,-32.577311,-88.321262,40.481897
01435,243539,9.370129,0.358060,1.182109,0.126957,-0.136714,0.121359,-0.670907,0.261255,-0.347132,-35.937433,-88.346418,43.916202
01436,243639,9.683503,0.272865,1.107832,0.136150,-0.113518,0.126418,-0.671848,0.261415,-0.350132,-39.167700,-88.353465,47.225840
01437,243739,9.983870,0.203147,1.096784,0.149575,-0.094602,0.133459,-0.668345,0.259913,-0.351206,-42.256458,-88.344379,50.401606
01438,243839,10.286417,0.142849,1.107679,0.155559,-0.062023,0.143108,-0.670890,0.260805,-0.348157,-44.978539,-88.313317,53.214002
01439,243939,10.518899,0.138261,1.096186,0.138791,-0.020600,0.161078,-0.670395,0.258804,-0.348259,-47.255157,-88.254819,55.571189
01440,244039,10.724981,0.201143,1.064433,0.092194,0.017149,0.181071,-0.668890,0.259303,-0.348733,-49.122273,-88.170840,57.492054
01441,244139,10.936349,0.453881,1.034163,0.028946,0.035640,0.206287,-0.672351,0.258434,-0.350284,-50.882393,-88.067132,59.269709
01442,244239,11.201864,0.760990,1.070189,-0.028469,0.046674,0.227372,-0.672349,0.259430,-0.350233,-52.557073,-87.948337,60.929076
01443,244339,11.537439,1.021955,1.323651,-0.074100,0.079428,0.235923,-0.674309,0.262524,-0.351581,-53.749331,-87.812987,62.079661
01444,244439,11.851530,1.247227,1.773538,-0.091787,0.158471,0.233858,-0.667298,0.262509,-0.353578,-53.893426,-87.651394,62.171238
01445,244539,12.087217,1.253490,2.244886,-0.063741,0.285964,0.219213,-0.668312,0.262975,-0.352553,-52.564990,-87.452833,60.805042
01446,244639,12.426763,0.919795,2.631244,0.024486,0.446590,0.202514,-0.665775,0.262558,-0.355077,-49.787049,-87.201987,58.038139
01447,244739,12.918497,0.125499,2.663549,0.154352,0.598043,0.193738,-0.666621,0.263955,-0.363024,-46.157789,-86.889839,54.492641
01448,244839,13.564906,-0.804359,2.346824,0.292726,0.695350,0.202335,-0.666048,0.264140,-0.367022,-42.546806,-86.523389,51.043733
01449,244939,13.946507,-1.512083,1.809495,0.393020,0.714050,0.227142,-0.663972,0.264325,-0.371519,-39.623659,-86.128825,48.340274
01450,245039,14.284812,-1.927756,1.213393,0.414487,0.697101,0.252806,-0.661386,0.266021,-0.376440,-37.449480,-85.725397,46.398740
01451,245139,14.781124,-2.213975,0.316833,0.360194,0.692482,0.278035,-0.658266,0.266809,-0.383411,-35.824681,-85.311140,44.976036
01452,245239,15.097401,-2.009953,-0.907408,0.262915,0.658252,0.310814,-0.658656,0.270072,-0.388757,-34.800734,-84.899649,44.099604
01453,245339,14.440182,-1.361807,-2.415179,0.145283,0.547467,0.331663,-0.657605,0.269702,-0.391781,-34.459705,-84.532882,43.840788
01454,245439,12.548448,-0.436345,-3.236902,0.053774,0.356233,0.314517,-0.657546,0.271341,-0.394703,-34.740885,-84.262052,44.154348
01455,245539,10.690870,0.285051,-3.040070,0.021927,0.131960,0.225089,-0.655982,0.274475,-0.398049,-35.322902,-84.125809,44.752067
01456,245639,9.619368,0.580371,-2.345542,0.024391,-0.049031,0.115497,-0.660978,0.276499,-0.396949,-35.973436,-84.109942,45.420167
01457,245739,8.887725,0.615693,-1.586261,0.030076,-0.164946,0.049618,-0.663511,0.278909,-0.394324,-36.708855,-84.169231,46.176843
01458,245839,7.963765,0.435367,-1.075589,0.017348,-0.226852,0.004340,-0.661533,0.280823,-0.393222,-37.476987,-84.271528,46.958957
01459,245939,7.325018,0.081600,-0.639175,0.023720,-0.247540,-0.034947,-0.666544,0.279833,-0.391775,-38.164542,-84.396036,47.663609
01460,246039,6.751010,-0.576566,-0.285577,0.086691,-0.207101,-0.074817,-0.664551,0.280299,-0.391749,-38.510918,-84.515924,48.061576
01461,246139,6.587680,-1.229547,-0.276986,0.195384,-0.130904,-0.101211,-0.664068,0.276780,-0.391427,-38.396446,-84.610950,48.059094
01462,246239,6.797187,-1.752086,-0.256029,0.272871,0.004199,-0.100456,-0.665091,0.277222,-0.389902,-37.727681,-84.644744,47.544462
01463,246339,7.308856,-1.992238,-0.311579,0.282879,0.129922,-0.080105,-0.661026,0.275382,-0.394501,-36.684231,-84.613376,46.659251
01464,246439,7.895652,-2.056219,-0.459638,0.276139,0.197797,-0.059777,-0.661989,0.273502,-0.396602,-35.518343,-84.542123,45.647093
01465,246539,8.490263,-1.826226,-0.553870,0.268158,0.199542,-0.034449,-0.662016,0.273927,-0.395077,-34.503898,-84.459927,44.782353
01466,246639,9.304982,-1.273145,-0.447531,0.259670,0.177113,-0.011621,-0.662002,0.271485,-0.396204,-33.705616,-84.379760,44.129798
01467,246739,10.101300,-0.597395,-0.247887,0.247872,0.134340,0.003267,-0.658462,0.270079,-0.399278,-33.140849,-84.314636,43.705024
01468,246839,10.900380,0.040577,-0.105366,0.227307,0.104478,0.018975,-0.659976,0.269058,-0.398330,-32.766319,-84.258679,43.459551
01469,246939,11.433028,0.578723,-0.061304,0.168419,0.103620,0.031299,-0.659450,0.269122,-0.399829,-32.492460,-84.199252,43.281326
01470,247039,11.356659,0.834285,-0.095282,0.073372,0.110919,0.018490,-0.660390,0.269283,-0.402828,-32.194939,-84.140194,43.024558
01471,247139,10.753977,0.698031,0.015160,-0.039972,0.109305,-0.010253,-0.661871,0.271822,-0.403201,-31.837113,-84.090557,42.641857
01472,247239,10.105998,0.315188,0.190745,-0.123445,0.100056,-0.038481,-0.660875,0.271806,-0.403201,-31.427184,-84.053686,42.158659
01473,247339,9.492518,-0.190136,0.377772,-0.161624,0.071528,-0.060336,-0.656891,0.271244,-0.403225,-31.022469,-84.036944,41.658689
01474,247439,9.051621,-0.544428,0.635442,-0.170643,0.015370,-0.063749,-0.662422,0.273180,-0.400126,-30.766447,-84.048513,41.303019
01475,247539,8.818786,-0.775397,0.978609,-0.169107,-0.030624,-0.063938,-0.662385,0.273276,-0.402126,-30.636481,-84.082647,41.074984
01476,247639,8.708398,-0.981847,1.231645,-0.153290,-0.043777,-0.063529,-0.663925,0.273678,-0.399602,-30.534586,-84.123063,40.884293
01477,247739,8.537258,-1.130492,1.234382,-0.144371,-0.030023,-0.072828,-0.664347,0.274874,-0.403550,-30.341865,-84.159292,40.607449
01478,247839,8.249780,-1.209601,1.108757,-0.143052,-0.011568,-0.079291,-0.665436,0.275148,-0.398526,-30.062155,-84.188090,40.243938
01479,247939,7.987732,-1.107893,0.957670,-0.149300,-0.007263,-0.088271,-0.665938,0.272665,-0.398654,-29.726921,-84.217083,39.821036
01480,248039,7.951350,-0.907471,0.849044,-0.154863,-0.020668,-0.089666,-0.666927,0.271708,-0.399204,-29.421775,-84.252889,39.425194
01481,248139,8.034537,-0.612257,0.863839,-0.155624,-0.040750,-0.089514,-0.668433,0.275670,-0.398002,-29.169547,-84.298476,39.082125
01482,248239,8.129525,-0.382072,0.877264,-0.152062,-0.071340,-0.094011,-0.669969,0.273106,-0.396130,-28.973334,-84.360486,38.797430
01483,248339,8.266348,-0.250799,0.819332,-0.147534,-0.115034,-0.102363,-0.668430,0.272206,-0.398679,-28.849749,-84.446636,38.588353
01484,248439,8.412515,-0.279146,0.811592,-0.142518,-0.150456,-0.105245,-0.672442,0.272695,-0.397156,-28.804938,-84.551326,38.461335
01485,248539,8.630956,-0.438249,0.841369,-0.130048,-0.174680,-0.105580,-0.672486,0.273571,-0.394606,-28.819239,-84.668254,38.400890
01486,248639,8.787947,-0.663191,0.878711,-0.116131,-0.189643,-0.104072,-0.674494,0.270091,-0.394285,-28.878182,-84.792260,38.393295
01487,248739,8.782989,-0.988333,0.947262,-0.101547,-0.202047,-0.102831,-0.677016,0.268065,-0.392888,-28.975823,-84.922118,38.432943
01488,248839,8.709964,-1.267868,1.038033,-0.098400,-0.214647,-0.093250,-0.681092,0.269382,-0.387815,-29.171557,-85.055574,38.572861
01489,248939,8.653433,-1.448570,1.167921,-0.095364,-0.229452,-0.074018,-0.680596,0.267880,-0.387891,-29.538774,-85.190919,38.886602
01490,249039,8.604308,-1.597162,1.320680,-0.092621,-0.231899,-0.058178,-0.683097,0.267397,-0.387417,-30.029184,-85.322719,39.325473
01491,249139,8.514753,-1.641077,1.418698,-0.086014,-0.220608,-0.039041,-0.683107,0.267373,-0.386918,-30.620318,-85.442997,39.869112
01492,249239,8.518993,-1.564735,1.466322,-0.073234,-0.205153,-0.021612,-0.687172,0.269212,-0.382319,-31.285815,-85.550005,40.494602
01493,249339,8.709847,-1.392849,1.494370,-0.050783,-0.178484,-0.010488,-0.687638,0.266327,-0.384470,-31.935074,-85.640039,41.116625
01494,249439,8.986511,-1.201463,1.393191,-0.031243,-0.149231,-0.006322,-0.691674,0.263281,-0.382125,-32.506267,-85.714064,41.671518
01495,249539,9.252320,-1.024772,1.241136,-0.018523,-0.136207,-0.008658,-0.693718,0.260701,-0.379754,-33.019523,-85.782108,42.175570
01496,249639,9.502668,-0.863820,1.214335,-0.007368,-0.129977,-0.018255,-0.696204,0.263730,-0.379602,-33.452683,-85.849841,42.605676
01497,249739,9.745182,-0.775137,1.228393,0.011894,-0.119588,-0.033317,-0.695215,0.259230,-0.379831,-33.742161,-85.917169,42.902757
01498,249839,9.943565,-0.746955,1.260289,0.032759,-0.095333,-0.056225,-0.699724,0.260225,-0.378282,-33.763938,-85.980151,42.943427
01499,249939,10.041003,-0.766588,1.257748,0.052403,-0.070734,-0.082100,-0.701713,0.257292,-0.378935,-33.484186,-86.039590,42.693114
01500,250039,10.174413,-0.797792,1.177246,0.073539,-0.060141,-0.106625,-0.701234,0.256737,-0.377960,-32.962908,-86.101505,42.212863
01501,250139,10.268693,-0.912828,1.104844,0.095914,-0.076944,-0.121305,-0.707199,0.253393,-0.379140,-32.383769,-86.175726,41.687508
01502,250239,10.287066,-1.168025,1.028430,0.134307,-0.102004,-0.126056,-0.708227,0.251343,-0.377742,-31.841302,-86.263182,41.220999
01503,250339,10.375711,-1.423421,0.980597,0.185235,-0.090086,-0.127762,-0.711264,0.250274,-0.375295,-31.176980,-86.344973,40.661666
01504,250439,10.614713,-1.726756,0.878475,0.235578,-0.027927,-0.121618,-0.712194,0.245998,-0.379522,-30.217276,-86.393797,39.835301
01505,250539,10.860083,-1.853356,1.024233,0.265659,0.020150,-0.116663,-0.713681,0.245050,-0.380073,-29.040914,-86.416256,38.809151
01506,250639,11.234007,-1.713445,1.624831,0.266959,0.039202,-0.117091,-0.715221,0.239995,-0.378329,-27.765364,-86.427802,37.684386
01507,250739,11.656624,-1.422933,2.432976,0.261769,0.055183,-0.123742,-0.719188,0.239608,-0.379355,-26.365313,-86.431221,36.431906
01508,250839,12.129105,-0.835513,3.249084,0.238403,0.108515,-0.139001,-0.720159,0.238201,-0.380931,-24.644146,-86.408619,34.844254
01509,250939,12.561309,-0.121388,3.570280,0.189535,0.209589,-0.156490,-0.722620,0.233853,-0.383159,-22.474754,-86.333501,32.779334
01510,251039,12.911442,0.718251,3.451595,0.098882,0.358063,-0.170150,-0.722523,0.231129,-0.388810,-19.888480,-86.176444,30.244319
01511,251139,13.127896,1.381838,2.988537,-0.015058,0.506286,-0.195904,-0.721507,0.232157,-0.389758,-17.012564,-85.935711,27.352948
01512,251239,13.227633,1.678189,2.182687,-0.140117,0.627587,-0.228771,-0.726366,0.228089,-0.396986,-14.067785,-85.623235,24.319683
01513,251339,13.684862,1.841834,1.202285,-0.233939,0.737374,-0.248147,-0.722779,0.226804,-0.402558,-11.296789,-85.241099,21.405419
01514,251439,13.693684,1.030344,0.070090,-0.290078,0.766368,-0.229313,-0.726691,0.226064,-0.406609,-9.073191,-84.831045,19.006644
01515,251539,13.803543,0.134368,-1.574451,-0.282204,0.710764,-0.214469,-0.723591,0.225807,-0.412631,-7.314789,-84.444493,17.078129
01516,251639,12.985814,-0.762686,-3.390239,-0.266573,0.518146,-0.207713,-0.726007,0.226537,-0.416605,-5.934193,-84.162518,15.537204
01517,251739,11.191829,-1.179548,-4.266505,-0.224162,0.263429,-0.208816,-0.727925,0.226762,-0.420604,-4.771247,-84.022780,14.238943
01518,251839,9.673909,-0.935911,-3.763376,-0.153849,0.006775,-0.177152,-0.729924,0.228264,-0.420028,-3.886160,-84.026105,13.260407
01519,251939,8.598038,-0.188891,-2.654614,-0.017418,-0.194689,-0.166564,-0.730912,0.227308,-0.420579,-3.038384,-84.142860,12.398082
01520,252039,7.715973,0.560995,-1.592077,0.176349,-0.321694,-0.177875,-0.734442,0.224277,-0.418734,-2.005237,-84.331201,11.461267
01521,252139,7.563109,1.116942,-0.281983,0.305684,-0.390008,-0.203809,-0.736021,0.223586,-0.414261,-0.679681,-84.557080,10.305456
01522,252239,7.937565,1.305482,0.951967,0.292770,-0.341733,-0.208652,-0.738060,0.218539,-0.412517,0.772115,-84.752508,9.015828
01523,252339,8.200852,1.173821,1.507680,0.140039,-0.211814,-0.176865,-0.742515,0.218682,-0.414018,2.005534,-84.871057,7.857931
01524,252439,8.777538,0.799197,1.280090,-0.044125,-0.039658,-0.111022,-0.741567,0.217550,-0.411569,2.705467,-84.890794,7.129841
01525,252539,9.042325,0.630177,0.443251,-0.157591,0.123530,-0.051314,-0.739564,0.218040,-0.412043,2.908244,-84.818312,6.835614
01526,252639,9.226389,0.550918,-0.336189,-0.221556,0.211344,-0.027392,-0.739517,0.218659,-0.414516,2.890893,-84.696265,6.725594
01527,252739,9.538928,0.235245,-0.759146,-0.252245,0.229321,0.000716,-0.738500,0.219688,-0.415465,2.679557,-84.564780,6.792732
01528,252839,9.756976,-0.219394,-0.804621,-0.261280,0.204287,0.049602,-0.739503,0.221174,-0.414889,2.188211,-84.448827,7.135987
01529,252939,9.975833,-0.460463,-0.747320,-0.282485,0.145657,0.108978,-0.740939,0.222837,-0.417812,1.367575,-84.367185,7.797957
01530,253039,10.041540,-0.453445,-0.515116,-0.311034,0.095931,0.150724,-0.740428,0.224846,-0.418211,0.314820,-84.313377,8.676826
01531,253139,10.114366,-0.192814,-0.229140,-0.315387,0.060855,0.156750,-0.739933,0.228302,-0.417532,-0.758817,-84.278085,9.574241
01532,253239,10.010751,0.030894,-0.032467,-0.277303,0.038540,0.142509,-0.741452,0.230246,-0.415932,-1.721107,-84.254197,10.381727
01533,253339,9.773936,0.167458,0.198165,-0.213267,0.030857,0.114044,-0.739955,0.231219,-0.415881,-2.479815,-84.234113,11.021506
01534,253439,9.549324,0.288033,0.502022,-0.131378,0.032236,0.090990,-0.739923,0.228326,-0.418032,-3.056073,-84.213137,11.525087
01535,253539,9.271373,0.439853,0.739898,-0.053412,0.027311,0.075965,-0.740409,0.230350,-0.418431,-3.500878,-84.195018,11.941456
01536,253639,8.970841,0.544003,0.975886,0.008598,0.001652,0.067173,-0.744860,0.232487,-0.419830,-3.867799,-84.191588,12.315259
01537,253739,8.662767,0.678625,1.128386,0.031603,-0.033738,0.061719,-0.741934,0.233766,-0.416254,-4.204910,-84.208358,12.672344
01538,253839,8.443517,0.790453,1.278735,0.019322,-0.067363,0.055319,-0.744421,0.230840,-0.416907,-4.529752,-84.244389,13.010006
01539,253939,8.243732,0.890706,1.316561,-0.023348,-0.068279,0.045764,-0.743919,0.232825,-0.416805,-4.828980,-84.281184,13.297334
01540,254039,8.141079,0.725812,1.275339,-0.059186,-0.054873,0.046953,-0.745873,0.233949,-0.418754,-5.152281,-84.310094,13.588200
01541,254139,8.186852,0.525864,1.183580,-0.097821,-0.030368,0.049004,-0.745919,0.233829,-0.416255,-5.499032,-84.324728,13.880374
01542,254239,8.070995,0.203164,1.099587,-0.108646,-0.017950,0.056208,-0.745949,0.232760,-0.414807,-5.887668,-84.331674,14.208401
01543,254339,8.059351,-0.066038,1.036757,-0.106026,-0.028748,0.061844,-0.746904,0.234865,-0.416705,-6.314896,-84.344183,14.576711
01544,254439,8.071697,-0.234709,0.978844,-0.081391,-0.045843,0.069973,-0.748381,0.234439,-0.417730,-6.788282,-84.365595,15.005576
01545,254539,8.054179,-0.345388,0.848564,-0.052265,-0.075280,0.082312,-0.747386,0.233925,-0.417755,-7.341690,-84.402489,15.531595
01546,254639,8.035554,-0.362237,0.718500,-0.015255,-0.112030,0.101184,-0.748895,0.235893,-0.416655,-8.021169,-84.458245,16.205547
01547,254739,8.070834,-0.283373,0.674283,0.013912,-0.142590,0.109899,-0.748914,0.235845,-0.415655,-8.776789,-84.529767,16.972708
01548,254839,8.066421,-0.088710,0.659368,0.049425,-0.179710,0.113741,-0.748454,0.235243,-0.413681,-9.592487,-84.620917,17.820552
01549,254939,8.126882,0.135301,0.710596,0.072705,-0.224212,0.109876,-0.750938,0.233812,-0.414258,-10.449694,-84.736379,18.723335
01550,255039,8.257849,0.344063,0.876286,0.091423,-0.268106,0.101285,-0.751953,0.233281,-0.413284,-11.336592,-84.876175,19.666514
01551,255139,8.483999,0.586724,0.941940,0.109344,-0.308972,0.089703,-0.752460,0.233763,-0.412759,-12.246661,-85.038887,20.643038
01552,255239,8.682221,0.777039,1.063681,0.121236,-0.338473,0.076584,-0.753007,0.232156,-0.410336,-13.171992,-85.218339,21.641463
01553,255339,8.871602,0.912286,1.142710,0.128767,-0.365471,0.061471,-0.757477,0.234244,-0.410736,-14.109900,-85.413454,22.656562
01554,255439,8.975101,0.866068,1.276739,0.129272,-0.377776,0.050566,-0.758104,0.229953,-0.404442,-15.078941,-85.615547,23.702895
01555,255539,9.052890,0.728931,1.414438,0.130094,-0.373144,0.044946,-0.761580,0.230531,-0.404917,-16.091728,-85.814487,24.793285
01556,255639,9.076223,0.527496,1.593404,0.137438,-0.346464,0.050289,-0.761121,0.229430,-0.402968,-17.181354,-85.996351,25.964663
01557,255739,9.093214,0.278223,1.719839,0.156483,-0.298722,0.055310,-0.762645,0.228883,-0.401495,-18.278735,-86.149625,27.154509
01558,255839,9.164608,0.009603,1.864318,0.171327,-0.237917,0.067365,-0.763700,0.226762,-0.398598,-19.382924,-86.266064,28.359512
01559,255939,9.368104,-0.178041,1.741745,0.191997,-0.166720,0.082421,-0.765189,0.224817,-0.399200,-20.450532,-86.339644,29.539592
01560,256039,9.517973,-0.198785,1.511963,0.210243,-0.096375,0.094041,-0.766150,0.228890,-0.400496,-21.416575,-86.371811,30.628307
01561,256139,9.589756,-0.206540,1.281956,0.214408,-0.075225,0.105254,-0.766165,0.225379,-0.400175,-22.418907,-86.389123,31.755745
01562,256239,9.612268,-0.142920,1.200624,0.207983,-0.114130,0.113121,-0.765637,0.226439,-0.401623,-23.643057,-86.423784,33.101715
01563,256339,9.825292,-0.067091,1.298954,0.183238,-0.155372,0.121397,-0.768111,0.225531,-0.402674,-25.137496,-86.475983,34.704225
01564,256439,10.100274,0.024303,1.302270,0.157537,-0.162844,0.133665,-0.767622,0.225997,-0.402149,-26.827036,-86.526158,36.487357
01565,256539,10.319901,0.266845,1.131807,0.118187,-0.133236,0.153595,-0.767611,0.227018,-0.402598,-28.619642,-86.552665,38.351082
01566,256639,10.449001,0.559414,0.902128,0.057386,-0.097993,0.162650,-0.769088,0.226093,-0.403649,-30.377250,-86.555543,40.144817
01567,256739,10.630203,0.959227,0.852317,-0.033744,-0.087954,0.155683,-0.770100,0.227555,-0.402573,-32.080866,-86.552324,41.832152
01568,256839,11.052610,1.431053,1.011880,-0.133713,-0.086929,0.136378,-0.768607,0.227033,-0.402598,-33.678344,-86.551713,43.355774
01569,256939,11.511843,1.729186,1.324754,-0.216405,-0.058088,0.107393,-0.767599,0.228038,-0.403047,-34.937948,-86.544541,44.493447
01570,257039,12.109416,1.644691,1.844331,-0.235478,0.022990,0.084147,-0.769090,0.230055,-0.402946,-35.577084,-86.505991,44.998585
01571,257139,12.861171,1.117024,2.477855,-0.185599,0.147765,0.081451,-0.768035,0.232176,-0.405843,-35.482603,-86.409994,44.797370
01572,257239,13.745120,0.307714,2.934804,-0.092826,0.288669,0.091103,-0.762498,0.233230,-0.408789,-34.700279,-86.244621,43.960133
01573,257339,14.482334,-0.542616,2.815725,0.008126,0.410599,0.092159,-0.764930,0.234909,-0.411712,-33.376101,-86.020002,42.637594
01574,257439,14.968129,-1.386764,2.698123,0.130951,0.500709,0.099273,-0.762328,0.234660,-0.417735,-31.802133,-85.747439,41.134779
01575,257539,14.823810,-1.767544,2.289453,0.174407,0.577570,0.116595,-0.762251,0.230891,-0.422436,-30.218301,-85.429100,39.646473
01576,257639,14.647597,-1.691641,1.620071,0.102895,0.665078,0.139069,-0.756636,0.234131,-0.429279,-28.725272,-85.057787,38.207456
01577,257739,14.543055,-1.312875,0.734539,-0.015746,0.719033,0.160028,-0.756038,0.238349,-0.434074,-27.464964,-84.650797,36.933008
01578,257839,13.960593,-0.803817,-0.241615,-0.119183,0.665306,0.173884,-0.752403,0.238181,-0.442095,-26.648869,-84.265655,36.044492
01579,257939,12.612017,-0.287572,-1.281911,-0.186477,0.498198,0.165187,-0.753306,0.243894,-0.446314,-26.331487,-83.967675,35.618038
01580,258039,11.214577,0.061486,-1.921170,-0.194337,0.257127,0.117179,-0.748744,0.246507,-0.450184,-26.383828,-83.805658,35.558712
01581,258139,10.077180,0.123854,-2.136553,-0.145560,0.028354,0.051676,-0.751751,0.246506,-0.449185,-26.634561,-83.777789,35.727049
01582,258239,9.303103,0.076608,-2.021519,-0.090544,-0.138555,0.002114,-0.753210,0.251086,-0.450457,-27.017550,-83.848055,36.060117
01583,258339,7.956904,-0.093898,-1.910917,-0.051640,-0.296215,-0.034767,-0.751284,0.249890,-0.447008,-27.603574,-84.008041,36.619707
01584,258439,6.986558,-0.193235,-1.547335,-0.027483,-0.453601,-0.071660,-0.754305,0.247872,-0.445611,-28.445657,-84.256868,37.450407
01585,258539,6.361820,-0.402977,-1.022489,0.013500,-0.536678,-0.107568,-0.755400,0.249117,-0.440038,-29.396118,-84.555985,38.413193
01586,258639,5.708583,-0.794162,-0.502879,0.104552,-0.528490,-0.137600,-0.758410,0.248120,-0.439090,-30.212835,-84.858110,39.293573
01587,258739,5.529396,-1.300101,-0.237061,0.234899,-0.440228,-0.146954,-0.758451,0.246031,-0.437192,-30.698913,-85.118406,39.916628
01588,258839,5.894264,-1.643958,-0.274262,0.352758,-0.273590,-0.128574,-0.761473,0.242519,-0.435872,-30.686018,-85.290988,40.106521
01589,258939,6.880536,-1.727240,-0.488806,0.386908,-0.096889,-0.093881,-0.758994,0.241458,-0.435422,-30.232249,-85.366284,39.873671
01590,259039,7.751053,-1.782506,-0.641078,0.381166,0.006568,-0.065053,-0.759037,0.237875,-0.433600,-29.582902,-85.381780,39.441320
01591,259139,8.581494,-1.736770,-0.589973,0.354845,0.022781,-0.024984,-0.758967,0.235576,-0.437726,-29.138182,-85.377594,39.199139
01592,259239,9.600955,-1.374926,-0.342468,0.330107,-0.002105,0.022114,-0.755972,0.234058,-0.438301,-29.085789,-85.372659,39.336346
01593,259339,10.833408,-0.697469,-0.003930,0.299380,0.014769,0.073456,-0.754478,0.233536,-0.438326,-29.308872,-85.344927,39.732275
01594,259439,11.952821,0.055411,0.055212,0.256814,0.073904,0.116277,-0.754984,0.234516,-0.437775,-29.607956,-85.275502,40.180017
01595,259539,12.327366,0.715742,-0.266686,0.184326,0.125244,0.140855,-0.754929,0.234163,-0.440799,-29.907585,-85.173399,40.586682
01596,259639,11.817268,1.048289,-0.574121,0.060262,0.104487,0.108658,-0.753961,0.234075,-0.439300,-30.147062,-85.090716,40.861689
01597,259739,11.048670,1.025681,-0.531811,-0.078199,0.030384,0.048254,-0.754905,0.237200,-0.441647,-30.360038,-85.062101,41.030492
01598,259839,10.290641,0.756163,-0.177375,-0.170203,-0.041302,-0.005896,-0.753923,0.234171,-0.441299,-30.555521,-85.084597,41.128827
01599,259939,9.666617,0.359942,0.198290,-0.203233,-0.103300,-0.040521,-0.755463,0.234572,-0.438775,-30.783975,-85.147748,41.241251
01600,260039,9.211839,-0.000123,0.646299,-0.198720,-0.137544,-0.055877,-0.753968,0.235047,-0.438749,-31.044744,-85.232209,41.388686
01601,260139,8.922016,-0.292665,1.010970,-0.183382,-0.157552,-0.071659,-0.758946,0.236621,-0.438674,-31.282067,-85.331087,41.521394
01602,260239,8.632297,-0.526488,1.278886,-0.162491,-0.159869,-0.090169,-0.758008,0.235464,-0.435726,-31.410571,-85.436553,41.556918
01603,260339,8.408780,-0.809542,1.480337,-0.131486,-0.132151,-0.103801,-0.760021,0.234451,-0.434778,-31.333550,-85.532487,41.404093
01604,260439,8.087604,-0.984638,1.519517,-0.099344,-0.079034,-0.108630,-0.759983,0.235046,-0.436752,-30.997035,-85.603727,41.009485
01605,260539,7.815582,-0.937501,1.345873,-0.073862,-0.023445,-0.117294,-0.761458,0.235616,-0.437727,-30.364475,-85.649812,40.332644
01606,260639,7.863525,-0.768090,1.118958,-0.056045,0.023698,-0.124832,-0.760435,0.234676,-0.439276,-29.481336,-85.673927,39.414774
01607,260739,7.988344,-0.575508,0.889893,-0.046020,0.045607,-0.127010,-0.759441,0.233663,-0.439327,-28.488502,-85.686508,38.392679
01608,260839,8.166451,-0.425474,0.645352,-0.039003,0.037244,-0.128370,-0.757959,0.231623,-0.438928,-27.506323,-85.702346,37.385323
01609,260939,8.418787,-0.321286,0.455616,-0.038496,-0.004660,-0.126003,-0.759456,0.230152,-0.439005,-26.676877,-85.737740,36.531451
01610,261039,8.706262,-0.309472,0.398327,-0.054577,-0.059091,-0.123722,-0.759925,0.231228,-0.440454,-26.043828,-85.799681,35.865329
01611,261139,8.953192,-0.426700,0.467841,-0.079129,-0.102240,-0.116358,-0.760951,0.229677,-0.439031,-25.605786,-85.881569,35.380687
01612,261239,9.102038,-0.635200,0.671662,-0.110653,-0.122551,-0.103048,-0.762468,0.227660,-0.438133,-25.335602,-85.970453,35.046271
01613,261339,9.133756,-0.897295,0.973261,-0.139142,-0.127641,-0.081195,-0.762408,0.230295,-0.441005,-25.250935,-86.056528,34.881498
01614,261439,9.116682,-1.119788,1.204986,-0.157258,-0.114307,-0.054826,-0.762480,0.226141,-0.437710,-25.325621,-86.129209,34.866064
01615,261539,9.055810,-1.272607,1.437412,-0.166846,-0.101527,-0.029048,-0.764476,0.229636,-0.437032,-25.560478,-86.188897,35.005656
01616,261639,8.910836,-1.309642,1.515895,-0.151924,-0.071476,-0.006565,-0.764044,0.228961,-0.433559,-25.855404,-86.227400,35.214012
01617,261739,8.617726,-1.265627,1.499135,-0.127805,-0.036276,0.002083,-0.763493,0.227105,-0.436660,-26.074398,-86.245499,35.360116
01618,261839,8.306181,-1.202492,1.434459,-0.096229,-0.018328,-0.002888,-0.765499,0.224622,-0.436288,-26.168679,-86.255556,35.399367
01619,261939,8.268619,-1.053025,1.511052,-0.084355,-0.005619,-0.013499,-0.766490,0.227627,-0.436135,-26.123888,-86.261718,35.306070
01620,262039,8.409096,-0.847356,1.483012,-0.075481,0.024215,-0.028516,-0.768985,0.225673,-0.436238,-25.840961,-86.256233,34.979225
01621,262139,8.731947,-0.591575,1.376174,-0.050374,0.057172,-0.045358,-0.767952,0.225255,-0.438262,-25.288354,-86.237697,34.396531
01622,262239,9.171073,-0.465768,1.298495,-0.018480,0.089890,-0.064626,-0.769932,0.221848,-0.439440,-24.453629,-86.206314,33.549403
01623,262339,9.555887,-0.528715,1.194849,0.008014,0.106270,-0.085373,-0.769462,0.221767,-0.437941,-23.398877,-86.170239,32.496940
01624,262439,9.929444,-0.661358,1.262972,0.033548,0.093141,-0.105299,-0.769408,0.220916,-0.440990,-22.235405,-86.144157,31.350137
01625,262539,10.322215,-0.786883,1.272226,0.054145,0.074731,-0.117483,-0.770390,0.217990,-0.442142,-21.036079,-86.128856,30.179201
01626,262639,10.589079,-1.073779,1.143049,0.085019,0.043557,-0.119723,-0.771817,0.214221,-0.446345,-19.900969,-86.129115,29.090347
01627,262739,10.552539,-1.406471,0.948920,0.135059,0.009091,-0.111941,-0.771399,0.215989,-0.441745,-18.894831,-86.145131,28.159508
01628,262839,10.535137,-1.693764,0.729124,0.197113,-0.015057,-0.098680,-0.772386,0.211071,-0.442999,-18.017366,-86.170820,27.393292
01629,262939,10.765480,-1.938517,0.653364,0.271691,0.000191,-0.078557,-0.774374,0.208137,-0.443651,-17.213266,-86.183925,26.743450
01630,263039,11.169817,-1.906746,0.938456,0.339493,0.029767,-0.060923,-0.774867,0.206176,-0.444253,-16.439104,-86.177270,26.162553
01631,263139,11.679665,-1.485281,1.635995,0.359760,0.068268,-0.056015,-0.776838,0.202792,-0.445931,-15.607355,-86.148063,25.535568
01632,263239,12.336399,-0.984162,2.758102,0.331944,0.085925,-0.057515,-0.779792,0.201442,-0.448007,-14.752162,-86.108648,24.869085
01633,263339,12.966440,-0.459836,3.799333,0.255943,0.096649,-0.054660,-0.779339,0.196853,-0.446236,-13.956844,-86.062154,24.218936
01634,263439,13.634037,0.159314,4.506717,0.154315,0.162656,-0.063212,-0.782819,0.195438,-0.446814,-13.044430,-85.979283,23.392983
01635,263539,14.005875,0.912656,4.409608,0.066657,0.303858,-0.085037,-0.778716,0.194193,-0.453386,-11.814547,-85.818955,22.198265
01636,263639,14.099660,1.196202,3.464191,-0.025230,0.453473,-0.105999,-0.782178,0.192327,-0.454988,-10.367106,-85.574800,20.732264
01637,263739,14.617757,1.482260,2.235198,-0.128621,0.584496,-0.126440,-0.780535,0.192191,-0.463010,-8.847419,-85.255791,19.133795
01638,263839,14.873959,1.481202,0.984420,-0.225540,0.712927,-0.121785,-0.780934,0.190969,-0.468584,-7.500687,-84.860489,17.652356
01639,263939,14.255929,0.983255,-0.892151,-0.276786,0.730378,-0.127570,-0.780355,0.189683,-0.473158,-6.339280,-84.453038,16.326623
01640,264039,13.015017,0.310214,-2.823580,-0.345441,0.541641,-0.180162,-0.777280,0.190849,-0.477605,-5.190484,-84.153924,14.973242
01641,264139,11.276504,-0.291989,-3.978234,-0.364000,0.238668,-0.193209,-0.776721,0.188519,-0.481230,-4.220691,-84.026153,13.788618
01642,264239,9.775314,-0.454772,-3.827513,-0.315063,-0.070775,-0.178655,-0.781246,0.191459,-0.478580,-3.443444,-84.073022,12.825691
01643,264339,8.751621,-0.210219,-3.021226,-0.240981,-0.319821,-0.139482,-0.782242,0.191474,-0.478581,-2.895831,-84.260074,12.136468
01644,264439,7.908215,0.446647,-1.877614,-0.133974,-0.473606,-0.122862,-0.785306,0.190831,-0.474608,-2.378997,-84.534120,11.540058
01645,264539,7.542295,1.071853,-0.587925,-0.028842,-0.518830,-0.125668,-0.790373,0.189697,-0.470163,-1.732237,-84.833547,10.873941
01646,264639,7.696134,1.445537,0.599594,-0.015787,-0.457418,-0.133518,-0.791456,0.188001,-0.465741,-0.937194,-85.097102,10.066772
01647,264739,8.207543,1.387282,1.442694,-0.125941,-0.277932,-0.121214,-0.794415,0.188619,-0.467216,-0.199107,-85.256757,9.253675
01648,264839,8.599080,0.986846,1.268722,-0.279572,-0.074174,-0.073481,-0.793454,0.184545,-0.465919,0.156518,-85.298976,8.736135
01649,264939,8.610178,0.472031,0.396598,-0.374157,0.034885,-0.013239,-0.793948,0.187044,-0.465792,0.040240,-85.278684,8.637728
01650,265039,8.819909,0.465298,-0.467440,-0.411182,0.033127,0.020780,-0.790963,0.189962,-0.465139,-0.332025,-85.259413,8.774895
01651,265139,9.180524,0.281462,-1.031277,-0.432110,0.008887,0.041232,-0.794938,0.190548,-0.465615,-0.856971,-85.253865,9.053239
01652,265239,9.329030,-0.186504,-1.294957,-0.458230,-0.016636,0.073292,-0.792945,0.190516,-0.465614,-1.621471,-85.262333,9.556945
01653,265339,9.296955,-0.707515,-1.240567,-0.474839,-0.041739,0.120722,-0.795926,0.195048,-0.465387,-2.733941,-85.283507,10.400252
01654,265439,9.271401,-1.099588,-1.127989,-0.452761,-0.097682,0.161983,-0.796997,0.194871,-0.461388,-4.157111,-85.333758,11.567956
01655,265539,9.395168,-1.158747,-0.826720,-0.388753,-0.149742,0.188398,-0.795986,0.197869,-0.461736,-5.794344,-85.409880,12.987114
01656,265639,9.646769,-1.013368,-0.455498,-0.292415,-0.185919,0.191396,-0.797982,0.201364,-0.461058,-7.482004,-85.503065,14.512065
01657,265739,9.651006,-0.648681,-0.074616,-0.179664,-0.197448,0.186609,-0.801061,0.202665,-0.455985,-9.149611,-85.599620,16.081500
01658,265839,9.555582,-0.308483,0.247537,-0.071573,-0.202715,0.167372,-0.801116,0.203018,-0.452961,-10.689494,-85.697606,17.584747
01659,265939,9.342794,0.000453,0.460424,0.010181,-0.201949,0.149796,-0.803601,0.201089,-0.453563,-12.116589,-85.794165,19.021674
01660,266039,9.152913,0.371803,0.587210,0.044295,-0.200009,0.137515,-0.805138,0.202985,-0.450963,-13.491217,-85.888564,20.425413
01661,266139,8.823402,0.560890,0.593233,0.042558,-0.199420,0.120484,-0.809111,0.204567,-0.451388,-14.795448,-85.982611,21.757412
01662,266239,8.539921,0.708187,0.632459,0.020481,-0.193325,0.111396,-0.810671,0.204423,-0.447890,-16.087504,-86.072513,23.064375
01663,266339,8.298812,0.843282,0.665566,-0.009343,-0.185787,0.108669,-0.811713,0.204816,-0.445366,-17.415069,-86.156634,24.389662
01664,266439,8.044050,0.868121,0.758418,-0.045928,-0.170467,0.104799,-0.816216,0.203843,-0.444418,-18.747103,-86.230987,25.698291
01665,266539,7.827121,0.769272,0.742366,-0.070748,-0.157576,0.107131,-0.817703,0.207852,-0.444215,-20.125548,-86.295850,27.039073
01666,266639,7.836331,0.695364,0.680778,-0.093419,-0.164012,0.105828,-0.820710,0.208350,-0.443192,-21.574683,-86.362246,28.437570
01667,266739,7.825517,0.480777,0.623854,-0.097916,-0.180883,0.102276,-0.821264,0.208213,-0.440193,-23.108794,-86.436001,29.918518
01668,266839,7.836868,0.210190,0.525377,-0.080197,-0.209422,0.100434,-0.826731,0.209819,-0.440618,-24.791565,-86.522488,31.558448
01669,266939,7.976057,0.017296,0.454503,-0.048615,-0.242119,0.099609,-0.829316,0.208621,-0.435672,-26.673700,-86.622882,33.416062
01670,267039,8.238918,-0.110138,0.475571,-0.011793,-0.269197,0.099313,-0.826410,0.209354,-0.431122,-28.774342,-86.733170,35.513482
01671,267139,8.412087,-0.141360,0.515406,0.018531,-0.280795,0.097125,-0.830369,0.207994,-0.432698,-31.043250,-86.845126,37.796600
01672,267239,8.421861,-0.126873,0.568166,0.045895,-0.285846,0.089592,-0.831911,0.207897,-0.430200,-33.421671,-86.956550,40.204845
01673,267339,8.585063,-0.060295,0.598160,0.066614,-0.286304,0.082997,-0.831432,0.207343,-0.429225,-35.908204,-87.064708,42.732991
01674,267439,8.769124,0.066338,0.700673,0.091535,-0.277392,0.085607,-0.835991,0.206225,-0.425279,-38.525441,-87.161911,45.406070
01675,267539,8.922394,0.240447,0.811642,0.094029,-0.268557,0.091701,-0.837006,0.206193,-0.424280,-41.306818,-87.246537,48.244701
01676,267639,8.934784,0.378432,0.987569,0.081366,-0.282666,0.096549,-0.837553,0.204586,-0.421857,-44.429012,-87.327957,51.417067
01677,267739,8.916893,0.526960,1.158270,0.060905,-0.293161,0.095378,-0.842086,0.203042,-0.419436,-47.837643,-87.405343,54.864227
01678,267839,8.831593,0.640210,1.256664,0.038980,-0.308583,0.094228,-0.839601,0.204971,-0.418834,-51.602606,-87.478888,58.655289
01679,267939,8.720748,0.640573,1.279222,0.030710,-0.318493,0.093631,-0.842126,0.206409,-0.416759,-55.684647,-87.544330,62.758777
01680,268039,8.678198,0.526691,1.300465,0.046287,-0.306330,0.091193,-0.846641,0.203917,-0.415388,-59.797293,-87.594328,66.901649
01681,268139,8.769749,0.360929,1.372088,0.068467,-0.267690,0.091282,-0.846673,0.206810,-0.413236,-63.569312,-87.621564,70.716196
01682,268239,8.933122,0.126605,1.426372,0.106664,-0.202728,0.088534,-0.845721,0.202712,-0.411440,-66.545709,-87.625094,73.756296
01683,268339,9.190842,-0.068027,1.383177,0.153278,-0.136058,0.087359,-0.846724,0.204198,-0.410864,-68.632404,-87.609098,75.932668
01684,268439,9.543017,-0.050578,1.238143,0.167932,-0.095932,0.080500,-0.845218,0.200735,-0.412041,-70.133279,-87.585855,77.531138
01685,268539,9.786609,-0.095455,1.076474,0.188787,-0.095549,0.077427,-0.845781,0.200574,-0.408543,-71.573106,-87.562487,79.080491
01686,268639,10.070963,-0.210549,0.943951,0.202165,-0.131227,0.080969,-0.847716,0.201747,-0.411491,-73.444625,-87.541437,81.069626
01687,268739,10.470072,-0.340636,0.902499,0.220704,-0.145439,0.102501,-0.845285,0.199072,-0.408619,-75.522985,-87.507753,83.276469
01688,268839,10.897292,-0.332609,0.927819,0.224395,-0.099948,0.133777,-0.849761,0.198170,-0.409171,-77.054021,-87.447491,84.937651
01689,268939,11.147537,-0.254118,0.855961,0.215362,-0.021221,0.167330,-0.847242,0.198701,-0.410644,-77.639519,-87.357255,85.647239
01690,269039,11.420435,-0.052617,0.603825,0.187725,0.020655,0.198917,-0.847777,0.198613,-0.408645,-77.786005,-87.244036,85.901532
01691,269139,11.721784,0.247715,0.553112,0.147849,0.029352,0.226061,-0.848239,0.198219,-0.410670,-77.906324,-87.114552,86.106775
01692,269239,12.124851,0.612188,0.866363,0.093463,0.044269,0.231217,-0.847740,0.198709,-0.410644,-77.895706,-86.980406,86.149723
01693,269339,12.533246,0.850796,1.418764,0.053694,0.127530,0.227202,-0.848687,0.199842,-0.413093,-77.051961,-86.838206,85.335511
