PacketCounter,SampleTimeFine,Acc_X,Acc_Y,Acc_Z,Gyr_X,Gyr_Y,Gyr_Z,Mag_X,Mag_Y,Mag_Z,Roll,Pitch,Yaw
01782,287089,9.577487,-0.616633,2.148323,-0.057160,0.022574,-0.017930,-0.503647,0.123730,-0.388028,-19.519583,-77.046799,19.059130
01783,287189,9.475635,-0.640168,2.060496,-0.066411,0.026731,-0.025965,-0.500172,0.122156,-0.387603,-19.473472,-77.041729,18.963396
01784,287289,9.460225,-0.651294,1.999937,-0.067426,0.018717,-0.025205,-0.503626,0.119817,-0.389731,-19.431274,-77.041978,18.878681
01785,287389,9.513967,-0.570891,2.055245,-0.066929,0.008645,-0.016006,-0.503640,0.122260,-0.388604,-19.423226,-77.046315,18.820232
01786,287489,9.574725,-0.526878,2.055642,-0.064453,-0.006722,-0.008314,-0.504635,0.122774,-0.388579,-19.445043,-77.057961,18.792125
01787,287589,9.622066,-0.514574,2.123665,-0.066438,-0.015541,-0.002377,-0.502154,0.122710,-0.388078,-19.488302,-77.071769,18.787136
01788,287689,9.650942,-0.547867,2.192713,-0.067818,-0.020712,-0.000734,-0.501663,0.123675,-0.387527,-19.541692,-77.087778,18.788916
01789,287789,9.629982,-0.608108,2.244577,-0.064780,-0.014173,-0.002284,-0.503627,0.124277,-0.389002,-19.583170,-77.100584,18.773828
01790,287889,9.621792,-0.660102,2.267748,-0.057150,0.002557,-0.006685,-0.503160,0.122204,-0.387604,-19.594345,-77.106065,18.748418
01791,287989,9.572844,-0.650656,2.263633,-0.051571,0.028114,-0.009453,-0.506163,0.124694,-0.386479,-19.579915,-77.100740,18.691329
01792,288089,9.530067,-0.618326,2.217612,-0.050561,0.044129,-0.011529,-0.504162,0.124686,-0.386978,-19.545234,-77.085660,18.613541
01793,288189,9.579756,-0.576214,2.190723,-0.053621,0.054286,-0.008317,-0.501150,0.121722,-0.388629,-19.504588,-77.062012,18.540105
01794,288289,9.587128,-0.541144,2.200831,-0.058493,0.054673,-0.000258,-0.505131,0.123778,-0.388528,-19.489480,-77.039233,18.481487
01795,288389,9.598673,-0.607443,2.195353,-0.067090,0.054687,-0.001421,-0.506666,0.122211,-0.386606,-19.477359,-77.019370,18.436856
01796,288489,9.579629,-0.713430,2.179400,-0.060236,0.048860,0.001210,-0.503111,0.123819,-0.390027,-19.469005,-76.997526,18.382923
01797,288589,9.559063,-0.812546,2.209657,-0.050892,0.037727,-0.000833,-0.505123,0.123304,-0.389053,-19.460812,-76.984231,18.341717
01798,288689,9.547491,-0.877332,2.194893,-0.037939,0.040688,-0.002740,-0.504135,0.123762,-0.388528,-19.439272,-76.969486,18.294334
01799,288789,9.524679,-0.814626,2.158221,-0.023514,0.052370,0.000384,-0.508648,0.122765,-0.387081,-19.409052,-76.951997,18.257031
01800,288889,9.497043,-0.703186,2.137098,-0.017538,0.046670,0.008364,-0.507115,0.123834,-0.389029,-19.397390,-76.933810,18.232077
01801,288989,9.459137,-0.575074,2.132777,-0.013100,0.027833,0.015370,-0.504164,0.123192,-0.387054,-19.415542,-76.924032,18.249313
01802,289089,9.484373,-0.495385,2.152749,-0.002895,-0.004081,0.018182,-0.505141,0.123754,-0.388029,-19.460046,-76.930756,18.294277
01803,289189,9.525366,-0.515908,2.198274,0.007353,-0.030905,0.013337,-0.508161,0.121736,-0.386632,-19.509077,-76.955656,18.363336
01804,289289,9.574486,-0.632356,2.289390,0.016471,-0.045419,0.000305,-0.504223,0.121553,-0.384131,-19.535785,-76.989637,18.419728
01805,289389,9.553046,-0.751948,2.384984,0.033769,-0.045220,-0.009045,-0.504697,0.119142,-0.385758,-19.526007,-77.024437,18.455214
01806,289489,9.528309,-0.822528,2.453952,0.055639,-0.031111,-0.015913,-0.505712,0.119109,-0.384758,-19.477026,-77.053862,18.462322
01807,289589,9.555599,-0.805155,2.450855,0.082075,-0.017375,-0.020419,-0.504227,0.119061,-0.384259,-19.391128,-77.075852,18.444876
01808,289689,9.561924,-0.804411,2.388918,0.105770,-0.005688,-0.023966,-0.504213,0.116619,-0.385385,-19.270106,-77.091554,18.411685
01809,289789,9.535790,-0.818295,2.336342,0.112263,0.005608,-0.027734,-0.506242,0.117052,-0.383361,-19.130225,-77.104112,18.359368
01810,289889,9.483166,-0.757989,2.236136,0.107902,0.004487,-0.024528,-0.507745,0.112093,-0.383615,-18.996173,-77.117750,18.329401
01811,289989,9.448776,-0.677935,2.261265,0.097270,-0.015779,-0.018786,-0.508297,0.112953,-0.380566,-18.901832,-77.143001,18.327894
01812,290089,9.463434,-0.583194,2.294054,0.093795,-0.034467,-0.015206,-0.507308,0.114408,-0.379990,-18.834874,-77.176748,18.341134
01813,290189,9.533214,-0.502564,2.329580,0.090937,-0.047730,-0.018118,-0.509278,0.111024,-0.381668,-18.768558,-77.218061,18.361849
01814,290289,9.600352,-0.484634,2.284569,0.087496,-0.042298,-0.021129,-0.510307,0.108477,-0.380295,-18.690836,-77.257927,18.375083
01815,290389,9.579280,-0.552229,2.236941,0.079160,-0.024309,-0.027590,-0.507358,0.106838,-0.378371,-18.587143,-77.288073,18.359276
01816,290489,9.537649,-0.609826,2.144827,0.073975,-0.009948,-0.029385,-0.510814,0.103502,-0.380550,-18.466205,-77.310798,18.326215
01817,290589,9.486997,-0.647199,2.104185,0.072399,-0.007876,-0.027680,-0.513837,0.104948,-0.378475,-18.351570,-77.333256,18.282453
01818,290689,9.444220,-0.644040,2.127998,0.078200,-0.016971,-0.025676,-0.512372,0.103856,-0.377026,-18.246211,-77.358505,18.247409
01819,290789,9.438142,-0.641239,2.166094,0.083386,-0.026615,-0.022406,-0.514863,0.103895,-0.377027,-18.154471,-77.387141,18.218954
01820,290889,9.469733,-0.567970,2.229898,0.087689,-0.038529,-0.017534,-0.513352,0.102923,-0.378077,-18.081948,-77.418022,18.208472
01821,290989,9.489607,-0.464704,2.243183,0.085530,-0.050601,-0.016779,-0.514421,0.098286,-0.374807,-18.021787,-77.454692,18.210212
01822,291089,9.532018,-0.444257,2.256832,0.073894,-0.056168,-0.018273,-0.512930,0.096768,-0.374883,-17.970311,-77.492072,18.207600
01823,291189,9.545288,-0.475363,2.259514,0.059279,-0.052974,-0.020098,-0.515490,0.094148,-0.371512,-17.921292,-77.527352,18.193069
01824,291289,9.561485,-0.528239,2.186049,0.051128,-0.037089,-0.020006,-0.516460,0.092741,-0.373088,-17.865310,-77.552574,18.162775
01825,291389,9.518668,-0.580456,2.138360,0.044787,-0.023119,-0.018436,-0.515001,0.094116,-0.371012,-17.806371,-77.569435,18.123202
01826,291489,9.518578,-0.589828,2.144343,0.043192,-0.011573,-0.015348,-0.516480,0.092195,-0.372114,-17.746722,-77.579325,18.081912
01827,291589,9.495060,-0.532048,2.160394,0.041698,-0.004474,-0.008224,-0.516496,0.093641,-0.371038,-17.699982,-77.584063,18.052748
01828,291689,9.491322,-0.435569,2.162348,0.032349,-0.009169,-0.002638,-0.517964,0.092741,-0.372588,-17.676101,-77.590379,18.041537
01829,291789,9.515026,-0.379648,2.098443,0.029078,-0.020175,-0.002934,-0.516998,0.091656,-0.371140,-17.662020,-77.602758,18.038422
01830,291889,9.589869,-0.276639,2.144181,0.030255,-0.024137,0.001593,-0.521494,0.089710,-0.370743,-17.661592,-77.616516,18.049950
01831,291989,9.579123,-0.327364,2.167144,0.031324,-0.026895,-0.000806,-0.519479,0.091720,-0.371640,-17.656747,-77.632194,18.057561
01832,292089,9.562013,-0.444925,2.155071,0.027221,-0.027703,-0.001206,-0.519997,0.085725,-0.371445,-17.653874,-77.648384,18.064780
01833,292189,9.533373,-0.513270,2.127374,0.016565,-0.036635,-0.000255,-0.519484,0.088730,-0.371793,-17.666608,-77.669284,18.081716
01834,292289,9.479180,-0.558049,2.198113,0.000029,-0.044746,0.000024,-0.523010,0.088191,-0.369820,-17.696050,-77.694560,18.106057
01835,292389,9.542942,-0.559866,2.280465,-0.013458,-0.056112,0.005135,-0.521057,0.086569,-0.367896,-17.755273,-77.725137,18.152970
01836,292489,9.591689,-0.443037,2.275279,-0.015238,-0.046960,0.008973,-0.522989,0.089236,-0.370769,-17.818021,-77.750034,18.202430
01837,292589,9.586315,-0.354261,2.176525,-0.014906,-0.026513,0.009063,-0.521558,0.090040,-0.367219,-17.864422,-77.763752,18.235336
01838,292689,9.567483,-0.298584,2.130949,-0.026910,-0.017481,0.012078,-0.522096,0.088457,-0.365296,-17.917989,-77.772009,18.268514
01839,292789,9.511948,-0.285014,2.088048,-0.042169,-0.007096,0.013970,-0.523002,0.087219,-0.370370,-17.976602,-77.774264,18.297887
01840,292889,9.517167,-0.329529,2.076350,-0.052100,-0.008750,0.009522,-0.520534,0.090096,-0.368718,-18.031054,-77.778202,18.317159
01841,292989,9.516293,-0.428108,2.096743,-0.052092,-0.020451,0.005263,-0.519030,0.090097,-0.369217,-18.084396,-77.789266,18.335291
01842,293089,9.492063,-0.485439,2.102275,-0.059961,-0.024799,0.004443,-0.520042,0.091559,-0.368142,-18.143828,-77.802837,18.355035
01843,293189,9.527170,-0.498254,2.104426,-0.060797,-0.025209,0.003854,-0.518020,0.092596,-0.369590,-18.202680,-77.816729,18.373689
01844,293289,9.558703,-0.463063,2.117298,-0.058500,-0.028260,0.007625,-0.517548,0.093513,-0.368039,-18.272346,-77.831600,18.404745
01845,293389,9.583315,-0.413642,2.094819,-0.061151,-0.026312,0.008217,-0.515997,0.094131,-0.371012,-18.343503,-77.845294,18.435758
01846,293489,9.573248,-0.465269,2.085862,-0.069427,-0.022455,0.007423,-0.514009,0.097065,-0.370359,-18.414262,-77.857024,18.461503
01847,293589,9.555283,-0.517030,2.045192,-0.081979,-0.025982,0.004804,-0.512991,0.098592,-0.371283,-18.488666,-77.871138,18.483618
01848,293689,9.482758,-0.562604,2.042900,-0.092560,-0.025474,0.004103,-0.515467,0.101645,-0.371631,-18.567059,-77.885095,18.503610
01849,293789,9.429001,-0.582674,2.043833,-0.092235,-0.033842,0.002314,-0.518952,0.102697,-0.371581,-18.648002,-77.903914,18.526403
01850,293889,9.409297,-0.553489,2.055397,-0.082976,-0.045248,0.004163,-0.512947,0.102674,-0.373079,-18.738294,-77.928570,18.564185
01851,293989,9.514734,-0.535086,2.099801,-0.062066,-0.053373,0.005660,-0.518953,0.102199,-0.371606,-18.827696,-77.957345,18.613297
01852,294089,9.651314,-0.522237,2.129235,-0.045596,-0.053448,0.006341,-0.516475,0.105599,-0.370428,-18.909787,-77.986013,18.664571
01853,294189,9.813370,-0.566248,2.174595,-0.034958,-0.041787,0.002037,-0.518456,0.106651,-0.370878,-18.964885,-78.009146,18.694475
01854,294289,9.860639,-0.658507,2.139451,-0.030737,-0.022932,-0.004483,-0.521446,0.106200,-0.370904,-18.984509,-78.023272,18.690593
01855,294389,9.794309,-0.753506,2.090837,-0.031871,-0.006893,-0.014683,-0.521453,0.107671,-0.370328,-18.964676,-78.030603,18.645726
01856,294489,9.685343,-0.788165,2.048976,-0.028136,0.006613,-0.023032,-0.520405,0.105308,-0.373454,-18.909507,-78.032155,18.566960
01857,294589,9.586330,-0.767409,1.997991,-0.019028,0.009026,-0.023886,-0.522915,0.109759,-0.371726,-18.844890,-78.032544,18.483869
01858,294689,9.546966,-0.736935,1.936840,-0.006055,-0.003175,-0.021054,-0.522904,0.105822,-0.372929,-18.790716,-78.039008,18.419090
01859,294789,9.493741,-0.698955,1.987696,0.015776,-0.025257,-0.019270,-0.523419,0.106778,-0.371879,-18.747800,-78.057111,18.378611
01860,294889,9.507928,-0.686238,2.079006,0.036411,-0.037577,-0.019166,-0.522440,0.107212,-0.370854,-18.703951,-78.081870,18.349275
01861,294989,9.538054,-0.665841,2.126982,0.055764,-0.041474,-0.019353,-0.524890,0.104383,-0.373506,-18.651764,-78.108770,18.322780
01862,295089,9.560802,-0.641199,2.144920,0.071522,-0.026512,-0.018079,-0.524845,0.108465,-0.375302,-18.580701,-78.127300,18.286214
01863,295189,9.544758,-0.600645,2.068976,0.075662,-0.012320,-0.016252,-0.525403,0.106335,-0.372405,-18.499513,-78.137788,18.241736
01864,295289,9.503668,-0.506442,2.006588,0.072209,-0.011177,-0.012104,-0.526381,0.105901,-0.373430,-18.429945,-78.146889,18.207113
01865,295389,9.515694,-0.353528,1.962042,0.060175,-0.014516,-0.008878,-0.528352,0.107974,-0.374329,-18.378425,-78.157217,18.183861
01866,295489,9.590840,-0.265821,1.968186,0.045056,-0.026374,-0.006493,-0.528871,0.106439,-0.373405,-18.351845,-78.173566,18.177225
01867,295589,9.664884,-0.238812,2.008706,0.029465,-0.037256,-0.007813,-0.527364,0.108432,-0.373803,-18.340078,-78.196069,18.176563
01868,295689,9.752521,-0.305947,2.047424,0.019215,-0.050513,-0.010217,-0.528882,0.110875,-0.372177,-18.339333,-78.226224,18.181126
01869,295789,9.752973,-0.415179,2.102004,0.013157,-0.052303,-0.014455,-0.529393,0.108367,-0.371804,-18.332483,-78.258116,18.175914
01870,295889,9.716481,-0.559133,2.146127,0.012207,-0.042254,-0.018901,-0.528874,0.109902,-0.372728,-18.305779,-78.285334,18.149868
01871,295989,9.621928,-0.637258,2.106374,0.005807,-0.019972,-0.015558,-0.533317,0.111565,-0.374652,-18.272099,-78.299826,18.112963
01872,296089,9.535012,-0.646045,2.004131,-0.007432,-0.006204,-0.007639,-0.529853,0.114426,-0.372999,-18.254863,-78.305397,18.085105
01873,296189,9.482418,-0.598352,1.920468,-0.015298,-0.000414,-0.004008,-0.528787,0.117568,-0.376345,-18.246668,-78.307157,18.061899
01874,296289,9.492617,-0.579414,1.864443,-0.017656,-0.001849,-0.002135,-0.528818,0.115503,-0.374948,-18.245979,-78.309373,18.044991
01875,296389,9.540657,-0.560512,1.872919,-0.013789,-0.011736,-0.002662,-0.530311,0.116524,-0.374897,-18.250285,-78.317068,18.035443
01876,296489,9.635318,-0.564898,1.935043,-0.002351,-0.026428,-0.004780,-0.529267,0.117126,-0.377370,-18.255230,-78.333129,18.033256
01877,296589,9.752513,-0.600432,2.024015,0.009804,-0.040169,-0.005805,-0.528342,0.118911,-0.373270,-18.262510,-78.356860,18.040544
01878,296689,9.769874,-0.618408,2.084378,0.015653,-0.043008,-0.010733,-0.527325,0.119940,-0.374218,-18.255924,-78.383011,18.037116
01879,296789,9.687010,-0.595485,2.144097,0.012271,-0.034260,-0.007887,-0.528292,0.120526,-0.375693,-18.251157,-78.403887,18.033581
01880,296889,9.635648,-0.492625,2.146425,0.011956,-0.019377,-0.006141,-0.527250,0.120631,-0.378191,-18.238150,-78.416342,18.021462
01881,296989,9.616519,-0.346223,2.062510,0.005058,-0.000957,-0.004919,-0.526762,0.125058,-0.376963,-18.216213,-78.418558,17.996138
01882,297089,9.615929,-0.328627,1.959507,-0.011024,0.019938,-0.006776,-0.526273,0.125525,-0.376438,-18.180267,-78.409736,17.947102
01883,297189,9.606061,-0.377020,1.926891,-0.031309,0.033709,-0.009450,-0.527233,0.124640,-0.378488,-18.136902,-78.393889,17.878634
01884,297289,9.573750,-0.476636,1.909630,-0.047200,0.034075,-0.010630,-0.526213,0.127662,-0.379335,-18.099367,-78.378042,17.806802
01885,297389,9.560658,-0.538334,1.976667,-0.061811,0.031494,-0.007719,-0.526176,0.127759,-0.381334,-18.080263,-78.363074,17.745253
01886,297489,9.528458,-0.600890,2.074685,-0.068425,0.012114,-0.008197,-0.525156,0.130282,-0.382207,-18.080504,-78.358741,17.699585
01887,297589,9.597249,-0.628651,2.127121,-0.063692,0.004261,-0.003411,-0.524687,0.135160,-0.379953,-18.097504,-78.357834,17.673787
01888,297689,9.715251,-0.579864,2.147113,-0.045525,0.018512,0.004173,-0.526119,0.133858,-0.383528,-18.111811,-78.347811,17.655902
01889,297789,9.701437,-0.512642,2.097579,-0.023984,0.043341,0.008594,-0.524122,0.136317,-0.383401,-18.104044,-78.323477,17.628070
01890,297889,9.655258,-0.432855,1.973604,-0.011510,0.061974,0.005685,-0.523076,0.137917,-0.385823,-18.065559,-78.289510,17.576160
01891,297989,9.599421,-0.426698,1.855101,-0.009062,0.057193,0.001230,-0.520534,0.140987,-0.388169,-18.018315,-78.258935,17.516724
01892,298089,9.540124,-0.469134,1.992441,-0.017244,0.035345,-0.005642,-0.523473,0.142650,-0.390593,-17.976572,-78.241476,17.458111
01893,298189,9.576252,-0.567649,2.124968,-0.030888,0.008113,-0.010251,-0.520994,0.146548,-0.389389,-17.953798,-78.239662,17.410890
01894,298289,9.641091,-0.596277,2.184218,-0.040876,0.009576,-0.008310,-0.520486,0.147062,-0.389863,-17.940607,-78.236701,17.367621
01895,298389,9.632286,-0.629467,2.121341,-0.037779,0.040822,-0.009669,-0.521441,0.149665,-0.391736,-17.895727,-78.216936,17.293803
01896,298489,9.598278,-0.651506,1.954708,-0.038272,0.069482,-0.002999,-0.515919,0.152664,-0.393581,-17.844706,-78.180357,17.213431
01897,298589,9.573569,-0.614087,1.890575,-0.035675,0.079220,0.002387,-0.516356,0.155308,-0.396453,-17.798505,-78.137510,17.139503
01898,298689,9.564916,-0.556327,1.945018,-0.026570,0.067463,0.005100,-0.515817,0.157887,-0.398325,-17.764298,-78.100592,17.083158
01899,298789,9.543047,-0.513319,1.975920,-0.015258,0.038590,0.003423,-0.512804,0.160877,-0.399171,-17.743410,-78.079719,17.047042
01900,298889,9.551139,-0.504456,2.079758,-0.004910,0.009051,-0.000107,-0.513316,0.163328,-0.398045,-17.731950,-78.075578,17.026622
01901,298989,9.593989,-0.523284,2.119876,0.003926,-0.004672,-0.004412,-0.510249,0.165965,-0.401915,-17.715640,-78.079675,17.006420
01902,299089,9.632488,-0.511718,2.148460,0.007099,0.012218,-0.007579,-0.508223,0.168994,-0.403262,-17.675378,-78.075100,16.963595
01903,299189,9.642685,-0.528973,2.131746,-0.006579,0.050748,-0.013077,-0.505183,0.171559,-0.405633,-17.597189,-78.050431,16.873993
01904,299289,9.637116,-0.508970,2.057008,-0.026335,0.086938,-0.008580,-0.501114,0.177169,-0.409350,-17.512829,-78.005188,16.766501
01905,299389,9.632684,-0.478231,2.007034,-0.042789,0.096339,-0.000253,-0.499608,0.178663,-0.409774,-17.452363,-77.953349,16.673779
01906,299489,9.604779,-0.411000,1.969941,-0.054460,0.079439,0.007009,-0.497567,0.185205,-0.411442,-17.431243,-77.909488,16.614431
01907,299589,9.627431,-0.365023,1.991585,-0.058993,0.053672,0.008192,-0.497020,0.186314,-0.413890,-17.436540,-77.879511,16.579423
01908,299689,9.624761,-0.354362,2.056939,-0.055389,0.032883,0.004653,-0.493501,0.188823,-0.415262,-17.447399,-77.861507,16.552200
01909,299789,9.601919,-0.371475,2.086128,-0.049125,0.026639,-0.001096,-0.490950,0.191418,-0.418132,-17.445050,-77.847904,16.515122
01910,299889,9.572769,-0.437638,2.113791,-0.046417,0.029673,-0.007581,-0.485477,0.193300,-0.417529,-17.422320,-77.833752,16.458775
01911,299989,9.529127,-0.554057,2.129984,-0.051688,0.041291,-0.015137,-0.486897,0.198475,-0.420774,-17.374362,-77.814534,16.373529
01912,300089,9.509039,-0.571184,2.096486,-0.047489,0.051858,-0.014878,-0.485399,0.200942,-0.420647,-17.316547,-77.789475,16.280661
01913,300189,9.515698,-0.556449,2.067538,-0.032471,0.051289,-0.008716,-0.480891,0.203909,-0.421493,-17.266448,-77.763658,16.204487
01914,300289,9.531059,-0.553783,2.023235,-0.005737,0.051682,-0.008550,-0.476394,0.206353,-0.421864,-17.201430,-77.737583,16.128720
01915,300389,9.569937,-0.570034,2.057280,0.014587,0.041144,-0.008216,-0.475853,0.209929,-0.423685,-17.134095,-77.717203,16.062497
01916,300489,9.576325,-0.586006,2.107550,0.034886,0.017441,-0.009188,-0.471865,0.211360,-0.423608,-17.071217,-77.709951,16.012743
01917,300589,9.573477,-0.602585,2.214649,0.047988,-0.006953,-0.011944,-0.467367,0.214801,-0.423928,-17.012757,-77.716512,15.975202
01918,300689,9.616166,-0.621749,2.288212,0.049021,-0.004875,-0.014479,-0.463388,0.216208,-0.423351,-16.945686,-77.722346,15.929464
01919,300789,9.598091,-0.633465,2.263206,0.030071,0.025577,-0.016916,-0.459926,0.218074,-0.421749,-16.860027,-77.711875,15.853603
01920,300889,9.520321,-0.555746,2.145174,0.008302,0.053417,-0.012572,-0.455405,0.223555,-0.422968,-16.776792,-77.685391,15.767457
01921,300989,9.452432,-0.452447,2.036459,-0.004490,0.053200,-0.007019,-0.451941,0.226417,-0.421315,-16.715321,-77.658088,15.696075
01922,301089,9.473966,-0.382756,1.990845,-0.014400,0.035237,-0.005063,-0.447486,0.226274,-0.419814,-16.678155,-77.640312,15.643744
01923,301189,9.516609,-0.390413,2.020795,-0.012478,0.021573,-0.004727,-0.442022,0.228132,-0.418711,-16.651060,-77.629978,15.602840
01924,301289,9.575640,-0.454110,2.069041,0.000557,0.014603,-0.005604,-0.436070,0.229459,-0.417134,-16.619557,-77.623611,15.565065
01925,301389,9.595428,-0.570933,2.108353,0.023297,0.010273,-0.005974,-0.430645,0.229726,-0.414108,-16.577380,-77.619676,15.529706
01926,301489,9.604680,-0.630251,2.177116,0.036564,0.005229,-0.006655,-0.426705,0.230539,-0.411557,-16.529690,-77.618617,15.496499
01927,301589,9.538245,-0.654250,2.277138,0.037647,0.002704,-0.009263,-0.420724,0.232437,-0.411453,-16.476754,-77.619358,15.458569
01928,301689,9.496214,-0.599655,2.337559,0.028301,0.002771,-0.007424,-0.415827,0.232141,-0.406954,-16.433732,-77.619752,15.425316
01929,301789,9.521636,-0.466461,2.323092,0.016090,0.006376,-0.002053,-0.409906,0.231403,-0.403978,-16.408480,-77.617286,15.403091
01930,301889,9.543717,-0.367537,2.251183,0.001738,0.017279,0.001086,-0.402003,0.230112,-0.400527,-16.391261,-77.608317,15.380659
01931,301989,9.548679,-0.288903,2.160431,-0.015706,0.031330,-0.001309,-0.396606,0.230805,-0.395977,-16.367716,-77.592010,15.341497
01932,302089,9.537159,-0.291483,2.039752,-0.024221,0.042313,-0.004470,-0.392258,0.227407,-0.389131,-16.333178,-77.570173,15.286063
01933,302189,9.494444,-0.338099,1.986962,-0.030424,0.047271,-0.007676,-0.387925,0.221494,-0.381912,-16.290732,-77.546121,15.218874
01934,302289,9.508111,-0.452394,1.968646,-0.034255,0.045756,-0.007583,-0.381509,0.218756,-0.379038,-16.252018,-77.522882,15.153250
01935,302389,9.546672,-0.498265,2.027697,-0.035382,0.035196,-0.006132,-0.379195,0.213300,-0.370295,-16.225367,-77.505213,15.099318
01936,302489,9.572266,-0.497694,2.107000,-0.033856,0.020187,-0.001070,-0.376864,0.206897,-0.362602,-16.221326,-77.494989,15.069439
01937,302589,9.567313,-0.448128,2.182644,-0.026487,-0.000153,0.001228,-0.377976,0.199174,-0.357486,-16.233447,-77.495585,15.060435
01938,302689,9.584604,-0.395154,2.288398,-0.019719,-0.018527,-0.000247,-0.376096,0.193397,-0.352266,-16.251289,-77.506522,15.061253
01939,302789,9.571966,-0.359482,2.361815,-0.018144,-0.028725,-0.005084,-0.375777,0.186479,-0.343600,-16.263585,-77.523840,15.057302
01940,302889,9.574996,-0.383136,2.382973,-0.024613,-0.015642,-0.010665,-0.382327,0.175975,-0.341136,-16.256187,-77.534852,15.029374
01941,302989,9.577826,-0.405610,2.340466,-0.038685,0.004765,-0.017411,-0.386932,0.169778,-0.335445,-16.225220,-77.535713,14.969042
01942,303089,9.519124,-0.485968,2.259134,-0.057701,0.030967,-0.023475,-0.391536,0.159619,-0.330457,-16.171146,-77.523113,14.873886
01943,303189,9.448878,-0.516349,2.157330,-0.072800,0.049265,-0.024938,-0.394634,0.149960,-0.325943,-16.109126,-77.500653,14.761727
01944,303289,9.384460,-0.559433,2.116349,-0.086422,0.045728,-0.024144,-0.403137,0.146036,-0.324649,-16.059720,-77.479989,14.654494
01945,303389,9.436492,-0.567120,2.069996,-0.078709,0.046138,-0.020429,-0.409191,0.139485,-0.321482,-16.015084,-77.458492,14.556675
01946,303489,9.449658,-0.517363,2.182999,-0.054803,0.041661,-0.010873,-0.417238,0.132966,-0.318316,-15.983799,-77.437935,14.486563
01947,303589,9.501900,-0.539535,2.236694,-0.036712,0.023158,-0.006006,-0.422689,0.127669,-0.320597,-15.967397,-77.426793,14.442319
01948,303689,9.548229,-0.491006,2.222088,-0.007765,0.013827,-0.002049,-0.430194,0.125224,-0.319227,-15.950814,-77.420164,14.414884
01949,303789,9.561246,-0.476505,2.364641,0.001912,-0.008960,-0.000241,-0.435688,0.121799,-0.318907,-15.949226,-77.425798,14.408491
01950,303889,9.571363,-0.485645,2.395870,-0.011888,-0.029130,0.000721,-0.442199,0.117844,-0.317612,-15.972172,-77.442385,14.419132
01951,303989,9.591160,-0.535613,2.304248,-0.021945,-0.031758,0.001928,-0.444744,0.113279,-0.315343,-16.005788,-77.460224,14.434805
01952,304089,9.605073,-0.527150,2.178260,-0.016662,-0.010082,0.001191,-0.452696,0.112956,-0.316370,-16.019207,-77.466240,14.432890
01953,304189,9.553021,-0.501945,2.060565,-0.003167,0.012443,-0.001137,-0.459220,0.106983,-0.314678,-16.003129,-77.460220,14.408681
01954,304289,9.525042,-0.517885,2.038409,0.019353,0.016871,-0.003915,-0.464207,0.103575,-0.314857,-15.964170,-77.452200,14.374253
01955,304389,9.506595,-0.471823,2.115056,0.040207,0.000072,-0.000110,-0.469651,0.102761,-0.316909,-15.934596,-77.452832,14.361680
01956,304489,9.510438,-0.436308,2.217540,0.051135,-0.037896,0.004702,-0.466708,0.103092,-0.314384,-15.937523,-77.473623,14.388812
01957,304589,9.461893,-0.394820,2.298235,0.059391,-0.080368,0.005482,-0.471683,0.101202,-0.314986,-15.967895,-77.517685,14.448890
01958,304689,9.427963,-0.380468,2.394221,0.066307,-0.099209,0.005720,-0.472725,0.101596,-0.312463,-16.008704,-77.572074,14.523690
01959,304789,9.485655,-0.413710,2.425901,0.070597,-0.096132,0.006021,-0.474277,0.100478,-0.309515,-16.046076,-77.624703,14.597464
01960,304889,9.556663,-0.441404,2.407871,0.070297,-0.069522,0.007038,-0.476787,0.099972,-0.308541,-16.067308,-77.662506,14.654521
01961,304989,9.581713,-0.470973,2.281750,0.059517,-0.044345,0.008106,-0.476294,0.102431,-0.307914,-16.079321,-77.686272,14.695812
01962,305089,9.563083,-0.454959,2.213979,0.049027,-0.037986,0.014277,-0.474341,0.101306,-0.305966,-16.108397,-77.705552,14.748408
01963,305189,9.522489,-0.436664,2.157147,0.036170,-0.044813,0.020852,-0.474910,0.102616,-0.301891,-16.166605,-77.727533,14.823272
01964,305289,9.494275,-0.418774,2.171230,0.028609,-0.061166,0.024203,-0.477427,0.103580,-0.300342,-16.249949,-77.757955,14.919411
01965,305389,9.463478,-0.412077,2.191877,0.032345,-0.081035,0.026024,-0.474974,0.103444,-0.298342,-16.351028,-77.798974,15.035867
01966,305489,9.507001,-0.417282,2.206970,0.038836,-0.100376,0.031633,-0.475966,0.105453,-0.298240,-16.478001,-77.849663,15.182591
01967,305589,9.540138,-0.407649,2.220595,0.047292,-0.122735,0.033408,-0.477009,0.105846,-0.295716,-16.622909,-77.912266,15.352574
01968,305689,9.562485,-0.415222,2.274329,0.047334,-0.130702,0.031927,-0.477027,0.105798,-0.294716,-16.771793,-77.979388,15.526596
01969,305789,9.535521,-0.440925,2.267296,0.041932,-0.123819,0.032229,-0.478613,0.106577,-0.289668,-16.920940,-78.042585,15.697675
01970,305889,9.457653,-0.460402,2.220190,0.039837,-0.112354,0.032771,-0.481087,0.105170,-0.290745,-17.065238,-78.099312,15.862530
01971,305989,9.401629,-0.459210,2.138857,0.032449,-0.101553,0.036003,-0.482587,0.107661,-0.290118,-17.214954,-78.149489,16.028559
01972,306089,9.407789,-0.397978,2.073876,0.027305,-0.099023,0.040442,-0.481647,0.107002,-0.287144,-17.378496,-78.197430,16.205664
01973,306189,9.446332,-0.353681,2.080497,0.024072,-0.104706,0.049091,-0.482157,0.105492,-0.286721,-17.572685,-78.246872,16.412137
01974,306289,9.523753,-0.349726,2.100880,0.021694,-0.115178,0.057160,-0.484685,0.105435,-0.284723,-17.800007,-78.300468,16.651005
01975,306389,9.530494,-0.327975,2.126682,0.022494,-0.128115,0.063450,-0.485696,0.107894,-0.283596,-18.056749,-78.359798,16.920315
01976,306489,9.529676,-0.342241,2.128860,0.022360,-0.132596,0.066252,-0.488168,0.107981,-0.284597,-18.327601,-78.420810,17.203877
01977,306589,9.529596,-0.375485,2.095984,0.028089,-0.129491,0.064349,-0.487205,0.109862,-0.282495,-18.590210,-78.480210,17.482300
01978,306689,9.518190,-0.420980,2.069846,0.036312,-0.121529,0.059856,-0.489185,0.111911,-0.282895,-18.831592,-78.535865,17.743802
01979,306789,9.515183,-0.476141,2.086652,0.042562,-0.113741,0.059365,-0.488218,0.110826,-0.281446,-19.063280,-78.587171,17.999013
01980,306889,9.504962,-0.530772,2.061165,0.046234,-0.112934,0.060069,-0.487201,0.112353,-0.282368,-19.296186,-78.637697,18.257566
01981,306989,9.499940,-0.545758,2.095020,0.042797,-0.113012,0.064666,-0.490216,0.112827,-0.280845,-19.545737,-78.687167,18.531041
01982,307089,9.533918,-0.483707,2.090504,0.036008,-0.115195,0.072764,-0.490738,0.115254,-0.279218,-19.825508,-78.735998,18.831314
01983,307189,9.591042,-0.402046,2.107831,0.035026,-0.119503,0.079824,-0.490214,0.119280,-0.280015,-20.131762,-78.785461,19.157948
01984,307289,9.591769,-0.300249,2.093301,0.029835,-0.121661,0.085245,-0.488767,0.119135,-0.277515,-20.460664,-78.834647,19.504556
01985,307389,9.586493,-0.243160,2.099159,0.025860,-0.124079,0.085327,-0.488751,0.122647,-0.277837,-20.797482,-78.884718,19.856821
01986,307489,9.609438,-0.233534,2.056210,0.026392,-0.131297,0.081282,-0.487237,0.123170,-0.278811,-21.133602,-78.939077,20.208590
01987,307589,9.628928,-0.266747,1.995976,0.022967,-0.127256,0.074064,-0.486249,0.129085,-0.277506,-21.450869,-78.992390,20.539058
01988,307689,9.615781,-0.339742,2.006377,0.020785,-0.120480,0.066624,-0.483747,0.130066,-0.277954,-21.744594,-79.043322,20.844189
01989,307789,9.564474,-0.441394,2.001430,0.020353,-0.113714,0.056575,-0.484729,0.138053,-0.277548,-22.006081,-79.092514,21.116169
01990,307889,9.574692,-0.528401,2.006651,0.020498,-0.111434,0.054598,-0.481746,0.139975,-0.276946,-22.261836,-79.140684,21.382345
01991,307989,9.595416,-0.525050,2.035874,0.023661,-0.113852,0.055076,-0.480297,0.145785,-0.273642,-22.522177,-79.189798,21.654985
01992,308089,9.635631,-0.529345,2.093715,0.023067,-0.114452,0.053569,-0.476746,0.150857,-0.276385,-22.781775,-79.239321,21.926470
01993,308189,9.659577,-0.477194,2.145106,0.017854,-0.115167,0.056277,-0.475310,0.154650,-0.272683,-23.055171,-79.288371,22.208901
01994,308289,9.677089,-0.430834,2.133773,0.004691,-0.107049,0.060525,-0.473293,0.157656,-0.273530,-23.340702,-79.331923,22.495945
01995,308389,9.655655,-0.439583,2.094062,-0.008860,-0.094752,0.064107,-0.472780,0.161160,-0.273851,-23.631270,-79.367919,22.780159
01996,308489,9.639531,-0.477741,2.000940,-0.016556,-0.086620,0.066639,-0.472743,0.166214,-0.275097,-23.925152,-79.398793,23.063215
01997,308589,9.621013,-0.546772,1.913860,-0.018603,-0.084507,0.067319,-0.472268,0.168625,-0.273470,-24.221108,-79.428127,23.347152
01998,308689,9.564919,-0.604195,1.897569,-0.014383,-0.079212,0.065698,-0.473788,0.170072,-0.271895,-24.504939,-79.454810,23.621186
01999,308789,9.537063,-0.616585,1.871838,-0.004775,-0.071894,0.062779,-0.477250,0.173663,-0.272718,-24.767022,-79.478134,23.878677
02000,308889,9.508090,-0.613947,1.885897,0.002683,-0.073385,0.059366,-0.476258,0.176612,-0.272066,-25.018355,-79.502839,24.129558
02001,308989,9.576202,-0.531675,1.896643,0.024832,-0.057542,0.055379,-0.479254,0.177632,-0.271516,-25.226017,-79.520107,24.348905
02002,309089,9.607776,-0.428380,1.892325,0.045242,-0.038810,0.053987,-0.482728,0.179704,-0.271915,-25.393789,-79.527881,24.539550
02003,309189,9.557993,-0.428072,1.860478,0.043513,-0.040312,0.047093,-0.485227,0.180218,-0.271390,-25.545479,-79.538033,24.712807
02004,309289,9.545173,-0.453450,1.783302,0.045029,-0.045662,0.039679,-0.486728,0.181712,-0.270815,-25.683026,-79.552707,24.872542
02005,309389,9.518136,-0.584210,1.914699,0.042753,-0.061706,0.036562,-0.491214,0.180289,-0.270893,-25.835308,-79.576358,25.045918
02006,309489,9.536015,-0.733164,1.997776,0.041368,-0.066043,0.038993,-0.493235,0.184708,-0.268666,-26.001882,-79.601540,25.233012
02007,309589,9.563494,-0.819878,1.954283,0.045648,-0.054983,0.045319,-0.495209,0.184788,-0.269665,-26.169372,-79.619329,25.423532
02008,309689,9.503498,-0.794515,1.863724,0.058812,-0.036526,0.056628,-0.495237,0.184716,-0.268166,-26.336023,-79.624661,25.620874
02009,309789,9.450491,-0.689595,1.773245,0.067678,-0.030515,0.062512,-0.499246,0.186700,-0.266566,-26.505856,-79.625302,25.826616
02010,309889,9.463373,-0.547730,1.804095,0.074018,-0.040046,0.074447,-0.500749,0.187197,-0.266042,-26.718824,-79.627636,26.079893
02011,309989,9.497125,-0.351666,1.886090,0.070532,-0.059785,0.086799,-0.501693,0.190821,-0.268363,-26.996338,-79.636666,26.396723
02012,310089,9.464486,-0.209930,1.851927,0.061169,-0.086261,0.091649,-0.502200,0.190805,-0.267863,-27.331274,-79.657622,26.766415
02013,310189,9.433509,-0.105730,1.770371,0.041082,-0.117235,0.085007,-0.503660,0.194389,-0.269185,-27.705855,-79.695666,27.164618
02014,310289,9.445994,-0.125514,1.745374,0.023364,-0.132932,0.070817,-0.507664,0.194404,-0.268187,-28.077114,-79.745001,27.549019
02015,310389,9.476598,-0.187732,1.750980,0.010288,-0.130455,0.049605,-0.505678,0.195843,-0.267611,-28.396289,-79.798424,27.872772
02016,310489,9.511445,-0.288596,1.746547,0.006386,-0.121284,0.026421,-0.507187,0.198309,-0.266484,-28.641805,-79.853289,28.119324
02017,310589,9.544150,-0.421803,1.750148,0.016463,-0.118511,0.010617,-0.509700,0.201266,-0.264833,-28.835283,-79.910947,28.318811
02018,310689,9.629558,-0.529473,1.780379,0.025936,-0.122746,0.002305,-0.509661,0.202359,-0.266782,-29.008653,-79.972918,28.503333
02019,310789,9.706197,-0.621127,1.855629,0.028308,-0.130542,0.001843,-0.509678,0.203307,-0.265731,-29.193954,-80.038814,28.701304
02020,310889,9.767621,-0.739155,1.946694,0.027352,-0.128628,0.004197,-0.510114,0.206947,-0.268553,-29.386001,-80.102972,28.905528
02021,310989,9.692141,-0.831390,1.944867,0.018568,-0.113700,0.006210,-0.511636,0.206898,-0.267054,-29.567127,-80.158991,29.093530
02022,311089,9.570324,-0.922818,1.866616,0.011306,-0.091869,0.010580,-0.516092,0.206544,-0.268579,-29.731213,-80.202792,29.260009
02023,311189,9.389548,-0.965417,1.737482,0.007370,-0.071848,0.013817,-0.517074,0.209573,-0.268928,-29.875212,-80.235630,29.403823
02024,311289,9.223269,-1.000151,1.609257,0.015653,-0.061851,0.017664,-0.515054,0.209613,-0.270426,-30.009926,-80.262336,29.543048
02025,311389,9.151937,-1.078639,1.491544,0.028167,-0.064203,0.020043,-0.515534,0.214130,-0.270698,-30.149153,-80.289460,29.694155
02026,311489,9.132667,-1.075795,1.436306,0.047557,-0.088215,0.025702,-0.515542,0.215102,-0.270147,-30.335304,-80.326758,29.904159
02027,311589,9.206353,-1.092239,1.559498,0.069920,-0.118703,0.030433,-0.514010,0.215174,-0.272146,-30.576352,-80.377597,30.182856
02028,311689,9.424310,-1.159141,1.740401,0.086814,-0.129989,0.035379,-0.515958,0.219288,-0.273942,-30.844641,-80.432327,30.498995
02029,311789,9.602688,-1.260814,1.819786,0.095399,-0.126802,0.044630,-0.517945,0.217351,-0.274544,-31.132878,-80.482490,30.840351
02030,311889,9.764304,-1.346294,1.824770,0.094793,-0.128724,0.059460,-0.516433,0.216877,-0.275569,-31.471792,-80.528850,31.232745
02031,311989,9.860350,-1.367507,1.842007,0.089288,-0.133340,0.074455,-0.516386,0.222454,-0.277289,-31.869921,-80.572515,31.681975
02032,312089,9.839273,-1.349139,1.821338,0.089917,-0.147663,0.086833,-0.518380,0.226946,-0.276561,-32.334534,-80.618787,32.198958
02033,312189,9.773018,-1.336584,1.789257,0.100422,-0.172467,0.092317,-0.517841,0.229027,-0.278458,-32.861042,-80.674588,32.784746
02034,312289,9.696438,-1.322945,1.751119,0.130825,-0.200163,0.090875,-0.517848,0.229999,-0.277908,-33.426208,-80.743200,33.427304
02035,312389,9.729656,-1.290257,1.752202,0.170328,-0.217672,0.087547,-0.517306,0.234074,-0.279703,-34.002656,-80.820161,34.104136
02036,312489,9.828973,-1.231016,1.766513,0.205052,-0.219159,0.079463,-0.518826,0.235022,-0.278154,-34.548948,-80.899353,34.770466
02037,312589,9.929460,-1.107544,1.872360,0.213075,-0.218881,0.070103,-0.519801,0.236580,-0.279078,-35.073029,-80.980468,35.418838
02038,312689,10.014013,-0.914300,2.061159,0.199696,-0.209542,0.064943,-0.521285,0.242583,-0.278773,-35.580250,-81.057992,36.042244
02039,312789,10.118450,-0.712692,2.239563,0.164741,-0.186761,0.054570,-0.522254,0.242173,-0.280298,-36.037228,-81.127572,36.594384
02040,312889,10.190653,-0.597002,2.392062,0.121155,-0.152816,0.044909,-0.523236,0.245202,-0.280646,-36.423686,-81.184091,37.049765
02041,312989,10.132025,-0.542556,2.407601,0.073400,-0.122961,0.030855,-0.522720,0.244744,-0.281671,-36.734535,-81.231232,37.400858
02042,313089,9.896684,-0.522432,2.381943,0.037751,-0.110684,0.010007,-0.525175,0.249340,-0.282942,-36.979486,-81.279634,37.664541
02043,313189,9.610006,-0.619967,2.314885,0.013987,-0.124071,-0.013837,-0.526678,0.249838,-0.282418,-37.199849,-81.342215,37.889521
02044,313289,9.285423,-0.807776,2.180445,0.008968,-0.157558,-0.034955,-0.527132,0.248471,-0.284993,-37.439876,-81.427234,38.131441
02045,313389,9.051445,-1.050435,2.036059,0.015689,-0.207309,-0.051291,-0.530644,0.249949,-0.283418,-37.748212,-81.540351,38.446289
02046,313489,8.914535,-1.291665,1.933960,0.028553,-0.240395,-0.056584,-0.531152,0.249933,-0.282919,-38.121143,-81.669976,38.833836
02047,313589,8.881437,-1.506822,1.824682,0.047020,-0.248191,-0.054893,-0.534657,0.249940,-0.281920,-38.520108,-81.802090,39.258324
02048,313689,8.859055,-1.717720,1.718082,0.062463,-0.251239,-0.041059,-0.538126,0.249545,-0.282946,-38.975018,-81.930111,39.748219
02049,313789,8.866717,-1.798900,1.718735,0.088484,-0.254784,-0.021448,-0.540117,0.245117,-0.283675,-39.501672,-82.051962,40.325568
02050,313889,8.907213,-1.797231,1.791456,0.115272,-0.267776,-0.000908,-0.542634,0.246081,-0.282126,-40.130511,-82.171140,41.021505
02051,313989,9.019651,-1.740204,1.906452,0.145222,-0.282545,0.018769,-0.544633,0.242126,-0.282330,-40.866423,-82.288246,41.842724
02052,314089,9.151199,-1.610112,2.000604,0.167704,-0.290658,0.032122,-0.547171,0.242045,-0.279831,-41.679302,-82.402250,42.754457
02053,314189,9.239739,-1.464815,2.047204,0.183511,-0.290045,0.034264,-0.550648,0.242125,-0.280332,-42.514216,-82.513379,43.697380
02054,314289,9.309271,-1.348566,2.015564,0.188899,-0.284224,0.032730,-0.552658,0.237648,-0.280062,-43.349943,-82.620816,44.644057
02055,314389,9.385293,-1.258348,1.954657,0.178968,-0.274529,0.023673,-0.553685,0.235599,-0.278664,-44.157995,-82.726034,45.556913
02056,314489,9.478763,-1.179426,1.828962,0.169448,-0.247529,0.012808,-0.554241,0.234466,-0.275716,-44.874702,-82.823003,46.372027
02057,314589,9.516521,-1.061732,1.750765,0.164214,-0.221853,-0.000231,-0.559224,0.233549,-0.275769,-45.488579,-82.913685,47.080347
02058,314689,9.487574,-0.986465,1.663355,0.157853,-0.211645,-0.013634,-0.562254,0.231507,-0.273872,-46.045395,-83.004871,47.727381
02059,314789,9.405788,-0.946997,1.633080,0.152564,-0.226011,-0.025783,-0.562669,0.231233,-0.278396,-46.631042,-83.105965,48.400290
02060,314889,9.400479,-0.978179,1.787742,0.145443,-0.255214,-0.038021,-0.562195,0.228188,-0.277549,-47.302777,-83.222686,49.155660
02061,314989,9.456410,-1.052590,2.022425,0.136151,-0.283185,-0.043982,-0.565708,0.229167,-0.276000,-48.087310,-83.351545,50.019082
02062,315089,9.509704,-1.110085,2.126091,0.123098,-0.303567,-0.045911,-0.566740,0.229585,-0.273975,-48.982426,-83.487444,50.986093
02063,315189,9.564334,-1.125652,2.181903,0.119223,-0.298361,-0.049344,-0.567242,0.227600,-0.274077,-49.887305,-83.621110,51.960470
02064,315289,9.537351,-1.119262,2.108639,0.123484,-0.274071,-0.048107,-0.570260,0.226579,-0.272629,-50.735126,-83.743624,52.879690
02065,315389,9.471391,-1.111516,2.065345,0.133117,-0.260085,-0.046464,-0.570721,0.226683,-0.274629,-51.559311,-83.858861,53.780514
02066,315489,9.365907,-1.069857,2.094620,0.143761,-0.254401,-0.052096,-0.569728,0.225172,-0.274704,-52.366863,-83.973208,54.670583
02067,315589,9.251229,-1.066238,2.096680,0.152414,-0.253533,-0.058247,-0.571241,0.225148,-0.273705,-53.177637,-84.088689,55.568725
02068,315689,9.261234,-1.097886,2.088747,0.164036,-0.255673,-0.071185,-0.574717,0.225726,-0.274181,-53.982236,-84.209508,56.467200
02069,315789,9.367042,-1.183109,2.135133,0.174790,-0.253968,-0.080729,-0.576737,0.226183,-0.272657,-54.776756,-84.332881,57.361591
02070,315889,9.511554,-1.231159,2.053670,0.188937,-0.246333,-0.085023,-0.575183,0.228297,-0.275554,-55.548809,-84.454512,58.241414
02071,315989,9.656917,-1.256067,1.994470,0.190513,-0.237670,-0.089645,-0.573661,0.228345,-0.277053,-56.297693,-84.574373,59.098742
02072,316089,9.727577,-1.241481,1.934174,0.176197,-0.231850,-0.089131,-0.575195,0.226778,-0.275130,-57.062400,-84.691035,59.963609
02073,316189,9.749784,-1.199107,1.827891,0.152520,-0.226084,-0.086653,-0.574682,0.224826,-0.276231,-57.854618,-84.803584,60.842367
02074,316289,9.759527,-1.177509,1.765495,0.126549,-0.220944,-0.086325,-0.577629,0.227460,-0.278104,-58.671341,-84.913257,61.730683
02075,316389,9.729647,-1.145917,1.740338,0.112650,-0.216571,-0.085660,-0.578679,0.228328,-0.275055,-59.510735,-85.020129,62.633659
02076,316489,9.637778,-1.154047,1.722678,0.104616,-0.222457,-0.088605,-0.577694,0.227292,-0.274606,-60.417246,-85.128903,63.599282
02077,316589,9.558283,-1.171212,1.781965,0.098290,-0.238479,-0.093137,-0.579618,0.224028,-0.278782,-61.451620,-85.242959,64.689474
02078,316689,9.579587,-1.208974,1.953129,0.088944,-0.249415,-0.093169,-0.577187,0.227308,-0.275105,-62.611330,-85.358166,65.899926
02079,316789,9.750452,-1.214331,2.084788,0.078025,-0.246072,-0.091493,-0.583662,0.227411,-0.275107,-63.820448,-85.469545,67.153533
02080,316889,9.907640,-1.197913,2.163640,0.054407,-0.230141,-0.091407,-0.581645,0.225458,-0.276707,-64.997606,-85.574791,68.361376
02081,316989,10.013744,-1.124411,2.196989,0.034117,-0.199630,-0.093469,-0.582155,0.224446,-0.276259,-66.025939,-85.672000,69.408184
02082,317089,10.070496,-1.103252,2.277502,0.017856,-0.175943,-0.094689,-0.582152,0.225940,-0.276182,-66.938098,-85.763035,70.329070
02083,317189,10.170878,-1.120326,2.353162,-0.002178,-0.146157,-0.101847,-0.583086,0.224630,-0.279757,-67.662152,-85.850244,71.049780
02084,317289,10.286868,-1.160218,2.349702,-0.027425,-0.114361,-0.105807,-0.585116,0.224067,-0.277784,-68.181284,-85.932096,71.550515
02085,317389,10.443385,-1.211822,2.385920,-0.058554,-0.074244,-0.107466,-0.584632,0.221544,-0.277411,-68.427126,-86.006057,71.759415
02086,317489,10.484672,-1.244060,2.402288,-0.086595,-0.031091,-0.112231,-0.585564,0.221230,-0.280936,-68.347249,-86.073390,71.625757
02087,317589,10.581895,-1.203466,2.444143,-0.114720,0.005556,-0.117404,-0.587581,0.223182,-0.279335,-67.974414,-86.135589,71.182381
02088,317689,10.888767,-1.128377,2.539228,-0.142245,0.049783,-0.121158,-0.587059,0.220756,-0.280962,-67.239568,-86.189794,70.360457
02089,317789,11.103849,-1.103071,2.428440,-0.171725,0.095229,-0.121182,-0.586011,0.218393,-0.284087,-66.136301,-86.232784,69.152472
02090,317889,11.180775,-1.207079,2.156216,-0.203191,0.120495,-0.112660,-0.587064,0.218265,-0.281089,-64.855396,-86.263619,67.748511
02091,317989,11.179774,-1.412902,1.816979,-0.212317,0.118631,-0.096330,-0.587491,0.215974,-0.285214,-63.637007,-86.284435,66.402077
02092,318089,11.204531,-1.639782,1.466891,-0.186432,0.098123,-0.079817,-0.589969,0.218031,-0.285613,-62.618878,-86.300362,65.271311
02093,318189,11.304582,-1.809758,1.105746,-0.130069,0.070244,-0.065224,-0.589482,0.217002,-0.285164,-61.839656,-86.315135,64.412443
02094,318289,11.407412,-1.898624,0.802574,-0.062964,0.046082,-0.055281,-0.590480,0.216022,-0.285215,-61.247748,-86.330785,63.779939
02095,318389,11.540269,-1.967289,0.534313,0.010811,0.018175,-0.050811,-0.593925,0.213706,-0.287842,-60.847005,-86.351537,63.381486
02096,318489,11.527657,-1.966486,0.413872,0.079649,-0.011825,-0.046510,-0.591924,0.213201,-0.288367,-60.658096,-86.378364,63.234952
02097,318589,11.474102,-1.827570,0.433910,0.133396,-0.037264,-0.041875,-0.597377,0.212363,-0.289919,-60.659242,-86.409967,63.309824
02098,318689,11.316151,-1.521991,0.529032,0.169553,-0.045813,-0.034968,-0.595896,0.210322,-0.289520,-60.740386,-86.440487,63.485689
02099,318789,11.033927,-1.181011,0.587939,0.197162,-0.050113,-0.028172,-0.598377,0.210386,-0.290021,-60.873636,-86.468774,63.729658
02100,318889,10.643922,-0.792037,0.571216,0.206426,-0.061278,-0.021620,-0.597383,0.209374,-0.290071,-61.125767,-86.496826,64.098063
02101,318989,10.206592,-0.471661,0.480328,0.178481,-0.077568,-0.016598,-0.601419,0.206327,-0.287726,-61.556673,-86.526702,64.629514
02102,319089,9.743097,-0.184278,0.318702,0.114995,-0.093661,-0.014338,-0.600393,0.207380,-0.289174,-62.177965,-86.559503,65.315204
02103,319189,9.247022,0.132606,0.177696,0.005669,-0.098619,-0.010529,-0.601897,0.202422,-0.289429,-62.933744,-86.591204,66.072785
02104,319289,8.707426,0.461705,0.004295,-0.119715,-0.088139,-0.007374,-0.603883,0.205941,-0.289252,-63.698080,-86.618024,66.766859
02105,319389,8.371099,0.664467,-0.260616,-0.226493,-0.070969,0.003300,-0.605857,0.206021,-0.290252,-64.429204,-86.634543,67.366254
02106,319489,8.166806,0.868883,-0.527287,-0.295258,-0.051129,0.016956,-0.605873,0.207467,-0.289176,-65.086798,-86.638754,67.852391
02107,319589,8.187602,1.236273,-0.926259,-0.297437,-0.054009,0.025746,-0.607403,0.207893,-0.287152,-65.808066,-86.638787,68.400896
02108,319689,8.321223,1.223665,-0.461285,-0.382888,0.017526,-0.004159,-0.607334,0.205096,-0.291303,-65.822113,-86.637509,68.191758
02109,319789,8.486730,1.154292,-0.924697,-0.312133,0.042534,-0.017596,-0.607388,0.205948,-0.288253,-65.519649,-86.637368,67.706016
02110,319889,8.421465,0.913871,-1.110649,-0.227960,-0.056091,-0.048949,-0.608863,0.206518,-0.289228,-65.921772,-86.676914,67.974250
02111,319989,9.251288,0.465931,-0.631648,-0.141092,-0.114022,-0.057456,-0.611836,0.205119,-0.290304,-66.780046,-86.734101,68.749139
02112,320089,10.173538,0.093288,-0.203026,-0.103145,-0.087301,-0.063260,-0.608387,0.204469,-0.288329,-67.370639,-86.787841,69.277593
02113,320189,10.519123,-0.168473,-0.131721,-0.079811,-0.068755,-0.066090,-0.612870,0.204540,-0.288331,-67.777585,-86.838778,69.635443
02114,320289,10.746891,-0.316601,-0.082080,-0.040349,-0.067000,-0.073380,-0.610382,0.203006,-0.288406,-68.128633,-86.893083,69.959916
02115,320389,10.907000,-0.423198,0.058660,-0.018557,-0.065882,-0.074559,-0.613386,0.204998,-0.287306,-68.463436,-86.947677,70.280596
02116,320489,10.856532,-0.541848,0.127155,-0.005113,-0.064531,-0.073854,-0.615316,0.203704,-0.290881,-68.791587,-87.001511,70.602314
02117,320589,10.566495,-0.572864,0.137861,0.012290,-0.064042,-0.068586,-0.617880,0.204049,-0.286858,-69.137541,-87.052326,70.951835
02118,320689,10.203870,-0.441693,0.233155,0.034195,-0.056641,-0.067582,-0.616385,0.204523,-0.286832,-69.408682,-87.101004,71.238993
02119,320789,9.758191,-0.214968,0.351574,0.056247,-0.059476,-0.072528,-0.620387,0.205535,-0.285783,-69.687432,-87.152844,71.546388
02120,320889,9.405952,0.065798,0.644800,0.060274,-0.065443,-0.088125,-0.618394,0.200545,-0.286537,-69.977629,-87.214190,71.867490
02121,320989,9.090048,0.283810,0.950766,0.049301,-0.070865,-0.100594,-0.622848,0.201187,-0.288012,-70.298336,-87.283246,72.212761
02122,321089,8.762430,0.441251,1.072733,0.021290,-0.090674,-0.109037,-0.623890,0.201580,-0.285488,-70.849577,-87.360537,72.772655
02123,321189,8.608058,0.462437,1.137820,-0.020827,-0.113497,-0.109532,-0.621888,0.201573,-0.285987,-71.733577,-87.441982,73.641379
02124,321289,8.560838,0.371301,1.124685,-0.038408,-0.110983,-0.108946,-0.623883,0.200109,-0.286064,-72.655110,-87.522056,74.537466
02125,321389,8.511610,0.169703,0.971656,-0.027416,-0.089349,-0.106424,-0.622405,0.201532,-0.284987,-73.356561,-87.596570,75.219477
02126,321489,8.473070,-0.056867,0.748606,0.009962,-0.066872,-0.102983,-0.628411,0.201057,-0.283515,-73.789622,-87.665266,75.654242
02127,321589,8.554883,-0.316988,0.522792,0.050394,-0.053859,-0.098675,-0.627875,0.201643,-0.285489,-74.061326,-87.729411,75.950684
02128,321689,8.622659,-0.513451,0.344209,0.085979,-0.055923,-0.092247,-0.628873,0.200663,-0.285540,-74.384220,-87.790263,76.318767
02129,321789,8.665610,-0.578252,0.242314,0.106740,-0.085348,-0.085361,-0.630356,0.201707,-0.285990,-75.176046,-87.851583,77.168037
02130,321889,8.664107,-0.524125,0.257582,0.114304,-0.127321,-0.081653,-0.633828,0.199817,-0.287092,-76.667141,-87.916034,78.721377
02131,321989,8.608219,-0.377792,0.310849,0.121043,-0.179999,-0.081000,-0.632388,0.195189,-0.284821,-79.092254,-87.984466,81.213140
02132,322089,8.600739,-0.109343,0.398942,0.128681,-0.243493,-0.080732,-0.634393,0.198660,-0.283644,-82.740486,-88.053699,84.933009
02133,322189,8.606901,0.252389,0.536259,0.144341,-0.299100,-0.082663,-0.635870,0.197736,-0.284695,-87.599007,-88.117034,89.872621
02134,322289,8.710086,0.566208,0.669965,0.150465,-0.344442,-0.088025,-0.636928,0.194618,-0.281849,-93.569329,-88.167371,95.927888
02135,322389,8.900430,0.736199,0.724157,0.154564,-0.352620,-0.099298,-0.640508,0.194432,-0.276852,-99.985455,-88.202133,102.431289
02136,322489,8.911639,0.794395,0.788310,0.161051,-0.349520,-0.110557,-0.641515,0.193428,-0.276403,-106.569234,-88.220068,109.105950
02137,322589,8.942775,0.742195,0.865417,0.164503,-0.326378,-0.119565,-0.641493,0.195469,-0.277302,-112.867647,-88.223878,115.496953
02138,322689,8.995680,0.673114,0.960588,0.173263,-0.280684,-0.123891,-0.641565,0.191812,-0.273981,-118.413906,-88.220814,121.140376
02139,322789,9.099901,0.545170,1.060289,0.185530,-0.226232,-0.120160,-0.643531,0.195878,-0.274778,-123.011999,-88.216425,125.842148
02140,322889,9.293042,0.464731,1.091876,0.200823,-0.172166,-0.110590,-0.645012,0.192961,-0.275930,-126.653723,-88.214783,129.595800
02141,322989,9.532459,0.381790,1.037177,0.206967,-0.121412,-0.090665,-0.643537,0.192390,-0.274955,-129.321082,-88.215648,132.378084
02142,323089,9.626086,0.364231,0.980805,0.199450,-0.083556,-0.071742,-0.647526,0.190461,-0.275058,-131.237815,-88.218833,134.405017
02143,323189,9.595036,0.395626,0.983062,0.181522,-0.064325,-0.055294,-0.649477,0.192581,-0.276956,-132.703432,-88.220552,135.970285
02144,323289,9.634914,0.475691,1.035743,0.160864,-0.046053,-0.042161,-0.646990,0.191047,-0.277032,-133.771931,-88.222923,137.126344
02145,323389,9.765771,0.466731,1.112324,0.135161,-0.010769,-0.022132,-0.647023,0.192944,-0.274931,-134.131952,-88.230655,137.558794
02146,323489,10.009209,0.434968,1.125310,0.101876,0.047377,0.003396,-0.646518,0.191465,-0.275507,-133.400932,-88.250952,136.880554
02147,323589,10.096002,0.335224,1.100056,0.066463,0.121195,0.037296,-0.648948,0.194639,-0.278354,-131.195620,-88.284847,134.707020
02148,323689,9.963266,0.229970,1.001123,0.041009,0.169846,0.074380,-0.645930,0.195660,-0.279802,-127.727679,-88.316803,131.255721
02149,323789,10.140459,0.402349,0.732733,0.047719,0.179439,0.105819,-0.646397,0.197235,-0.281225,-123.632625,-88.330541,127.180883
02150,323889,10.949202,0.581474,0.945719,-0.036644,0.249881,0.131192,-0.646834,0.200377,-0.284072,-118.078000,-88.342476,121.597467
02151,323989,11.025737,0.774530,0.895270,-0.051961,0.307508,0.152219,-0.646285,0.202981,-0.286443,-111.293122,-88.339802,114.774438
02152,324089,10.934143,1.016572,1.044947,-0.064319,0.328014,0.156196,-0.644789,0.203953,-0.286392,-104.224292,-88.314772,107.660102
02153,324189,11.230443,1.157154,1.401430,-0.075198,0.369316,0.154134,-0.642229,0.206573,-0.289763,-96.696764,-88.269054,100.080384
02154,324289,11.710859,0.992123,1.747895,-0.070018,0.460786,0.171474,-0.645147,0.209779,-0.293110,-88.017093,-88.184110,91.350583
02155,324389,12.359860,0.572524,2.095325,-0.063473,0.585968,0.201822,-0.641064,0.212946,-0.297955,-78.299347,-88.031034,81.585269
02156,324489,13.240706,0.016472,2.253569,-0.037884,0.736810,0.243064,-0.638979,0.217615,-0.302224,-68.279684,-87.777123,71.531313
02157,324589,13.861544,-0.596422,2.156562,-0.004899,0.879045,0.283262,-0.637860,0.218909,-0.308670,-59.167060,-87.408773,62.402033
02158,324689,14.175370,-1.116322,1.636212,0.030600,0.965963,0.323503,-0.634215,0.224719,-0.316386,-51.953354,-86.942809,55.191398
02159,324789,14.470366,-1.269132,0.765848,0.019820,0.977130,0.352666,-0.634096,0.228994,-0.322181,-46.820874,-86.424907,50.056052
02160,324889,14.842199,-1.204407,-0.053738,-0.015274,0.922902,0.363831,-0.628985,0.234210,-0.328423,-43.389855,-85.903971,46.602977
02161,324989,14.674915,-1.030274,-1.134140,-0.040092,0.786594,0.351114,-0.627859,0.239490,-0.334666,-41.325707,-85.435374,44.504330
02162,325089,13.627878,-0.794255,-2.074666,-0.078771,0.572522,0.305675,-0.625814,0.242568,-0.337012,-40.347681,-85.072677,43.472105
02163,325189,12.086188,-0.472497,-2.153543,-0.105897,0.322943,0.225928,-0.625297,0.248065,-0.337232,-40.140661,-84.847858,43.197813
02164,325289,10.541389,-0.297805,-1.894015,-0.097967,0.050216,0.151217,-0.625734,0.251206,-0.340079,-40.686570,-84.769889,43.684026
02165,325389,9.562787,-0.102014,-1.261124,-0.040244,-0.170798,0.103514,-0.623257,0.254108,-0.338926,-41.875344,-84.804501,44.848964
02166,325489,8.433298,0.133546,-0.654908,-0.007519,-0.311972,0.059761,-0.626765,0.258077,-0.337224,-43.475361,-84.913030,46.445442
02167,325589,7.332408,0.057004,-0.225141,0.021433,-0.368446,0.013722,-0.626799,0.259476,-0.335149,-45.177086,-85.058997,48.160312
02168,325689,6.382747,-0.323468,0.274419,0.059490,-0.362042,-0.017170,-0.625336,0.262843,-0.332971,-46.782954,-85.210754,49.800475
02169,325789,5.871943,-0.799055,0.647556,0.118501,-0.292715,-0.024142,-0.628387,0.264217,-0.329397,-48.062422,-85.335004,51.146765
02170,325889,5.559230,-1.254502,0.619024,0.184739,-0.161605,-0.019770,-0.629409,0.265157,-0.327847,-48.685052,-85.405586,51.872047
02171,325989,5.668018,-1.617683,0.358360,0.249896,0.000775,-0.006503,-0.625400,0.263173,-0.329447,-48.473985,-85.408676,51.798486
02172,326089,6.502304,-1.818535,0.079314,0.313141,0.173805,0.007694,-0.625334,0.263839,-0.332920,-47.385241,-85.339207,50.880871
02173,326189,7.487019,-1.835496,-0.068811,0.371802,0.313850,0.012013,-0.627276,0.265985,-0.335318,-45.620280,-85.210866,49.318465
02174,326289,8.315709,-1.686927,0.014696,0.423780,0.390079,0.017045,-0.625211,0.265149,-0.339367,-43.588187,-85.045198,47.517631
02175,326389,9.155406,-1.334907,0.114874,0.456545,0.379361,0.023693,-0.619150,0.265271,-0.343863,-41.741059,-84.876393,45.920952
02176,326489,10.296492,-0.916976,0.104945,0.458662,0.328611,0.036302,-0.618107,0.265376,-0.346362,-40.266640,-84.720827,44.699369
02177,326589,11.558389,-0.538519,-0.072698,0.438742,0.272813,0.067517,-0.621062,0.263526,-0.348464,-39.239628,-84.576064,43.915385
02178,326689,12.270121,-0.378266,-0.338161,0.396332,0.226447,0.096648,-0.617008,0.266123,-0.351834,-38.587837,-84.440480,43.483729
02179,326789,12.034381,-0.331465,-0.426265,0.313166,0.193605,0.081769,-0.618963,0.266251,-0.353834,-38.058335,-84.324573,43.126947
02180,326889,11.287682,-0.386231,-0.138792,0.192130,0.157308,0.041138,-0.619441,0.267303,-0.354783,-37.558612,-84.239095,42.730309
02181,326989,10.444851,-0.595673,0.453684,0.108370,0.114070,0.011432,-0.618929,0.269810,-0.355156,-37.133394,-84.183335,42.360274
02182,327089,9.672126,-0.702538,1.010538,0.084938,0.064216,0.000385,-0.616917,0.270325,-0.356129,-36.846530,-84.153967,42.115810
02183,327189,9.041780,-0.640476,1.377222,0.074455,0.012986,-0.009355,-0.616910,0.274311,-0.355926,-36.695341,-84.151348,42.001703
02184,327289,8.536006,-0.568971,1.546078,0.089127,-0.032651,-0.014222,-0.620869,0.273450,-0.357477,-36.666435,-84.171334,42.018988
02185,327389,8.040184,-0.492037,1.626498,0.112064,-0.070475,-0.030960,-0.620385,0.275387,-0.356376,-36.675983,-84.214415,42.088145
02186,327489,7.755693,-0.446243,1.553535,0.134997,-0.095123,-0.048522,-0.618371,0.277396,-0.357274,-36.676583,-84.274820,42.161518
02187,327589,7.578045,-0.440138,1.469061,0.158880,-0.078414,-0.070814,-0.618883,0.274889,-0.356901,-36.503233,-84.335152,42.073832
02188,327689,7.577643,-0.363062,1.254345,0.180704,-0.054492,-0.094870,-0.619344,0.274994,-0.358900,-36.118629,-84.392554,41.786440
02189,327789,7.745692,-0.307480,1.133824,0.181239,-0.032046,-0.118643,-0.619344,0.274495,-0.358926,-35.535728,-84.447263,41.300138
02190,327889,7.901291,-0.272134,1.045682,0.171675,-0.035240,-0.141190,-0.622292,0.277130,-0.360799,-34.848500,-84.510388,40.703556
02191,327989,8.121761,-0.262755,0.988091,0.153573,-0.063611,-0.162716,-0.621819,0.278545,-0.359223,-34.145565,-84.593200,40.080840
02192,328089,8.354534,-0.261042,0.943688,0.134873,-0.101686,-0.176431,-0.619269,0.275186,-0.362899,-33.491880,-84.697809,39.496911
02193,328189,8.601999,-0.339718,0.962619,0.102938,-0.136260,-0.177872,-0.618313,0.278538,-0.360222,-32.942741,-84.818868,38.999695
02194,328289,8.718291,-0.503267,1.047913,0.072880,-0.164852,-0.175522,-0.618803,0.273113,-0.361501,-32.498387,-84.952579,38.590502
02195,328389,8.826358,-0.680128,1.248633,0.047678,-0.182422,-0.163892,-0.620842,0.272526,-0.359028,-32.173554,-85.090971,38.286903
02196,328489,8.940360,-0.941594,1.478202,0.034090,-0.192563,-0.145939,-0.623810,0.274116,-0.359952,-31.980013,-85.228679,38.107370
02197,328589,9.061144,-1.165255,1.695581,0.030377,-0.198359,-0.124000,-0.619838,0.272036,-0.359553,-31.931079,-85.362487,38.070912
02198,328689,9.106392,-1.313660,1.922916,0.039067,-0.207051,-0.105031,-0.621302,0.273129,-0.361002,-32.025326,-85.494723,38.183187
02199,328789,8.993144,-1.333562,1.998614,0.043752,-0.215085,-0.097685,-0.624826,0.273586,-0.358978,-32.202008,-85.628556,38.380916
02200,328889,8.819059,-1.288739,1.884833,0.051385,-0.225674,-0.096516,-0.624319,0.273104,-0.359504,-32.437904,-85.767060,38.642470
02201,328989,8.697911,-1.132795,1.825443,0.056125,-0.227148,-0.104097,-0.625336,0.271576,-0.358580,-32.643358,-85.908499,38.876257
02202,329089,8.705939,-0.903058,1.828565,0.051578,-0.197487,-0.114730,-0.625373,0.271978,-0.356556,-32.660184,-86.038848,38.918361
02203,329189,8.759300,-0.699678,1.857655,0.044917,-0.140972,-0.124464,-0.626841,0.271078,-0.358106,-32.353719,-86.144864,38.632632
02204,329289,8.890090,-0.556737,1.808041,0.031748,-0.084089,-0.133807,-0.627327,0.272605,-0.358530,-31.707208,-86.225898,37.998604
02205,329389,9.103500,-0.541632,1.755169,0.021016,-0.033276,-0.132957,-0.627765,0.270290,-0.362156,-30.814321,-86.281193,37.111590
02206,329489,9.275059,-0.624333,1.773802,0.018756,-0.005823,-0.136414,-0.626307,0.270668,-0.360131,-29.747407,-86.322878,36.048976
02207,329589,9.537758,-0.746669,1.752086,0.029373,0.011596,-0.135314,-0.627784,0.269744,-0.361181,-28.584013,-86.354170,34.895874
02208,329689,9.767943,-0.828148,1.699378,0.046282,0.025007,-0.139597,-0.629250,0.269840,-0.362681,-27.301196,-86.378217,33.632908
02209,329789,9.992422,-0.859648,1.529875,0.068908,0.023922,-0.143247,-0.626685,0.270491,-0.366654,-25.963674,-86.401897,32.328209
02210,329889,10.081365,-1.007969,1.231281,0.098347,-0.004604,-0.143006,-0.627224,0.262953,-0.365535,-24.704224,-86.438404,31.118749
02211,329989,10.179543,-1.231528,0.958719,0.145203,-0.054952,-0.138534,-0.629662,0.266601,-0.367857,-23.619287,-86.498615,30.111183
02212,330089,10.474468,-1.439166,0.732456,0.207013,-0.091630,-0.135826,-0.628649,0.265138,-0.368933,-22.621616,-86.576395,29.226701
02213,330189,11.032958,-1.711254,0.696447,0.289874,-0.083636,-0.130689,-0.630619,0.262751,-0.370560,-21.551280,-86.647837,28.317185
02214,330289,11.709447,-1.813462,1.027925,0.381970,-0.046397,-0.114784,-0.630111,0.262767,-0.371060,-20.404202,-86.695021,27.383850
02215,330389,12.326213,-1.434445,1.707391,0.408070,-0.009737,-0.106305,-0.630585,0.260854,-0.372661,-19.171525,-86.719634,26.379900
02216,330489,12.910679,-1.058990,2.751854,0.347840,0.013779,-0.099862,-0.632556,0.256973,-0.374364,-17.945498,-86.729011,25.348151
02217,330589,13.529141,-0.447542,3.725481,0.264376,0.035503,-0.105130,-0.633503,0.258604,-0.376787,-16.647448,-86.726039,24.196411
02218,330689,13.976993,0.340721,4.278415,0.189678,0.096527,-0.109446,-0.632490,0.257640,-0.377837,-15.191980,-86.688476,22.844079
02219,330789,14.287462,1.250774,4.456302,0.103752,0.247119,-0.125800,-0.633938,0.257784,-0.380337,-13.320558,-86.567284,21.025550
02220,330889,14.232915,1.656530,4.070557,0.035922,0.461753,-0.177105,-0.636349,0.255549,-0.384963,-10.778729,-86.327841,18.495909
02221,330989,14.265781,1.465845,3.049567,-0.034727,0.659552,-0.198343,-0.632196,0.256417,-0.393933,-8.178412,-85.971770,15.866111
02222,331089,13.848565,1.358818,1.766285,-0.120692,0.819044,-0.209414,-0.632660,0.254529,-0.396034,-5.850361,-85.518514,13.458509
02223,331189,13.075709,1.060204,0.350842,-0.182170,0.878828,-0.216718,-0.631006,0.260869,-0.403725,-3.917968,-85.025223,11.410904
02224,331289,11.922656,0.375829,-1.529486,-0.211191,0.782927,-0.209356,-0.628882,0.261672,-0.410697,-2.429535,-84.581868,9.790878
02225,331389,10.370318,-0.138179,-3.189428,-0.244844,0.520911,-0.202390,-0.627372,0.260202,-0.411772,-1.264812,-84.285306,8.475707
02226,331489,9.209420,-0.177978,-3.952701,-0.291735,0.145480,-0.168556,-0.628316,0.263826,-0.414093,-0.446025,-84.201535,7.480762
02227,331589,8.617958,0.147371,-3.525229,-0.322357,-0.235113,-0.115641,-0.628377,0.265651,-0.410493,0.040004,-84.334726,6.802610
02228,331689,8.120781,0.734877,-2.557030,-0.327005,-0.510788,-0.093175,-0.632340,0.267755,-0.411392,0.433602,-84.625503,6.214806
02229,331789,7.925475,1.187013,-1.194089,-0.324006,-0.635474,-0.096443,-0.632451,0.267964,-0.405369,0.920568,-84.987323,5.535178
02230,331889,8.199899,1.327555,0.093280,-0.320542,-0.629540,-0.103364,-0.635954,0.269466,-0.404294,1.548055,-85.345083,4.716781
02231,331989,8.807350,1.159709,1.063039,-0.349730,-0.494569,-0.095114,-0.636548,0.272696,-0.398619,2.174788,-85.624942,3.882647
02232,332089,9.384361,0.969604,1.366617,-0.390141,-0.258402,-0.067983,-0.635558,0.274650,-0.398017,2.571999,-85.769654,3.255635
02233,332189,9.691952,0.535298,0.977516,-0.394261,-0.016592,-0.048756,-0.639071,0.275629,-0.396468,2.751942,-85.776260,2.844148
02234,332289,9.856779,0.224961,0.229835,-0.412103,0.160777,-0.030074,-0.636031,0.278193,-0.398839,2.709357,-85.681869,2.645531
02235,332389,9.819998,-0.157398,-0.415943,-0.428194,0.249512,-0.011498,-0.636987,0.279800,-0.400763,2.486168,-85.537264,2.618799
02236,332489,9.705923,-0.492917,-0.917324,-0.449643,0.245027,0.015417,-0.634022,0.282171,-0.399135,2.066538,-85.395923,2.776843
02237,332589,9.646454,-0.767542,-1.215006,-0.473258,0.162220,0.048947,-0.637939,0.283898,-0.402559,1.434494,-85.302559,3.134525
02238,332689,9.602154,-0.768560,-1.250325,-0.487659,0.042024,0.080749,-0.636946,0.287346,-0.401881,0.606294,-85.278090,3.680852
02239,332789,9.375323,-0.621740,-0.978836,-0.478296,-0.068983,0.098679,-0.637946,0.290327,-0.401229,-0.336305,-85.316626,4.347399
02240,332889,9.131987,-0.322885,-0.467159,-0.432219,-0.154168,0.100994,-0.638995,0.292191,-0.398129,-1.294580,-85.403089,5.056136
02241,332989,8.863819,0.047312,0.049634,-0.346320,-0.201786,0.087447,-0.643033,0.293604,-0.395055,-2.149218,-85.516179,5.710187
02242,333089,8.696787,0.363689,0.503584,-0.242227,-0.206860,0.066558,-0.640049,0.296024,-0.394427,-2.827838,-85.632019,6.247391
02243,333189,8.501194,0.548179,0.839617,-0.136182,-0.204676,0.042533,-0.644073,0.294995,-0.392480,-3.292082,-85.746947,6.630427
02244,333289,8.305260,0.712558,1.072133,-0.055971,-0.196571,0.023103,-0.645068,0.296007,-0.392429,-3.575513,-85.857733,6.878144
02245,333389,8.201245,0.793110,1.133277,-0.011870,-0.179024,0.004053,-0.648067,0.295532,-0.391956,-3.684008,-85.959129,6.975728
02246,333489,8.074759,0.838767,1.130337,-0.003312,-0.158303,-0.002790,-0.647595,0.296448,-0.390406,-3.724592,-86.048937,7.010087
02247,333589,7.970030,0.806012,1.033775,-0.031440,-0.134269,0.003324,-0.650113,0.296416,-0.388907,-3.821224,-86.124789,7.084421
02248,333689,7.981287,0.727243,0.915097,-0.075031,-0.112327,0.018535,-0.650151,0.296319,-0.386908,-4.063892,-86.187504,7.280041
02249,333789,7.968657,0.554352,0.736673,-0.113848,-0.107092,0.039572,-0.651139,0.295861,-0.387433,-4.516016,-86.246268,7.663244
02250,333889,8.022628,0.366578,0.632394,-0.132041,-0.116906,0.059284,-0.652624,0.295410,-0.387959,-5.173920,-86.309459,8.242178
02251,333989,8.060403,0.146445,0.595736,-0.122678,-0.136280,0.077935,-0.652624,0.295909,-0.387933,-6.033960,-86.382174,9.028994
02252,334089,8.169173,0.004721,0.601481,-0.107181,-0.155989,0.089681,-0.655621,0.296430,-0.387409,-7.048914,-86.464535,9.979871
02253,334189,8.346754,-0.092096,0.618933,-0.076048,-0.176767,0.102308,-0.653196,0.295724,-0.383935,-8.239492,-86.556599,11.124499
02254,334289,8.532914,-0.091930,0.732314,-0.040111,-0.184713,0.106383,-0.655672,0.298777,-0.384284,-9.525226,-86.651295,12.384985
02255,334389,8.689601,-0.063112,0.771825,-0.001798,-0.189482,0.109511,-0.659683,0.294308,-0.383514,-10.902358,-86.746620,13.758902
02256,334489,8.905356,0.105969,0.853188,0.030888,-0.191701,0.105697,-0.659731,0.298647,-0.380286,-12.309002,-86.841697,15.181009
02257,334589,9.047147,0.248974,0.881477,0.058618,-0.194543,0.101949,-0.658223,0.296181,-0.381413,-13.754684,-86.936854,16.657986
02258,334689,9.119915,0.481140,0.875787,0.083488,-0.217835,0.095162,-0.661720,0.295714,-0.380939,-15.274010,-87.043818,18.222813
02259,334789,9.072249,0.734773,0.986054,0.095059,-0.249527,0.082247,-0.663766,0.297096,-0.377865,-16.864596,-87.168030,19.865425
02260,334889,8.926887,0.948182,1.123270,0.094021,-0.280956,0.065669,-0.663264,0.294122,-0.378517,-18.533021,-87.309894,21.585126
02261,334989,8.699463,0.986761,1.227213,0.096860,-0.308851,0.052272,-0.664316,0.293994,-0.375518,-20.349502,-87.466819,23.454397
02262,335089,8.621869,0.922063,1.326095,0.096581,-0.313824,0.047935,-0.667318,0.291526,-0.375147,-22.377475,-87.624372,25.534915
02263,335189,8.480517,0.764830,1.402701,0.084897,-0.297390,0.052211,-0.668332,0.291992,-0.374122,-24.656385,-87.768866,27.859605
02264,335289,8.451904,0.548865,1.499987,0.065940,-0.257101,0.065333,-0.666878,0.289879,-0.372224,-27.154607,-87.885294,30.392667
02265,335389,8.442383,0.328042,1.563666,0.057373,-0.198352,0.085761,-0.667847,0.289967,-0.373724,-29.757323,-87.962154,33.025213
02266,335489,8.788749,0.226509,1.593593,0.044944,-0.127883,0.104214,-0.667887,0.288376,-0.371800,-32.199559,-87.994667,35.489963
02267,335589,9.116816,0.116539,1.470115,0.048615,-0.058551,0.115464,-0.670879,0.286430,-0.371903,-34.222635,-87.986994,37.537388
02268,335689,9.416951,0.119489,1.408559,0.052386,-0.022741,0.128493,-0.669951,0.289709,-0.367727,-36.054504,-87.955832,39.395676
02269,335789,9.700024,0.221849,1.353899,0.054353,-0.021765,0.133429,-0.671382,0.288905,-0.371276,-37.880112,-87.920442,41.248863
02270,335889,10.051515,0.359305,1.300823,0.040965,-0.003157,0.140810,-0.669436,0.288753,-0.368777,-39.554410,-87.872075,42.942999
02271,335989,10.421585,0.420558,1.357844,0.003784,0.028005,0.147596,-0.668406,0.286841,-0.370877,-40.943035,-87.805930,44.329985
02272,336089,10.757081,0.528951,1.286078,-0.042758,0.086197,0.154783,-0.669411,0.287331,-0.370352,-41.791052,-87.711044,45.149312
02273,336189,11.025599,0.735443,1.249375,-0.117640,0.140140,0.158761,-0.668397,0.286366,-0.371402,-42.157063,-87.591338,45.443311
02274,336289,11.272539,1.032367,1.113453,-0.202017,0.189548,0.152720,-0.670346,0.290481,-0.373199,-42.051493,-87.452944,45.216867
02275,336389,11.491763,1.393580,1.071137,-0.288417,0.218174,0.143173,-0.666288,0.289613,-0.377247,-41.691390,-87.305973,44.685965
02276,336489,11.769716,1.475276,1.258596,-0.373036,0.243638,0.133138,-0.666811,0.291542,-0.375646,-41.143712,-87.151700,43.918580
02277,336589,12.111211,1.275956,1.704055,-0.379096,0.282848,0.133007,-0.663289,0.295545,-0.376941,-40.388576,-86.980062,42.939812
02278,336689,12.585007,0.723292,2.564703,-0.278159,0.365733,0.155882,-0.661277,0.296060,-0.377915,-39.313598,-86.762780,41.698434
02279,336789,13.262354,-0.120623,3.283282,-0.085285,0.506501,0.189922,-0.661185,0.295304,-0.382964,-37.716342,-86.468689,40.044277
02280,336889,13.992771,-1.355922,3.407012,0.151544,0.657255,0.221546,-0.658102,0.301950,-0.387131,-35.705190,-86.091540,38.110824
02281,336989,14.185396,-2.572253,2.940139,0.354574,0.727801,0.273684,-0.653983,0.298761,-0.394804,-33.960144,-85.660224,36.560024
02282,337089,13.947286,-3.158244,2.178769,0.439486,0.707094,0.329870,-0.653444,0.300842,-0.396702,-32.868828,-85.218457,35.713120
02283,337189,14.063937,-3.032365,1.072372,0.394146,0.669400,0.369776,-0.651844,0.303076,-0.402097,-32.304934,-84.781652,35.369201
02284,337289,14.476105,-2.442693,-0.056103,0.258371,0.634547,0.403308,-0.646756,0.305753,-0.407467,-32.158325,-84.351334,35.366189
02285,337389,14.222932,-1.449717,-1.385468,0.115743,0.535195,0.423372,-0.648193,0.311876,-0.409662,-32.480130,-83.963020,35.751947
02286,337489,12.895852,-0.475194,-2.840343,-0.002613,0.302012,0.406115,-0.646179,0.313387,-0.410584,-33.405566,-83.691865,36.676881
02287,337589,11.428814,0.207665,-3.433140,-0.060419,-0.016627,0.324762,-0.647124,0.316513,-0.412931,-34.860358,-83.596058,38.101411
02288,337689,10.428065,0.439154,-3.101150,-0.052235,-0.286542,0.224423,-0.647169,0.322347,-0.409627,-36.673288,-83.654966,39.891027
02289,337789,9.391732,0.273986,-2.544708,-0.022453,-0.477372,0.146474,-0.649206,0.323255,-0.407078,-38.807226,-83.820876,42.020317
02290,337889,8.226781,0.041308,-1.912380,0.012754,-0.639958,0.082331,-0.650755,0.323632,-0.404055,-41.357552,-84.072170,44.587754
02291,337989,7.262654,-0.176398,-1.227277,0.049606,-0.763280,0.019415,-0.653382,0.325303,-0.396457,-44.344290,-84.386482,47.613724
02292,338089,6.748692,-0.498022,-0.476436,0.102927,-0.784808,-0.030623,-0.655989,0.322563,-0.390587,-47.535933,-84.713153,50.874573
02293,338189,6.504224,-1.059713,0.147616,0.213185,-0.686083,-0.071444,-0.659018,0.325977,-0.387911,-50.402730,-85.003472,53.871120
02294,338289,6.645816,-1.474070,0.567421,0.363806,-0.475496,-0.088841,-0.661539,0.324450,-0.386488,-52.301561,-85.214725,55.981708
02295,338389,7.404148,-1.689075,0.763186,0.442115,-0.170241,-0.082848,-0.662035,0.320496,-0.387192,-52.625189,-85.313111,56.556321
02296,338489,7.983138,-1.750210,0.538039,0.449779,0.079692,-0.069323,-0.663025,0.318543,-0.387794,-51.622709,-85.317723,55.804824
02297,338589,8.563806,-1.746954,0.327161,0.404825,0.224333,-0.049227,-0.663438,0.314806,-0.392995,-49.958734,-85.259580,54.363793
02298,338689,9.173923,-1.516726,0.175411,0.356764,0.271565,-0.018461,-0.661401,0.313400,-0.395570,-48.259893,-85.166941,52.860043
02299,338789,9.961773,-1.051507,0.130302,0.323478,0.273889,0.021798,-0.660934,0.311825,-0.394146,-46.813057,-85.052984,51.589880
02300,338889,10.711154,-0.437438,-0.008425,0.297032,0.276789,0.057458,-0.661905,0.310419,-0.395722,-45.590939,-84.920656,50.529850
02301,338989,11.210338,0.165990,-0.268739,0.261468,0.299365,0.079556,-0.660809,0.309173,-0.401296,-44.446885,-84.768375,49.527474
02302,339089,10.943223,0.695903,-0.600613,0.185703,0.309481,0.067291,-0.661765,0.310780,-0.403219,-43.310228,-84.615062,48.488627
02303,339189,10.305217,0.891700,-0.628575,0.069412,0.274242,0.018335,-0.660760,0.310290,-0.403744,-42.225613,-84.493824,47.434827
02304,339289,9.706513,0.722452,-0.389685,-0.025582,0.181433,-0.039037,-0.659237,0.305878,-0.405971,-41.347109,-84.432480,46.533208
02305,339389,9.392101,0.342109,0.035912,-0.072377,0.083323,-0.079629,-0.660229,0.307887,-0.405870,-40.707703,-84.427686,45.844802
02306,339489,9.191525,-0.130001,0.533647,-0.084810,0.011218,-0.099149,-0.662775,0.308280,-0.402847,-40.262542,-84.460953,45.344414
02307,339589,8.930845,-0.500256,1.032699,-0.104136,-0.024813,-0.096544,-0.662772,0.309775,-0.402770,-39.972266,-84.508732,44.988555
02308,339689,8.859123,-0.831504,1.385234,-0.136220,-0.039433,-0.086294,-0.663753,0.308344,-0.403847,-39.798515,-84.559025,44.731348
02309,339789,8.768742,-1.147419,1.624199,-0.164288,-0.016631,-0.071655,-0.666751,0.307869,-0.403373,-39.617398,-84.593818,44.450652
02310,339889,8.509001,-1.281828,1.610314,-0.185188,0.032656,-0.055341,-0.664761,0.306842,-0.403423,-39.332321,-84.600745,44.053565
02311,339989,8.069820,-1.211746,1.393428,-0.185828,0.074653,-0.043548,-0.669248,0.309878,-0.402772,-38.942635,-84.584510,43.551079
02312,340089,7.789048,-0.968688,1.147079,-0.169026,0.090053,-0.046614,-0.668750,0.309870,-0.402772,-38.474058,-84.562127,42.979037
02313,340189,7.674003,-0.682890,0.912136,-0.144815,0.081250,-0.061148,-0.669728,0.309436,-0.403798,-37.959777,-84.548393,42.375025
02314,340289,7.610917,-0.502573,0.799424,-0.113273,0.039166,-0.088042,-0.670210,0.307997,-0.404873,-37.455648,-84.562652,41.799380
02315,340389,7.753694,-0.487955,0.872280,-0.089044,-0.004458,-0.111160,-0.669755,0.304904,-0.403027,-36.981707,-84.604362,41.268042
02316,340489,8.039537,-0.622401,0.968972,-0.071329,-0.035296,-0.132933,-0.669755,0.304904,-0.403027,-36.494938,-84.667272,40.734079
02317,340589,8.399918,-0.839746,1.098456,-0.066119,-0.050080,-0.137389,-0.672262,0.305891,-0.401977,-36.024764,-84.738099,40.219865
02318,340689,8.717487,-1.136223,1.235999,-0.064023,-0.056151,-0.132105,-0.671779,0.302870,-0.401629,-35.589558,-84.809590,39.742066
02319,340789,8.891402,-1.395552,1.382767,-0.049012,-0.060168,-0.119213,-0.673255,0.302444,-0.402655,-35.215378,-84.878359,39.334278
02320,340889,8.973042,-1.567969,1.512257,-0.032516,-0.073680,-0.098678,-0.676264,0.301446,-0.401707,-34.980516,-84.946488,39.075945
02321,340989,8.989210,-1.682729,1.592561,-0.019010,-0.092668,-0.080033,-0.676803,0.299365,-0.399810,-34.903160,-85.017339,38.983576
02322,341089,8.930673,-1.666404,1.653591,0.000266,-0.104247,-0.065337,-0.679271,0.301944,-0.400683,-34.936989,-85.088792,39.013957
02323,341189,8.759391,-1.519963,1.693896,0.031049,-0.103847,-0.061162,-0.680798,0.299404,-0.399311,-34.975789,-85.158672,39.067074
02324,341289,8.591513,-1.346828,1.765577,0.062388,-0.106016,-0.068439,-0.683293,0.296454,-0.399464,-34.965617,-85.231947,39.089100
02325,341389,8.576903,-1.231665,1.884866,0.070044,-0.110724,-0.075612,-0.685821,0.296397,-0.397466,-34.929127,-85.309776,39.089151
02326,341489,8.688459,-1.122213,1.927207,0.060868,-0.115915,-0.080317,-0.685801,0.297442,-0.398415,-34.891118,-85.391577,39.082433
02327,341589,8.841962,-0.959002,1.856471,0.053036,-0.117255,-0.087025,-0.688329,0.292427,-0.397170,-34.822595,-85.476195,39.040626
02328,341689,9.036972,-0.796414,1.721069,0.048496,-0.110026,-0.092581,-0.689795,0.292523,-0.398670,-34.690575,-85.559213,38.932537
02329,341789,9.105961,-0.741225,1.496756,0.050992,-0.107214,-0.102113,-0.694817,0.290513,-0.396774,-34.481566,-85.643977,38.748689
02330,341889,9.209994,-0.630420,1.398282,0.060108,-0.116405,-0.117972,-0.696343,0.287973,-0.395402,-34.198586,-85.738153,38.495930
02331,341989,9.412949,-0.499652,1.469851,0.076387,-0.117179,-0.141706,-0.697334,0.286020,-0.396003,-33.742354,-85.840170,38.078837
02332,342089,9.605241,-0.446361,1.416392,0.099480,-0.116372,-0.164402,-0.699792,0.283665,-0.398130,-33.093754,-85.948664,37.482204
02333,342189,9.742391,-0.619634,1.223043,0.142437,-0.149809,-0.180249,-0.704352,0.282048,-0.394210,-32.424143,-86.077685,36.889277
02334,342289,9.923182,-1.053646,1.089189,0.224671,-0.201039,-0.185406,-0.704320,0.279155,-0.396361,-31.860174,-86.232678,36.449576
02335,342389,10.349203,-1.467713,1.036004,0.322545,-0.213660,-0.185456,-0.707388,0.276021,-0.392516,-31.255395,-86.393536,36.025291
02336,342489,11.040400,-1.975042,1.195228,0.410432,-0.162827,-0.166556,-0.709395,0.273537,-0.392144,-30.460299,-86.523483,35.460899
02337,342589,11.891793,-2.198667,1.647144,0.445651,-0.067270,-0.139297,-0.712361,0.270668,-0.393797,-29.364013,-86.597579,34.615110
02338,342689,12.744135,-2.056018,2.503589,0.420592,0.048759,-0.112151,-0.712340,0.266754,-0.395499,-27.938075,-86.604724,33.424798
02339,342789,13.463475,-1.692403,3.516910,0.358731,0.147755,-0.081384,-0.717803,0.265395,-0.396577,-26.382264,-86.551489,32.068888
02340,342889,14.186034,-0.971407,4.298278,0.261366,0.207098,-0.066366,-0.716748,0.262060,-0.400253,-24.820542,-86.461663,30.651083
02341,342989,14.862613,0.063849,4.726826,0.165050,0.308356,-0.073748,-0.718169,0.261778,-0.404278,-22.968768,-86.317941,28.887159
02342,343089,15.139320,0.876972,4.483218,0.114506,0.482975,-0.109572,-0.719080,0.262509,-0.408751,-20.471459,-86.084706,26.446842
02343,343189,14.699300,0.788007,3.385613,0.117920,0.631980,-0.149942,-0.720493,0.261752,-0.413300,-17.593686,-85.770936,23.626223
02344,343289,14.513186,0.722298,2.208044,0.117820,0.685656,-0.193000,-0.720386,0.259052,-0.419450,-14.716237,-85.424825,20.804630
02345,343389,14.238689,0.181014,0.990300,0.102607,0.693396,-0.198364,-0.718781,0.258819,-0.425473,-12.207126,-85.065359,18.342488
02346,343489,13.534609,-0.315264,-0.243872,0.073251,0.617551,-0.204889,-0.719693,0.259052,-0.429971,-10.097630,-84.741373,16.263382
02347,343589,12.458627,-0.811684,-1.605001,0.001235,0.470953,-0.200479,-0.719566,0.257894,-0.437045,-8.424620,-84.494024,14.580303
02348,343689,10.848404,-1.103727,-2.463416,-0.058427,0.255198,-0.183360,-0.719073,0.260354,-0.436418,-7.179921,-84.363937,13.292703
02349,343789,9.420471,-1.153400,-2.659303,-0.055567,0.004170,-0.148647,-0.720485,0.259598,-0.440967,-6.343951,-84.372137,12.417345
02350,343889,8.547864,-0.763925,-2.226435,-0.015588,-0.234363,-0.105642,-0.723557,0.259926,-0.436445,-5.873849,-84.512665,11.932719
02351,343989,7.865641,0.048836,-1.564229,0.071069,-0.408996,-0.088318,-0.725619,0.257298,-0.433074,-5.537419,-84.751463,11.632362
02352,344089,7.665750,1.126831,-0.685003,0.158664,-0.482419,-0.108723,-0.730122,0.256325,-0.432126,-5.028690,-85.033033,11.209488
02353,344189,7.638773,1.890256,0.159292,0.185797,-0.423066,-0.146788,-0.732660,0.255746,-0.429653,-4.152000,-85.281990,10.433043
02354,344289,7.506607,2.147895,0.627569,0.124250,-0.310758,-0.175891,-0.735670,0.254250,-0.428731,-2.963392,-85.466546,9.308457
02355,344389,7.726036,1.982454,0.678280,-0.000398,-0.146906,-0.167670,-0.734669,0.251767,-0.429358,-1.773592,-85.555186,8.111187
02356,344489,8.180471,1.521503,0.243353,-0.106927,0.019612,-0.116802,-0.737133,0.250883,-0.430908,-0.959350,-85.546101,7.229407
02357,344589,8.851775,1.191118,-0.304044,-0.193560,0.139353,-0.058761,-0.737630,0.251887,-0.430858,-0.615571,-85.467282,6.769661
02358,344689,9.405857,0.852748,-0.772320,-0.261688,0.171900,-0.017294,-0.735636,0.247396,-0.431586,-0.616504,-85.369472,6.616490
02359,344789,9.631952,0.134663,-1.096770,-0.295467,0.115000,0.029087,-0.733627,0.251374,-0.431881,-0.967095,-85.303951,6.794699
02360,344889,9.922244,-0.482230,-1.215516,-0.307778,0.005325,0.089572,-0.735646,0.251831,-0.430357,-1.755380,-85.300309,7.405022
02361,344989,10.094206,-0.941843,-1.195030,-0.322795,-0.093135,0.136091,-0.735576,0.254989,-0.433703,-2.908503,-85.351125,8.372772
02362,345089,10.146564,-1.112334,-0.945925,-0.310284,-0.176273,0.160597,-0.737645,0.258790,-0.429003,-4.295191,-85.446861,9.581964
02363,345189,10.079246,-0.878898,-0.380440,-0.268047,-0.206695,0.157585,-0.739679,0.256732,-0.427106,-5.712537,-85.557722,10.846031
02364,345289,9.855701,-0.513448,0.051290,-0.182406,-0.201269,0.137330,-0.743150,0.260299,-0.427429,-6.991132,-85.664422,12.019979
02365,345389,9.606342,-0.120359,0.387613,-0.085286,-0.186144,0.108561,-0.743656,0.260782,-0.426904,-8.037692,-85.762844,13.016884
02366,345489,9.298019,0.199212,0.609031,-0.002112,-0.172823,0.080725,-0.746683,0.260234,-0.424931,-8.850297,-85.854838,13.826858
02367,345589,9.059263,0.431536,0.753954,0.046901,-0.164562,0.064112,-0.749679,0.261254,-0.424381,-9.527546,-85.942904,14.529178
02368,345689,8.806979,0.609530,0.853880,0.063078,-0.154911,0.057293,-0.750705,0.260700,-0.422907,-10.156306,-86.025612,15.192088
02369,345789,8.600776,0.748088,0.963194,0.047630,-0.127922,0.057278,-0.750233,0.261616,-0.421357,-10.778530,-86.092603,15.839492
02370,345889,8.253957,0.907527,0.996612,0.008809,-0.099450,0.062784,-0.749732,0.262604,-0.421306,-11.442908,-86.142474,16.506783
02371,345989,8.034013,1.083927,1.035403,-0.056264,-0.067889,0.063254,-0.755719,0.262675,-0.420808,-12.108982,-86.174060,17.138345
02372,346089,7.888934,1.021337,1.007885,-0.128519,-0.040706,0.072292,-0.755728,0.263149,-0.420283,-12.851190,-86.188798,17.804673
02373,346189,7.771490,0.889151,0.957052,-0.195750,-0.038468,0.082528,-0.758245,0.263615,-0.418759,-13.718489,-86.200315,18.557731
02374,346289,7.772069,0.620145,0.921563,-0.241966,-0.044011,0.093214,-0.758159,0.265326,-0.423181,-14.718524,-86.212591,19.417252
02375,346389,7.932806,0.403138,0.846520,-0.257953,-0.059578,0.101635,-0.762163,0.264843,-0.422208,-15.840533,-86.231144,20.389807
02376,346489,8.162464,0.203070,0.768335,-0.234425,-0.064187,0.114090,-0.757691,0.264250,-0.421732,-17.074856,-86.248887,21.488404
02377,346589,8.359345,-0.015717,0.760299,-0.189136,-0.057203,0.119502,-0.760694,0.266740,-0.420606,-18.319667,-86.260311,22.623497
02378,346689,8.440929,-0.217864,0.695539,-0.128236,-0.060148,0.118569,-0.762217,0.266193,-0.419133,-19.537277,-86.271909,23.766289
02379,346789,8.519643,-0.292725,0.822897,-0.079529,-0.097322,0.113055,-0.765717,0.269190,-0.417982,-20.804682,-86.302972,24.986926
02380,346889,8.589789,-0.351745,0.786824,-0.037590,-0.159174,0.106594,-0.763711,0.266217,-0.419133,-22.224042,-86.366502,26.383850
02381,346989,8.559402,-0.337728,0.753277,0.006747,-0.233012,0.103987,-0.766726,0.267188,-0.417584,-23.919951,-86.467093,28.083197
02382,347089,8.616285,-0.074787,0.842346,0.032187,-0.292754,0.102407,-0.766769,0.263604,-0.415763,-25.934763,-86.595624,30.116426
02383,347189,8.600410,0.244909,1.025638,0.051039,-0.313843,0.100975,-0.765813,0.267454,-0.413060,-28.181293,-86.730632,32.392298
02384,347289,8.584504,0.579662,1.312187,0.063304,-0.293701,0.095127,-0.769250,0.264166,-0.416238,-30.451706,-86.851890,34.698821
02385,347389,8.535046,0.816064,1.505162,0.063421,-0.261110,0.082791,-0.768823,0.265460,-0.412163,-32.598428,-86.955855,36.881269
02386,347489,8.456342,0.807016,1.623718,0.050925,-0.246702,0.069635,-0.771842,0.264439,-0.410715,-34.689819,-87.052691,39.000914
02387,347589,8.413307,0.604888,1.688103,0.056505,-0.238020,0.059518,-0.769893,0.265782,-0.408139,-36.764663,-87.144780,41.106997
02388,347689,8.462629,0.296083,1.654776,0.079920,-0.221015,0.058461,-0.772875,0.264857,-0.408691,-38.825623,-87.225630,43.212443
02389,347789,8.759476,0.098642,1.645624,0.112139,-0.181254,0.061371,-0.771889,0.263820,-0.408242,-40.700938,-87.284293,45.150384
02390,347889,9.083969,-0.056009,1.468229,0.143575,-0.134463,0.065105,-0.770871,0.260389,-0.409919,-42.285334,-87.318620,46.815040
02391,347989,9.413150,-0.249996,1.339442,0.149103,-0.100309,0.074510,-0.774850,0.258484,-0.410521,-43.698976,-87.332891,48.311898
02392,348089,9.661001,-0.251859,1.291611,0.144924,-0.080832,0.084440,-0.771875,0.261378,-0.409369,-45.045853,-87.333514,49.739514
02393,348189,9.851117,-0.170663,1.299501,0.131969,-0.063232,0.098091,-0.774362,0.258452,-0.410021,-46.358958,-87.319951,51.125901
02394,348289,10.110599,-0.122823,1.258534,0.123444,-0.045197,0.117531,-0.774366,0.261417,-0.409369,-47.659448,-87.289720,52.494794
02395,348389,10.405975,-0.027616,1.209219,0.104657,-0.028272,0.140384,-0.772375,0.260389,-0.409419,-48.966978,-87.241803,53.859999
02396,348489,10.817955,0.169591,1.141455,0.068485,-0.022871,0.168370,-0.772300,0.261080,-0.413392,-50.408295,-87.178107,55.338454
02397,348589,11.274406,0.413832,1.059259,0.018122,-0.038105,0.191445,-0.771340,0.261466,-0.411367,-52.110244,-87.107613,57.049044
02398,348689,11.667762,0.757101,1.084974,-0.041518,-0.057033,0.208198,-0.770315,0.262021,-0.412841,-54.041504,-87.033298,58.955112
02399,348789,12.081354,1.085303,1.309423,-0.109042,-0.049879,0.216654,-0.772278,0.263121,-0.414290,-55.902323,-86.949490,60.752003
02400,348889,12.467392,1.267665,1.781062,-0.150752,0.010052,0.208362,-0.769811,0.265002,-0.412688,-57.113960,-86.848212,61.874945
02401,348989,12.995067,1.200709,2.377426,-0.141741,0.148977,0.192789,-0.772271,0.266608,-0.414112,-56.987959,-86.710571,61.663397
02402,349089,13.727146,0.495258,3.073710,-0.053633,0.326303,0.189615,-0.771181,0.267332,-0.419085,-55.411834,-86.517742,60.049709
02403,349189,14.570177,-0.341039,2.979563,0.055568,0.502775,0.199851,-0.767632,0.270909,-0.421905,-52.745594,-86.257393,57.406044
02404,349289,15.285074,-1.541441,2.420815,0.158084,0.621355,0.224418,-0.763047,0.271102,-0.427401,-49.761295,-85.935604,54.501606
02405,349389,15.415751,-2.701921,1.380812,0.205456,0.667302,0.274176,-0.762872,0.275522,-0.436194,-47.188807,-85.565817,52.036135
02406,349489,15.444783,-3.018140,0.244788,0.211862,0.649972,0.313447,-0.759265,0.275281,-0.442716,-45.275984,-85.179811,50.234962
02407,349589,15.401496,-2.666065,-1.042434,0.170338,0.584131,0.335357,-0.756704,0.278400,-0.446062,-44.049787,-84.808007,49.098199
02408,349689,14.424977,-2.023923,-2.107401,0.104256,0.436473,0.332623,-0.754094,0.283133,-0.451830,-43.606269,-84.496939,48.708918
02409,349789,13.128963,-1.399480,-2.473543,0.065964,0.234692,0.294594,-0.753055,0.286203,-0.453676,-43.861808,-84.284425,48.999854
02410,349889,11.531371,-0.668693,-2.296960,0.062633,0.029298,0.210400,-0.753027,0.286275,-0.455176,-44.564585,-84.189684,49.738457
02411,349989,10.267330,-0.265312,-1.857571,0.087217,-0.135680,0.137511,-0.757992,0.290364,-0.455474,-45.601228,-84.190160,50.826861
02412,350089,9.002930,-0.055197,-1.462436,0.115383,-0.264788,0.091061,-0.756033,0.292229,-0.453372,-46.975038,-84.258692,52.270293
02413,350189,8.015172,0.085708,-1.088138,0.107258,-0.330636,0.056284,-0.757052,0.295162,-0.451721,-48.538689,-84.363610,53.899593
02414,350289,6.973731,-0.028350,-0.672117,0.087512,-0.322466,0.015661,-0.759092,0.294575,-0.449248,-49.981682,-84.478842,55.395979
02415,350389,6.006775,-0.499241,-0.425748,0.142143,-0.302276,-0.019506,-0.760098,0.294069,-0.448774,-51.226304,-84.598859,56.724240
02416,350489,5.789848,-0.862501,-0.269637,0.221755,-0.211080,-0.039311,-0.762594,0.296575,-0.448148,-51.961809,-84.693097,57.586746
02417,350589,5.917179,-1.035433,-0.254424,0.302794,-0.040786,-0.059395,-0.764090,0.295603,-0.448199,-51.760581,-84.735747,57.555072
02418,350689,6.208002,-1.070509,-0.317760,0.341419,0.116893,-0.077100,-0.762555,0.292212,-0.450876,-50.699182,-84.729696,56.681822
02419,350789,6.790210,-1.081824,-0.242751,0.368631,0.205794,-0.093746,-0.761557,0.288234,-0.451578,-49.139739,-84.696310,55.324049
02420,350889,7.467908,-0.886141,-0.151865,0.378509,0.227652,-0.107064,-0.762466,0.285003,-0.456754,-47.439937,-84.656743,53.830923
02421,350989,8.507615,-0.668348,0.081118,0.373803,0.227666,-0.111776,-0.759950,0.283541,-0.458329,-45.747503,-84.615050,52.342396
02422,351089,9.551869,-0.253265,0.199080,0.349243,0.227379,-0.103472,-0.759926,0.281621,-0.459930,-44.131757,-84.566118,50.916647
02423,351189,10.538956,0.070521,0.105347,0.320718,0.251253,-0.093480,-0.759875,0.278775,-0.463081,-42.507902,-84.499533,49.466183
02424,351289,11.141602,0.241690,-0.173757,0.289287,0.282924,-0.089928,-0.756322,0.273931,-0.467333,-40.833631,-84.414101,47.946769
02425,351389,11.183066,0.182749,-0.450024,0.240425,0.297807,-0.099364,-0.756325,0.272436,-0.467409,-39.139957,-84.321343,46.379478
02426,351489,10.829796,0.043540,-0.480343,0.151092,0.285196,-0.126589,-0.755266,0.271592,-0.470958,-37.471774,-84.239464,44.786113
02427,351589,10.271224,-0.283709,-0.076358,0.040224,0.240901,-0.149643,-0.755229,0.271190,-0.472983,-35.954673,-84.181454,43.280556
02428,351689,9.571687,-0.616397,0.468653,-0.043487,0.166834,-0.154260,-0.754158,0.271866,-0.476955,-34.729638,-84.155978,42.020266
02429,351789,9.175800,-0.913938,1.003298,-0.068842,0.090494,-0.129597,-0.755146,0.271407,-0.477481,-33.881512,-84.156353,41.124235
02430,351889,8.876824,-1.029161,1.342791,-0.085796,0.050794,-0.099517,-0.756173,0.269358,-0.476084,-33.305909,-84.165000,40.492407
02431,351989,8.630637,-1.053419,1.502178,-0.095128,0.040455,-0.078520,-0.755598,0.271037,-0.480006,-32.864495,-84.171465,39.990118
02432,352089,8.219470,-1.102724,1.536857,-0.089582,0.046381,-0.075559,-0.755158,0.269390,-0.477083,-32.415142,-84.173750,39.483066
02433,352189,7.848666,-1.212219,1.637666,-0.082706,0.046627,-0.088089,-0.753660,0.266401,-0.477735,-31.901057,-84.179294,38.914931
02434,352289,7.677066,-1.149538,1.602752,-0.062645,0.055540,-0.097934,-0.755616,0.270989,-0.479006,-31.301171,-84.182875,38.272130
02435,352389,7.863254,-0.922561,1.492050,-0.040425,0.072428,-0.110285,-0.759113,0.265564,-0.479287,-30.579728,-84.181037,37.519955
02436,352489,8.110147,-0.698073,1.349024,-0.017314,0.090510,-0.121013,-0.757072,0.266649,-0.481734,-29.742912,-84.172288,36.665121
02437,352589,8.315921,-0.536219,1.321672,0.011428,0.079926,-0.135722,-0.757556,0.264214,-0.482861,-28.848773,-84.171640,35.769219
02438,352689,8.557725,-0.425529,1.334936,0.028511,0.046629,-0.147677,-0.758575,0.262189,-0.481963,-27.973662,-84.189623,34.902298
02439,352789,8.776420,-0.373472,1.307278,0.020352,-0.009997,-0.157493,-0.758511,0.261361,-0.485513,-27.194852,-84.237696,34.127526
02440,352889,8.928684,-0.433391,1.208170,-0.004409,-0.070513,-0.163240,-0.758083,0.258693,-0.482141,-26.542718,-84.317205,33.465896
02441,352989,8.931723,-0.570398,1.230455,-0.024957,-0.116518,-0.157101,-0.761044,0.258315,-0.483667,-26.033982,-84.418113,32.936638
02442,353089,8.793682,-0.737832,1.386339,-0.041579,-0.141134,-0.143697,-0.763081,0.254264,-0.481871,-25.651567,-84.527956,32.524829
02443,353189,8.601291,-0.906431,1.584173,-0.054638,-0.140850,-0.121285,-0.765063,0.255316,-0.482321,-25.383377,-84.631886,32.220329
02444,353289,8.297393,-1.008644,1.726852,-0.065492,-0.133751,-0.099530,-0.763076,0.251797,-0.482498,-25.213835,-84.726694,32.008726
02445,353389,8.058263,-1.063050,1.838671,-0.080739,-0.129617,-0.077166,-0.766605,0.249265,-0.480627,-25.163070,-84.813859,31.907672
02446,353489,7.991747,-1.088635,1.885417,-0.092065,-0.127309,-0.063429,-0.766597,0.248293,-0.481178,-25.189834,-84.896467,31.877978
02447,353589,8.005815,-1.002571,1.871300,-0.099360,-0.115607,-0.055946,-0.765604,0.246284,-0.481279,-25.232464,-84.971177,31.860035
02448,353689,8.152190,-0.876806,1.806650,-0.103042,-0.088698,-0.055533,-0.767626,0.245745,-0.479806,-25.204437,-85.031831,31.769064
02449,353789,8.347030,-0.760766,1.666487,-0.102443,-0.059750,-0.061978,-0.769129,0.246243,-0.479281,-25.053946,-85.079019,31.555532
02450,353889,8.633197,-0.684795,1.518993,-0.102463,-0.053347,-0.069630,-0.768121,0.247247,-0.479729,-24.835243,-85.124664,31.273551
02451,353989,9.006016,-0.745712,1.383935,-0.100236,-0.073520,-0.073854,-0.771136,0.243261,-0.478934,-24.641490,-85.181730,31.017919
02452,354089,9.438471,-0.878181,1.409554,-0.093016,-0.119411,-0.078699,-0.771626,0.242296,-0.479485,-24.538867,-85.263799,30.857925
02453,354189,9.819283,-1.032905,1.515755,-0.065969,-0.172310,-0.082260,-0.772623,0.241814,-0.479511,-24.547783,-85.374270,30.825428
02454,354289,10.196874,-1.117382,1.580437,-0.024276,-0.229504,-0.080658,-0.774695,0.239162,-0.475640,-24.716000,-85.514145,30.976722
02455,354389,10.453241,-1.241984,1.543272,0.016807,-0.263194,-0.070003,-0.774668,0.238736,-0.477165,-25.050971,-85.668903,31.318860
02456,354489,10.503303,-1.449262,1.385968,0.069069,-0.285176,-0.049188,-0.776176,0.236245,-0.476792,-25.602441,-85.829730,31.908071
02457,354589,10.533306,-1.680759,1.276031,0.117687,-0.280995,-0.032327,-0.781720,0.236163,-0.473295,-26.279691,-85.983695,32.651220
02458,354689,10.833269,-1.878508,1.344998,0.174598,-0.207139,-0.029909,-0.782271,0.232563,-0.470974,-26.716439,-86.098638,33.185886
02459,354789,11.308532,-1.927688,1.708676,0.232160,-0.093471,-0.036835,-0.781262,0.234564,-0.471372,-26.653374,-86.157042,33.252626
02460,354889,11.903453,-1.691812,2.495051,0.274899,0.012222,-0.041175,-0.783693,0.231783,-0.475024,-26.127815,-86.162314,32.880396
02461,354989,12.650177,-1.261871,3.427306,0.298229,0.061580,-0.053974,-0.782731,0.228207,-0.473702,-25.307761,-86.144982,32.226420
02462,355089,13.461678,-0.729471,4.231422,0.301689,0.093618,-0.067429,-0.787689,0.225369,-0.475356,-24.276756,-86.113493,31.362985
02463,355189,14.111544,0.086904,4.506182,0.275517,0.127970,-0.085643,-0.786154,0.222476,-0.478007,-23.023086,-86.066989,30.261284
02464,355289,14.761733,1.016627,4.341023,0.232188,0.240834,-0.120002,-0.787603,0.221624,-0.480557,-21.220903,-85.965987,28.584730
02465,355389,15.080905,1.183681,3.631811,0.209138,0.411329,-0.161195,-0.785020,0.221327,-0.485579,-18.773383,-85.776974,26.247588
02466,355489,15.076492,1.054244,2.284000,0.193870,0.534197,-0.197341,-0.786937,0.217091,-0.490307,-16.032613,-85.519530,23.606875
02467,355589,14.525913,0.843926,0.672862,0.123092,0.572464,-0.214881,-0.785396,0.217188,-0.492805,-13.448757,-85.234418,21.081893
02468,355689,13.763486,0.456027,-0.729450,0.044518,0.473817,-0.240510,-0.784778,0.216995,-0.499328,-11.161592,-84.999305,18.808524
02469,355789,13.007268,0.048522,-2.178627,-0.031013,0.300475,-0.257174,-0.785212,0.216673,-0.502852,-9.194218,-84.856660,16.812088
02470,355889,11.050014,-0.526846,-3.370827,-0.058153,0.040483,-0.229422,-0.786220,0.215170,-0.502429,-7.737278,-84.853855,15.312310
02471,355989,9.881256,-0.377960,-3.485652,-0.066101,-0.289929,-0.179829,-0.785775,0.216512,-0.499354,-6.849987,-85.032507,14.380039
02472,356089,9.265264,0.245488,-2.787113,-0.076833,-0.505955,-0.140343,-0.790822,0.215925,-0.495882,-6.331913,-85.330517,13.812447
02473,356189,8.370854,0.758575,-1.972147,-0.051498,-0.641627,-0.123023,-0.791873,0.216792,-0.492833,-5.959141,-85.704388,13.405413
02474,356289,8.719669,1.664685,-0.824705,-0.069108,-0.659961,-0.145155,-0.794967,0.214582,-0.487437,-5.352539,-86.089691,12.753999
02475,356389,8.288567,1.717265,0.033027,-0.119643,-0.550756,-0.174144,-0.798558,0.213376,-0.481992,-4.294719,-86.413339,11.621623
02476,356489,7.895459,1.488282,0.784877,-0.217946,-0.440243,-0.194878,-0.797607,0.213738,-0.479467,-2.817898,-86.672819,10.013390
02477,356589,7.925434,0.780177,0.979976,-0.313897,-0.271794,-0.155950,-0.801658,0.213633,-0.475970,-1.510076,-86.832565,8.519689
02478,356689,8.137100,0.413251,0.591877,-0.368077,-0.087563,-0.086329,-0.799179,0.212075,-0.475545,-0.819976,-86.884453,7.613695
02479,356789,8.501149,0.290017,-0.158936,-0.427406,0.045485,-0.032708,-0.799191,0.210556,-0.475121,-0.696911,-86.859360,7.241546
02480,356889,8.680050,0.051340,-0.889038,-0.468014,0.069979,0.009128,-0.800177,0.211094,-0.475596,-1.030345,-86.819919,7.303276
02481,356989,8.678047,-0.273451,-1.328326,-0.497198,0.021330,0.052408,-0.801172,0.211608,-0.475571,-1.830893,-86.807703,7.816103
02482,357089,8.663789,-0.619081,-1.464159,-0.502453,-0.069801,0.090310,-0.798731,0.215410,-0.472368,-3.064336,-86.846236,8.759481
02483,357189,8.695304,-0.943403,-1.240643,-0.475192,-0.174223,0.128816,-0.801209,0.216968,-0.472793,-4.802058,-86.941593,10.223479
02484,357289,8.809338,-1.031972,-1.003791,-0.416616,-0.233197,0.153721,-0.800765,0.217812,-0.469743,-6.958670,-87.066369,12.140417
02485,357389,8.911897,-0.782478,-0.598306,-0.358037,-0.250696,0.161992,-0.802277,0.218286,-0.468718,-9.387118,-87.196299,14.362933
02486,357489,8.802421,-0.474683,-0.260394,-0.280872,-0.261631,0.155871,-0.805322,0.223147,-0.464967,-11.945921,-87.328082,16.759976
02487,357589,8.636494,-0.224905,0.099334,-0.215528,-0.270221,0.146090,-0.804910,0.221925,-0.460519,-14.623577,-87.460580,19.313217
02488,357689,8.708332,0.086318,0.367779,-0.172636,-0.277094,0.137015,-0.808500,0.221218,-0.455048,-17.467296,-87.592560,22.057009
02489,357789,8.823854,0.411994,0.536408,-0.138823,-0.262529,0.135319,-0.808956,0.224311,-0.456895,-20.510525,-87.710714,25.019607
02490,357889,8.814489,0.725268,0.613758,-0.129346,-0.226903,0.133750,-0.809960,0.224802,-0.456370,-23.628025,-87.803590,28.061730
02491,357989,8.692910,0.972798,0.656133,-0.133211,-0.198769,0.129282,-0.812504,0.226191,-0.453295,-26.750063,-87.876347,31.105988
02492,358089,8.555003,1.222107,0.771292,-0.151391,-0.169101,0.121936,-0.815546,0.227589,-0.450221,-29.754466,-87.929882,34.021957
02493,358189,8.519988,1.285334,0.851561,-0.181354,-0.135144,0.109117,-0.816532,0.228127,-0.450696,-32.453341,-87.965173,36.614915
02494,358289,8.337587,1.035278,0.757099,-0.210239,-0.120539,0.101130,-0.816089,0.228473,-0.447672,-35.011694,-87.991751,39.050630
02495,358389,8.199907,0.712713,0.633429,-0.237075,-0.136029,0.094072,-0.816579,0.228007,-0.448197,-37.711242,-88.023908,41.612181
02496,358489,8.152293,0.359621,0.566721,-0.246646,-0.158957,0.087819,-0.821095,0.230472,-0.446072,-40.668603,-88.064083,44.426143
02497,358589,8.166014,0.012628,0.456661,-0.237062,-0.179727,0.095701,-0.821139,0.231349,-0.443522,-44.081690,-88.104610,47.701512
02498,358689,8.191472,-0.143453,0.434201,-0.212287,-0.199977,0.100570,-0.824158,0.230327,-0.442075,-47.936472,-88.144172,51.432941
02499,358789,8.279037,-0.222642,0.466136,-0.179550,-0.200628,0.100084,-0.827693,0.229266,-0.439628,-51.923263,-88.175739,55.315141
02500,358889,8.374678,-0.269593,0.542949,-0.142530,-0.192514,0.101865,-0.825230,0.229154,-0.438127,-55.903252,-88.195000,59.211706
02501,358989,8.518306,-0.221866,0.668148,-0.097377,-0.185935,0.100750,-0.824732,0.229146,-0.438127,-59.808601,-88.204260,63.059449
02502,359089,8.713695,-0.149292,0.891116,-0.061936,-0.173895,0.100621,-0.828255,0.229603,-0.436104,-63.517610,-88.202256,66.731065
02503,359189,8.881218,0.005411,1.035038,-0.037515,-0.162112,0.098059,-0.829221,0.231186,-0.437527,-66.974028,-88.191566,70.163972
02504,359289,9.073008,0.162197,1.144806,-0.034807,-0.158248,0.098052,-0.831731,0.230679,-0.436554,-70.310682,-88.173692,73.478629
02505,359389,9.075681,0.380071,1.157887,-0.052872,-0.170612,0.102992,-0.831279,0.231049,-0.434029,-73.817257,-88.149065,76.952965
02506,359489,8.982643,0.543547,1.191242,-0.079586,-0.188499,0.102874,-0.833300,0.230510,-0.432556,-77.538977,-88.120063,80.627286
02507,359589,8.816521,0.609823,1.204507,-0.098047,-0.211047,0.105755,-0.833839,0.233387,-0.429904,-81.533379,-88.083802,84.563906
02508,359689,8.618500,0.539831,1.268558,-0.101597,-0.228883,0.110780,-0.836353,0.230887,-0.429033,-85.668845,-88.036667,88.639718
02509,359789,8.523854,0.333986,1.420233,-0.092969,-0.210889,0.120313,-0.835889,0.232776,-0.426932,-89.297505,-87.974396,92.213488
02510,359889,8.581749,0.026296,1.451309,-0.062691,-0.151750,0.130815,-0.840368,0.234840,-0.426831,-91.750990,-87.899924,94.628827
02511,359989,8.814430,-0.230385,1.279900,-0.023010,-0.090897,0.146658,-0.835934,0.233154,-0.424407,-93.083202,-87.815033,95.944985
02512,360089,9.153974,-0.411998,1.168202,0.009636,-0.031057,0.162545,-0.837412,0.232229,-0.425458,-93.420482,-87.722295,96.284259
02513,360189,9.469418,-0.513104,1.063454,0.040588,0.009770,0.172805,-0.836929,0.233668,-0.424382,-93.141724,-87.625019,96.024762
02514,360289,9.764261,-0.575904,1.052385,0.080902,0.017599,0.184720,-0.838433,0.233667,-0.423883,-92.749963,-87.521093,95.675268
02515,360389,10.269959,-0.567895,1.144968,0.128285,0.005730,0.195954,-0.838452,0.233619,-0.422883,-92.505597,-87.410344,95.500466
02516,360489,10.863202,-0.531214,1.149685,0.161438,0.007812,0.212932,-0.836902,0.233242,-0.425907,-92.226261,-87.289890,95.309658
02517,360589,11.402781,-0.417716,1.050404,0.142877,0.041139,0.237916,-0.837900,0.232261,-0.425958,-91.582975,-87.155696,94.743806
02518,360689,11.776546,-0.096815,0.900070,0.076997,0.105491,0.264367,-0.839422,0.232711,-0.424434,-90.320688,-87.006522,93.520277
02519,360789,12.093674,0.515194,0.740830,-0.043482,0.177270,0.287146,-0.835324,0.233435,-0.430405,-88.501857,-86.842249,91.670080
02520,360889,12.373263,1.063865,0.928126,-0.170031,0.239537,0.293969,-0.836801,0.237967,-0.430676,-86.327986,-86.669107,89.391315
02521,360989,12.850457,1.368362,1.362155,-0.243162,0.303234,0.294803,-0.834744,0.238104,-0.434175,-83.826496,-86.487245,86.741923
02522,361089,13.456135,1.079453,2.061892,-0.202432,0.389070,0.291861,-0.831704,0.240668,-0.436545,-80.804980,-86.293062,83.594290
02523,361189,14.305588,0.209925,2.593072,-0.049849,0.481260,0.292237,-0.829624,0.242846,-0.440941,-77.259260,-86.077562,80.008162
02524,361289,15.232881,-0.947424,2.780854,0.175585,0.561378,0.281670,-0.828073,0.243465,-0.443914,-73.340063,-85.841170,76.176148
02525,361389,15.833282,-2.456595,2.565730,0.390761,0.631731,0.291552,-0.825440,0.245281,-0.451334,-69.268562,-85.568222,72.313833
02526,361489,15.677353,-3.466273,1.221085,0.509215,0.627443,0.323052,-0.821389,0.245885,-0.454807,-65.722502,-85.260941,69.045263
02527,361589,15.692032,-3.949734,-0.621536,0.495403,0.551809,0.351531,-0.820758,0.247709,-0.461727,-63.128151,-84.944139,66.722524
02528,361689,15.257775,-3.583740,-3.013551,0.360929,0.399548,0.387503,-0.817173,0.250386,-0.466598,-61.822506,-84.642851,65.615398
02529,361789,13.777266,-2.660164,-4.716320,0.221088,0.191968,0.426527,-0.819672,0.256356,-0.465294,-61.889470,-84.376894,65.806229
02530,361889,11.383816,-1.508886,-4.977888,0.163957,-0.077164,0.407413,-0.817656,0.259362,-0.466140,-63.265623,-84.191458,67.279976
02531,361989,10.010664,-0.793377,-4.041030,0.165265,-0.341766,0.320622,-0.820714,0.262205,-0.461990,-65.673703,-84.111495,69.792147
02532,362089,9.032913,-0.532011,-3.083815,0.166211,-0.515597,0.224182,-0.819829,0.261901,-0.455992,-68.706754,-84.109045,72.933326
02533,362189,7.963344,-0.472548,-2.349310,0.151879,-0.604465,0.151572,-0.822362,0.264311,-0.453367,-72.081607,-84.144883,76.409753
02534,362289,7.097503,-0.501308,-1.612331,0.145135,-0.640947,0.087795,-0.827480,0.266022,-0.445770,-75.599591,-84.200204,80.025883
02535,362389,6.557146,-0.541280,-0.564745,0.172707,-0.525463,0.007713,-0.827509,0.264953,-0.444321,-78.423503,-84.264967,82.959909
02536,362489,6.169450,-0.783516,0.218885,0.253817,-0.280645,-0.055089,-0.828609,0.264205,-0.438849,-79.808139,-84.327691,84.493884
02537,362589,6.331688,-0.962330,0.585131,0.337803,0.004197,-0.098910,-0.831126,0.259215,-0.438104,-79.496530,-84.384360,84.371557
02538,362689,6.938204,-0.845887,0.735079,0.346729,0.208171,-0.134458,-0.831069,0.260356,-0.441052,-77.957242,-84.437957,83.020844
02539,362789,7.949204,-0.888030,0.690788,0.310230,0.312751,-0.152204,-0.830553,0.254940,-0.442831,-75.783949,-84.483557,81.012261
02540,362889,8.853033,-0.798308,0.434454,0.280245,0.351903,-0.159522,-0.827038,0.254956,-0.444330,-73.359273,-84.519417,78.734013
02541,362989,9.453371,-0.530600,-0.067715,0.285834,0.317395,-0.152814,-0.825985,0.250127,-0.448082,-71.113497,-84.548726,76.638818
02542,363089,9.820573,-0.188422,-0.625677,0.317064,0.219921,-0.142564,-0.827961,0.249210,-0.449133,-69.401487,-84.584469,75.097871
02543,363189,10.016099,0.201048,-0.780054,0.345644,0.138632,-0.143138,-0.827450,0.246261,-0.450285,-68.110360,-84.633569,73.996213
02544,363289,9.929332,0.462905,-0.722313,0.342515,0.128791,-0.161130,-0.825913,0.243867,-0.452910,-66.811775,-84.692013,72.885336
02545,363389,9.511367,0.454369,-0.606326,0.286284,0.168725,-0.177632,-0.824442,0.241303,-0.452037,-65.250214,-84.747217,71.478086
02546,363489,8.964472,0.315150,-0.488328,0.186114,0.181058,-0.188885,-0.824902,0.236449,-0.454790,-63.614864,-84.801564,69.939212
02547,363589,8.608746,0.203914,-0.128248,0.084553,0.164721,-0.195045,-0.825919,0.235421,-0.453842,-62.079199,-84.859432,68.442124
02548,363689,8.537495,-0.051152,0.401228,0.001616,0.146850,-0.188151,-0.825422,0.234915,-0.453867,-60.679900,-84.915267,67.034363
02549,363789,8.522875,-0.404354,0.878647,-0.058844,0.127659,-0.171729,-0.823446,0.235831,-0.452816,-59.446979,-84.965538,65.758968
02550,363889,8.578075,-0.818119,1.071445,-0.123097,0.110283,-0.150898,-0.826358,0.232110,-0.457519,-58.395263,-85.008469,64.628618
02551,363989,8.584242,-1.237288,1.155437,-0.174021,0.096265,-0.131636,-0.826886,0.236007,-0.455316,-57.501046,-85.044617,63.627159
02552,364089,8.571871,-1.549928,1.212813,-0.199793,0.099509,-0.118515,-0.822379,0.234015,-0.456916,-56.638093,-85.072098,62.642328
02553,364189,8.529967,-1.629491,1.177373,-0.200701,0.120766,-0.109643,-0.824874,0.236522,-0.456290,-55.681844,-85.087213,61.563389
02554,364289,8.399981,-1.495435,1.049904,-0.188352,0.135423,-0.104173,-0.821955,0.233815,-0.452917,-54.653917,-85.093345,60.419647
02555,364389,8.381071,-1.259577,0.911867,-0.181341,0.131832,-0.103889,-0.824350,0.235590,-0.457840,-53.640095,-85.098798,59.294120
02556,364489,8.472930,-0.930750,0.808840,-0.185232,0.110832,-0.101776,-0.824409,0.233951,-0.454917,-52.746751,-85.108885,58.287297
02557,364589,8.486336,-0.672717,0.777490,-0.183597,0.079250,-0.113821,-0.825881,0.236016,-0.455816,-51.965675,-85.134229,57.394120
02558,364689,8.471729,-0.551409,0.877153,-0.174214,0.037130,-0.128045,-0.825400,0.236457,-0.454791,-51.332713,-85.179998,56.655031
02559,364789,8.595625,-0.558346,1.082318,-0.155216,0.014140,-0.147288,-0.824892,0.236972,-0.455265,-50.714039,-85.241937,55.941264
02560,364889,8.664436,-0.642967,1.257114,-0.134903,0.008806,-0.164880,-0.826946,0.233371,-0.452445,-50.015732,-85.312896,55.159342
02561,364989,8.627081,-0.828415,1.380281,-0.122799,0.010577,-0.177728,-0.827939,0.235380,-0.452343,-49.218703,-85.387954,54.285420
02562,365089,8.550746,-1.102617,1.499688,-0.114647,0.006742,-0.183737,-0.824475,0.232785,-0.451469,-48.381376,-85.466024,53.375865
02563,365189,8.422079,-1.325057,1.625852,-0.106360,-0.005475,-0.176573,-0.826431,0.232913,-0.453469,-47.610705,-85.544693,52.538050
02564,365289,8.241327,-1.511681,1.709279,-0.094287,-0.030192,-0.161919,-0.826519,0.230206,-0.449098,-47.014425,-85.625990,51.882196
02565,365389,8.105785,-1.628144,1.695112,-0.087857,-0.058111,-0.144850,-0.828547,0.231137,-0.447049,-46.635166,-85.710656,51.447776
02566,365489,8.043955,-1.624419,1.615491,-0.068723,-0.068436,-0.127313,-0.827547,0.228156,-0.447701,-46.381064,-85.791908,51.149923
02567,365589,8.152668,-1.520716,1.600487,-0.048266,-0.070499,-0.111884,-0.828048,0.231628,-0.447023,-46.200942,-85.867491,50.938051
02568,365689,8.373910,-1.374989,1.583955,-0.037820,-0.061750,-0.104574,-0.831537,0.230188,-0.447100,-45.997710,-85.936519,50.709047
02569,365789,8.754195,-1.220509,1.586029,-0.033134,-0.061760,-0.101286,-0.831575,0.230092,-0.445101,-45.803189,-86.004132,50.491502
02570,365889,9.146517,-1.045279,1.687819,-0.038926,-0.061873,-0.101471,-0.834120,0.230485,-0.442078,-45.604495,-86.071806,50.266477
02571,365989,9.530119,-0.945632,1.792887,-0.047117,-0.063679,-0.100225,-0.830636,0.228935,-0.442153,-45.421429,-86.139635,50.052440
02572,366089,9.798230,-0.907126,1.788682,-0.030947,-0.066221,-0.110971,-0.833166,0.227882,-0.440205,-45.171962,-86.212803,49.781164
02573,366189,10.013891,-0.974143,1.507635,0.017369,-0.077747,-0.132386,-0.837147,0.224482,-0.440884,-44.821935,-86.299215,49.436890
02574,366289,10.142943,-1.244560,1.214832,0.096620,-0.102426,-0.150543,-0.838654,0.222986,-0.440461,-44.448720,-86.402847,49.114934
02575,366389,10.266378,-1.586853,0.917730,0.213087,-0.136239,-0.160207,-0.839713,0.223830,-0.436912,-44.143512,-86.524081,48.928033
02576,366489,10.536454,-2.024991,0.772847,0.325937,-0.153700,-0.161091,-0.840741,0.221781,-0.435514,-43.867126,-86.652793,48.834835
02577,366589,11.146764,-2.473279,0.983972,0.406678,-0.117957,-0.139541,-0.842779,0.217232,-0.433744,-43.437227,-86.758114,48.634260
02578,366689,12.054072,-2.256829,1.766506,0.409457,-0.020179,-0.117299,-0.844777,0.214274,-0.433897,-42.464250,-86.813582,47.891397
02579,366789,12.878850,-1.895302,2.988566,0.350408,0.093552,-0.108056,-0.844768,0.213800,-0.434423,-40.788817,-86.815828,46.411156
02580,366889,13.820308,-1.427465,4.202149,0.282434,0.184419,-0.099251,-0.847219,0.215431,-0.436346,-38.636607,-86.772026,44.414370
02581,366989,14.692545,-0.746773,5.026483,0.239224,0.244422,-0.094830,-0.847222,0.213438,-0.436448,-36.246746,-86.694969,42.154633
02582,367089,15.487138,0.233235,5.010404,0.258563,0.359541,-0.099767,-0.848164,0.212602,-0.439498,-33.301990,-86.559398,39.349879
02583,367189,15.843905,0.874278,3.854508,0.296430,0.495925,-0.121254,-0.847560,0.214852,-0.444894,-29.768172,-86.354503,35.976143
02584,367289,16.095463,0.880569,2.176413,0.322355,0.566327,-0.162401,-0.849456,0.212159,-0.450545,-26.020381,-86.112135,32.401985
02585,367389,15.712271,0.312010,0.442176,0.331256,0.547562,-0.194720,-0.847391,0.210825,-0.454619,-22.529560,-85.872870,29.089499
02586,367489,14.396241,-0.378274,-1.286728,0.292948,0.396650,-0.229748,-0.848331,0.211483,-0.457593,-19.574947,-85.708941,26.291813
02587,367589,13.426849,-0.774340,-2.262588,0.180078,0.237565,-0.252969,-0.849292,0.210599,-0.459643,-17.082480,-85.626200,23.892293
02588,367689,11.354739,-1.119126,-2.948963,0.098979,0.095192,-0.210951,-0.850282,0.213604,-0.459491,-15.304694,-85.608424,22.162798
02589,367789,9.682415,-1.042690,-3.082187,0.046745,-0.129530,-0.151584,-0.850776,0.216104,-0.459364,-14.415124,-85.703331,21.294165
02590,367889,8.761809,-0.552939,-2.787944,0.022971,-0.304413,-0.069464,-0.855842,0.215468,-0.454893,-14.460584,-85.883074,21.349587
02591,367989,8.324113,0.496767,-2.224480,0.087428,-0.420655,-0.035632,-0.856908,0.217782,-0.450768,-14.995601,-86.122302,21.932746
02592,368089,8.478843,1.565580,-1.261928,0.168594,-0.367306,-0.035651,-0.861415,0.220272,-0.449143,-15.427388,-86.331701,22.458862
02593,368189,7.602651,2.032512,-0.500528,0.269414,-0.312256,-0.074128,-0.862445,0.222184,-0.447042,-15.366806,-86.516439,22.549362
02594,368289,7.398125,2.171142,0.219741,0.223234,-0.289457,-0.097382,-0.865508,0.222039,-0.443045,-15.052466,-86.692093,22.359084
02595,368389,7.887028,1.850607,0.593250,0.058824,-0.215677,-0.088221,-0.866580,0.221364,-0.439072,-14.702830,-86.825478,22.039088
02596,368489,8.499953,1.396204,0.194435,-0.107685,-0.113063,-0.059176,-0.867606,0.220311,-0.437623,-14.448920,-86.897683,21.719416
02597,368589,9.035973,1.227311,-0.544593,-0.235638,-0.025588,-0.028761,-0.866653,0.221670,-0.435048,-14.340960,-86.916963,21.472471
02598,368689,9.437158,0.874935,-1.077091,-0.324176,0.006500,-0.003471,-0.867102,0.223293,-0.437471,-14.458585,-86.914845,21.400616
02599,368789,9.676107,0.290309,-1.134438,-0.386505,0.017465,0.044272,-0.869143,0.227166,-0.434269,-15.071807,-86.899716,21.789308
02600,368889,9.740385,-0.315449,-1.141422,-0.443544,0.005505,0.101832,-0.870605,0.229753,-0.435642,-16.329808,-86.881928,22.791010
02601,368989,9.693906,-0.808876,-1.143692,-0.488426,-0.036461,0.157690,-0.869688,0.232510,-0.430991,-18.292010,-86.876061,24.472229
02602,369089,9.441964,-1.128072,-1.049741,-0.507642,-0.100460,0.188094,-0.867703,0.238409,-0.429686,-20.790879,-86.895375,26.679894
02603,369189,9.117628,-1.262454,-0.809658,-0.474300,-0.167279,0.195435,-0.866701,0.241880,-0.429508,-23.650643,-86.942924,29.268060
02604,369289,8.935555,-1.110451,-0.541092,-0.401209,-0.234647,0.185148,-0.868818,0.245062,-0.422334,-26.776758,-87.020593,32.164751
02605,369389,8.832706,-0.744208,-0.218972,-0.272306,-0.250530,0.165265,-0.869845,0.248470,-0.420157,-29.874729,-87.103288,35.107015
02606,369489,8.681000,-0.381846,0.036615,-0.142226,-0.255541,0.143349,-0.874311,0.252551,-0.420455,-32.882906,-87.186824,38.033784
02607,369589,8.572464,-0.046553,0.256392,-0.057505,-0.250934,0.129561,-0.874365,0.253901,-0.417380,-35.848182,-87.264932,40.965992
02608,369689,8.388955,0.394675,0.516384,-0.029543,-0.242871,0.124434,-0.876450,0.259148,-0.411603,-38.850207,-87.333658,43.950836
02609,369789,8.224612,0.817079,0.761514,-0.058701,-0.225499,0.117291,-0.878976,0.260087,-0.409554,-41.805301,-87.390045,46.871800
02610,369889,8.068924,1.139489,0.882964,-0.123787,-0.201516,0.102004,-0.879539,0.260425,-0.406030,-44.563895,-87.435636,49.558584
02611,369989,7.913580,1.219860,1.016423,-0.202331,-0.158486,0.083677,-0.877540,0.263881,-0.405852,-46.888676,-87.466112,51.765967
02612,370089,7.881372,0.998459,1.000211,-0.259846,-0.115367,0.070024,-0.880052,0.267336,-0.404175,-48.756062,-87.482188,53.482459
02613,370189,7.924386,0.615506,0.866412,-0.298768,-0.082305,0.068403,-0.882549,0.268846,-0.403600,-50.320283,-87.484408,54.873140
02614,370289,8.003416,0.319724,0.744204,-0.321743,-0.060973,0.071486,-0.882062,0.273274,-0.402372,-51.706001,-87.475994,56.071961
02615,370389,8.005979,0.102181,0.522202,-0.312544,-0.046530,0.078269,-0.881636,0.274568,-0.398297,-52.980990,-87.458227,57.165225
02616,370489,7.957158,-0.119296,0.312197,-0.274308,-0.048702,0.083667,-0.882120,0.277091,-0.398670,-54.280226,-87.437627,58.304704
02617,370589,7.904037,-0.250922,0.181928,-0.220990,-0.080607,0.091634,-0.883098,0.282114,-0.398916,-55.921075,-87.422446,59.816737
02618,370689,7.897009,-0.290749,0.317523,-0.154107,-0.128197,0.091944,-0.885130,0.281052,-0.396968,-58.016334,-87.419777,61.822011
02619,370789,8.007632,-0.395487,0.553623,-0.081392,-0.196897,0.095947,-0.884655,0.283463,-0.395341,-60.848811,-87.431276,64.606950
02620,370889,8.097182,-0.289912,0.833222,-0.007289,-0.265427,0.084821,-0.884693,0.288325,-0.392588,-64.386443,-87.459535,68.140201
02621,370989,8.320158,-0.236467,1.060773,0.055274,-0.316780,0.062207,-0.888753,0.287698,-0.388617,-68.467052,-87.500924,72.252738
02622,371089,8.576518,-0.233380,1.229884,0.119087,-0.335428,0.050109,-0.891303,0.291056,-0.384941,-72.815621,-87.538999,76.669956
02623,371189,8.742858,-0.043090,1.319315,0.158292,-0.325574,0.047969,-0.890335,0.290470,-0.383466,-77.116273,-87.562266,81.061588
02624,371289,8.731858,0.350736,1.396494,0.184098,-0.292194,0.034712,-0.891342,0.294922,-0.382238,-80.986466,-87.575927,85.037098
02625,371389,8.622236,0.478738,1.436903,0.173237,-0.240209,0.025160,-0.893862,0.294391,-0.380765,-84.174691,-87.580767,88.323758
02626,371489,8.500687,0.518797,1.460642,0.147337,-0.193089,0.034715,-0.895318,0.295009,-0.382740,-86.750064,-87.571030,90.982152
02627,371589,8.511418,0.481098,1.572830,0.117480,-0.137338,0.047692,-0.896883,0.296833,-0.378640,-88.571948,-87.548264,92.869264
02628,371689,8.674230,0.205885,1.480320,0.105969,-0.063640,0.064185,-0.898413,0.297757,-0.376590,-89.390286,-87.513461,93.745327
02629,371789,9.002251,-0.142122,1.242252,0.092560,-0.021131,0.084693,-0.897377,0.299332,-0.378513,-89.641070,-87.466356,94.045623
02630,371889,9.358486,-0.320827,1.096339,0.082759,-0.011954,0.107509,-0.898379,0.301316,-0.377912,-89.771588,-87.406108,94.219925
02631,371989,9.672253,-0.330419,1.062945,0.090488,-0.018513,0.115825,-0.899408,0.303727,-0.375786,-89.971747,-87.341082,94.468382
02632,372089,10.022780,-0.348853,1.039161,0.126165,-0.021908,0.119876,-0.900380,0.306781,-0.376634,-90.181568,-87.273694,94.746988
02633,372189,10.522696,-0.351831,1.035295,0.159023,-0.010734,0.122646,-0.901371,0.309786,-0.376482,-90.229517,-87.204715,94.882397
02634,372289,11.043757,-0.318150,0.997283,0.173325,0.016704,0.129592,-0.900798,0.310469,-0.380455,-89.950614,-87.131795,94.698764
02635,372389,11.542068,-0.127692,0.958699,0.136354,0.055044,0.138042,-0.902310,0.310942,-0.379430,-89.277563,-87.053818,94.099245
02636,372489,12.128988,0.119047,0.910293,0.034724,0.093216,0.164777,-0.901792,0.311481,-0.380404,-88.289593,-86.959636,93.126006
02637,372589,12.633257,0.795572,1.032822,-0.114109,0.140306,0.190699,-0.901807,0.318882,-0.378524,-86.967261,-86.848503,91.732391
02638,372689,13.123337,1.261488,1.474954,-0.246678,0.223457,0.207153,-0.900742,0.321028,-0.381920,-84.994994,-86.722518,89.611540
02639,372789,13.740725,1.355516,2.257561,-0.295998,0.346663,0.216763,-0.900172,0.325174,-0.385215,-82.042619,-86.578091,86.480264
02640,372889,14.384830,1.176323,3.108394,-0.240383,0.507036,0.209849,-0.896053,0.327441,-0.392110,-77.861038,-86.410386,82.148855
02641,372989,15.371642,0.311969,3.514106,-0.102584,0.682754,0.199353,-0.895960,0.332640,-0.396354,-72.518411,-86.201252,76.732192
02642,373089,16.260214,-1.200731,3.213622,0.068265,0.847219,0.192894,-0.893802,0.337004,-0.404647,-66.434208,-85.928700,70.668833
02643,373189,15.927078,-2.699083,1.986998,0.168121,0.929271,0.223229,-0.889619,0.338941,-0.415065,-60.683406,-85.578158,64.994862
02644,373289,15.056960,-3.396158,0.642777,0.163431,0.941079,0.260962,-0.887467,0.345273,-0.422757,-55.891600,-85.168628,60.277465
02645,373389,14.657746,-3.234263,-0.561480,0.136556,0.924659,0.289875,-0.882789,0.350666,-0.432497,-52.071010,-84.723918,56.516687
02646,373489,14.023279,-3.145520,-2.146012,0.079172,0.815042,0.328744,-0.881202,0.355841,-0.436741,-49.502071,-84.284017,53.977667
02647,373589,12.737421,-2.096092,-3.530507,0.032062,0.580482,0.328448,-0.879542,0.360213,-0.445034,-48.255466,-83.924874,52.739124
02648,373689,11.068237,-0.940034,-4.066042,0.049840,0.266789,0.281195,-0.875457,0.364377,-0.449828,-48.165884,-83.704272,52.673961
02649,373789,9.983588,-0.396666,-3.642364,0.119418,-0.026048,0.197454,-0.877977,0.368804,-0.447601,-48.873772,-83.630810,53.451245
02650,373889,8.858288,-0.322708,-3.157445,0.205528,-0.242571,0.112238,-0.878450,0.372347,-0.448422,-50.082055,-83.673667,54.781667
02651,373989,8.130948,-0.315031,-2.567175,0.231621,-0.355700,0.053852,-0.879498,0.374710,-0.445297,-51.565063,-83.779960,56.403310
02652,374089,7.676996,-0.411078,-1.821078,0.179928,-0.328331,0.013158,-0.882082,0.374509,-0.440300,-52.882975,-83.890720,57.828769
02653,374189,6.737105,-0.929698,-1.206213,0.158810,-0.230651,-0.014250,-0.883565,0.375553,-0.440749,-53.745307,-83.977702,58.783662
02654,374289,6.288960,-1.343078,-0.773130,0.159106,-0.131739,-0.021778,-0.883104,0.375448,-0.438750,-54.167664,-84.033682,59.296228
02655,374389,6.585107,-1.529359,-0.502649,0.179076,-0.030643,-0.010617,-0.881590,0.375971,-0.439723,-54.169713,-84.050363,59.397699
02656,374489,7.090252,-1.517504,-0.241022,0.221729,0.028235,0.000625,-0.884550,0.376589,-0.441198,-53.921584,-84.042038,59.272229
02657,374589,7.825695,-1.443077,0.081806,0.291093,0.040129,-0.002046,-0.883582,0.371045,-0.440478,-53.573148,-84.030844,59.085883
02658,374689,8.757216,-1.131916,0.447819,0.360132,0.053410,-0.017920,-0.883022,0.374669,-0.443299,-53.076055,-84.022253,58.789849
02659,374789,9.617260,-0.637516,0.747277,0.408561,0.104985,-0.037172,-0.882040,0.371640,-0.442951,-52.264972,-84.004164,58.205992
02660,374889,10.186886,-0.081896,0.589316,0.456188,0.190675,-0.057933,-0.883455,0.369389,-0.447577,-50.997265,-83.963828,57.190376
02661,374989,10.324038,0.397072,0.251027,0.471703,0.274936,-0.087845,-0.882389,0.367074,-0.451702,-49.287212,-83.902965,55.738739
02662,375089,9.986857,0.802901,-0.037604,0.461437,0.341999,-0.132952,-0.878304,0.365782,-0.457275,-47.191368,-83.830740,53.892958
02663,375189,9.474766,0.898218,-0.030968,0.404950,0.377379,-0.191375,-0.879297,0.362334,-0.457953,-44.828115,-83.760916,51.745354
02664,375289,8.924319,0.765965,0.043719,0.309328,0.374353,-0.243897,-0.880674,0.360678,-0.464552,-42.382412,-83.703441,49.459396
02665,375389,8.626988,0.503944,0.254631,0.187208,0.341820,-0.274986,-0.877625,0.358308,-0.468177,-40.038208,-83.661360,47.204916
02666,375489,8.414881,0.075270,0.608926,0.075723,0.295073,-0.276080,-0.877609,0.356363,-0.469278,-37.934053,-83.630905,45.127527
02667,375589,8.240437,-0.323500,0.959827,-0.014374,0.234660,-0.250851,-0.876585,0.356420,-0.470777,-36.189748,-83.611661,43.360184
02668,375689,8.181717,-0.602175,1.192396,-0.070385,0.144776,-0.213160,-0.874086,0.356404,-0.471276,-34.909235,-83.616585,42.027218
02669,375789,8.311882,-0.857936,1.331466,-0.107209,0.063184,-0.175520,-0.875033,0.357537,-0.473725,-34.042105,-83.645055,41.089027
02670,375889,8.394269,-1.073360,1.456672,-0.132542,0.008631,-0.154095,-0.874531,0.354563,-0.474377,-33.429184,-83.691346,40.392089
02671,375989,8.386055,-1.248795,1.544099,-0.154511,0.000158,-0.133088,-0.873067,0.353471,-0.472928,-32.935467,-83.734357,39.802495
02672,376089,8.271877,-1.218360,1.509198,-0.169274,0.011490,-0.117388,-0.872117,0.353335,-0.470429,-32.480556,-83.766499,39.243494
02673,376189,8.265672,-1.114725,1.455572,-0.183671,0.028783,-0.097980,-0.874536,0.357030,-0.473750,-32.067189,-83.783855,38.718030
02674,376289,8.309312,-0.781120,1.337604,-0.199420,0.038691,-0.093753,-0.877015,0.358589,-0.474174,-31.651895,-83.794693,38.181576
02675,376389,8.253024,-0.537929,1.240043,-0.208727,0.042635,-0.101464,-0.872534,0.357521,-0.474224,-31.194700,-83.805460,37.597627
02676,376489,8.134099,-0.374420,1.248985,-0.204900,0.030443,-0.123889,-0.874513,0.359570,-0.474623,-30.664278,-83.828276,36.942248
02677,376589,8.203230,-0.274592,1.257681,-0.188108,0.009110,-0.150924,-0.875547,0.358991,-0.472649,-30.052051,-83.868761,36.214304
02678,376689,8.295544,-0.415289,1.303967,-0.162052,-0.009001,-0.177679,-0.875030,0.359530,-0.473624,-29.338314,-83.924945,35.399355
02679,376789,8.318072,-0.689224,1.332525,-0.141627,-0.043429,-0.187883,-0.875546,0.359489,-0.472624,-28.639559,-84.000141,34.611348
02680,376889,8.250705,-1.015975,1.462670,-0.131369,-0.088188,-0.180226,-0.876068,0.356958,-0.471752,-28.069617,-84.094891,33.958901
02681,376989,8.222662,-1.268301,1.647511,-0.120458,-0.138486,-0.153596,-0.875124,0.358791,-0.468651,-27.737950,-84.207423,33.552405
02682,377089,8.126478,-1.402726,1.859753,-0.104899,-0.185969,-0.119402,-0.876139,0.358758,-0.467651,-27.684140,-84.334777,33.434235
02683,377189,8.135118,-1.427784,2.068147,-0.083837,-0.223815,-0.087431,-0.877679,0.359160,-0.465127,-27.885765,-84.472778,33.584901
02684,377289,8.279758,-1.362760,2.211134,-0.070274,-0.222041,-0.060133,-0.877712,0.361056,-0.463027,-28.229582,-84.602440,33.886206
02685,377389,8.470013,-1.210935,2.238859,-0.065378,-0.179379,-0.039966,-0.877236,0.359007,-0.462128,-28.569831,-84.704919,34.186709
02686,377489,8.709091,-1.000381,2.128321,-0.075189,-0.121964,-0.029615,-0.880747,0.361482,-0.460503,-28.811277,-84.775538,34.382319
02687,377589,8.927825,-0.720894,1.980500,-0.087332,-0.079900,-0.030747,-0.876784,0.359377,-0.459604,-28.930254,-84.825299,34.447956
02688,377689,9.110079,-0.544578,1.818401,-0.107146,-0.064238,-0.047057,-0.878242,0.358999,-0.461629,-28.922843,-84.871715,34.375294
02689,377789,9.318256,-0.536617,1.731329,-0.104757,-0.071513,-0.073052,-0.877279,0.361378,-0.459502,-28.789027,-84.928955,34.177107
02690,377889,9.590805,-0.711340,1.609061,-0.077959,-0.119549,-0.100610,-0.879835,0.361249,-0.456004,-28.628165,-85.017869,33.967213
02691,377989,9.915452,-1.053680,1.537684,-0.038857,-0.203575,-0.119552,-0.878813,0.359811,-0.457580,-28.595723,-85.154206,33.908751
02692,378089,10.377379,-1.409279,1.520043,-0.003909,-0.286041,-0.124916,-0.880875,0.357183,-0.454209,-28.783867,-85.333465,34.091768
02693,378189,10.529511,-1.826359,1.443373,0.044418,-0.339082,-0.115913,-0.879418,0.357063,-0.452209,-29.205108,-85.536715,34.536383
02694,378289,10.651613,-2.165242,1.325752,0.102400,-0.336949,-0.100172,-0.882487,0.353928,-0.448364,-29.730766,-85.734153,35.118957
02695,378389,10.908306,-2.313049,1.367416,0.149758,-0.252576,-0.089300,-0.882519,0.351365,-0.446992,-30.017982,-85.886237,35.489570
02696,378489,11.474662,-2.104724,1.764861,0.181965,-0.114131,-0.088523,-0.888010,0.349933,-0.446570,-29.748272,-85.969305,35.320331
02697,378589,12.128339,-1.529634,2.702796,0.206735,0.023458,-0.096886,-0.883524,0.346398,-0.447246,-28.842228,-85.985824,34.527448
02698,378689,12.507167,-1.044240,3.692294,0.234920,0.068429,-0.101101,-0.886059,0.347314,-0.444697,-27.710760,-85.979783,33.524793
