PacketCounter,SampleTimeFine,Acc_X,Acc_Y,Acc_Z,Gyr_X,Gyr_Y,Gyr_Z,Mag_X,Mag_Y,Mag_Z,Roll,Pitch,Yaw
01006,168318,9.435490,-0.108502,2.423402,-0.048847,0.054306,-0.010056,-0.386708,0.047973,-0.419317,-4.106845,-75.929437,3.984030
01007,168418,9.526036,-0.163617,2.428190,-0.048166,0.057717,-0.008477,-0.387701,0.044525,-0.419995,-4.103073,-75.897925,3.951821
01008,168518,9.568315,-0.195548,2.381285,-0.032656,0.088902,-0.008051,-0.387728,0.050407,-0.417691,-4.086451,-75.848571,3.915513
01009,168618,9.551288,-0.179770,2.338082,-0.015144,0.122468,-0.006760,-0.386719,0.046952,-0.418868,-4.057545,-75.779980,3.876878
01010,168718,9.528743,-0.141060,2.312492,-0.004899,0.141908,-0.004943,-0.387658,0.048109,-0.421816,-4.024118,-75.700204,3.839622
01011,168818,9.454900,-0.104460,2.226463,-0.008265,0.124091,-0.004916,-0.385705,0.046486,-0.419893,-3.995828,-75.630618,3.805668
01012,168918,9.436123,-0.110720,2.204449,-0.013287,0.081019,-0.005024,-0.387181,0.046558,-0.420893,-3.977100,-75.585665,3.778607
01013,169018,9.515213,-0.110311,2.336201,-0.011405,0.043031,-0.002154,-0.385176,0.048045,-0.421316,-3.969630,-75.562316,3.764279
01014,169118,9.574570,-0.085443,2.459052,-0.008145,0.024160,-0.002101,-0.385663,0.049572,-0.421739,-3.963321,-75.549747,3.753080
01015,169218,9.569750,-0.068339,2.514901,-0.009660,0.028761,-0.004613,-0.386203,0.046494,-0.419893,-3.951595,-75.534641,3.735392
01016,169318,9.547293,-0.088847,2.474821,-0.015681,0.045225,-0.010056,-0.387219,0.045964,-0.418919,-3.928782,-75.510333,3.702689
01017,169418,9.504648,-0.095726,2.394769,-0.019437,0.068110,-0.012146,-0.383678,0.050014,-0.421214,-3.900144,-75.473023,3.661742
01018,169518,9.449807,-0.033471,2.310169,-0.021982,0.078916,-0.007834,-0.384695,0.048986,-0.420265,-3.880982,-75.429372,3.629074
01019,169618,9.451559,0.024281,2.263112,-0.017404,0.076163,-0.005509,-0.384676,0.049532,-0.421239,-3.864810,-75.387216,3.602204
01020,169718,9.433190,0.046850,2.292244,-0.019528,0.055341,-0.000962,-0.383704,0.051437,-0.419638,-3.862931,-75.356796,3.588846
01021,169818,9.429924,0.020335,2.307010,-0.022934,0.020313,0.000505,-0.384648,0.049604,-0.422739,-3.871349,-75.346353,3.584117
01022,169918,9.463145,-0.092236,2.415761,-0.028115,-0.014040,0.002104,-0.384690,0.051975,-0.420113,-3.891307,-75.355488,3.588247
01023,170018,9.502639,-0.196012,2.540921,-0.026185,-0.020567,-0.002073,-0.384125,0.053132,-0.423560,-3.902018,-75.368507,3.583961
01024,170118,9.514882,-0.197249,2.581337,-0.021075,-0.002393,-0.006486,-0.383156,0.053044,-0.422061,-3.897439,-75.371298,3.566899
01025,170218,9.463083,-0.055043,2.542688,-0.009473,0.009545,-0.006751,-0.382656,0.054033,-0.422010,-3.883823,-75.367266,3.547368
01026,170318,9.451422,0.075318,2.445861,-0.004605,0.013757,-0.003617,-0.383136,0.054089,-0.423009,-3.873593,-75.360702,3.534222
01027,170418,9.488205,0.090998,2.364622,-0.002889,0.011760,-0.001223,-0.382635,0.055576,-0.422933,-3.867850,-75.355194,3.526734
01028,170518,9.552385,-0.008049,2.391720,-0.016219,0.005377,0.000106,-0.382585,0.052731,-0.426084,-3.873554,-75.353288,3.523187
01029,170618,9.562846,-0.189070,2.468505,-0.031130,0.004903,-0.003210,-0.382635,0.055576,-0.422933,-3.880639,-75.351782,3.512234
01030,170718,9.544979,-0.349700,2.548871,-0.044930,0.011581,-0.008394,-0.382598,0.055672,-0.424932,-3.883369,-75.346650,3.488604
01031,170818,9.516532,-0.374713,2.555948,-0.050256,0.018887,-0.008560,-0.381083,0.056693,-0.425881,-3.887785,-75.337338,3.463558
01032,170918,9.464707,-0.269801,2.523962,-0.042240,0.025829,-0.008598,-0.382089,0.056684,-0.425381,-3.886552,-75.324052,3.437417
01033,171018,9.444490,-0.081970,2.489124,-0.027931,0.019653,-0.006320,-0.380103,0.058123,-0.424805,-3.883011,-75.314202,3.417362
01034,171118,9.472611,-0.018422,2.519096,-0.015201,0.008347,-0.004453,-0.380090,0.055182,-0.425956,-3.877884,-75.310737,3.403215
01035,171218,9.516600,-0.069518,2.561785,-0.002926,0.006303,-0.002019,-0.381598,0.057649,-0.424830,-3.871322,-75.308339,3.394850
01036,171318,9.587806,-0.233477,2.603068,0.002734,0.010410,-0.008098,-0.380094,0.058147,-0.425304,-3.847688,-75.303816,3.372189
01037,171418,9.595619,-0.359023,2.539367,-0.000323,0.033445,-0.013129,-0.383034,0.059312,-0.427754,-3.811582,-75.286307,3.334818
01038,171518,9.518723,-0.363254,2.478202,-0.003780,0.051518,-0.015774,-0.378560,0.059217,-0.427252,-3.769276,-75.258556,3.288981
01039,171618,9.479844,-0.282728,2.385071,-0.006073,0.058465,-0.016121,-0.379564,0.060205,-0.426702,-3.726764,-75.226845,3.241562
01040,171718,9.415507,-0.124080,2.356532,-0.011036,0.048951,-0.006656,-0.380055,0.059240,-0.427253,-3.709086,-75.200222,3.216884
01041,171818,9.411894,0.014258,2.364201,-0.023532,0.031389,-0.000228,-0.377557,0.058228,-0.427803,-3.714935,-75.183407,3.209138
01042,171918,9.433312,0.118431,2.444408,-0.037198,0.013631,0.000680,-0.378550,0.059739,-0.427727,-3.732993,-75.176715,3.205920
01043,172018,9.476392,0.061971,2.472060,-0.042137,0.005483,0.002969,-0.380579,0.060172,-0.425703,-3.759901,-75.174599,3.208933
01044,172118,9.495947,-0.062568,2.529865,-0.039949,0.005780,0.004446,-0.380518,0.062808,-0.428575,-3.788679,-75.172248,3.215177
01045,172218,9.500256,-0.169541,2.569545,-0.028375,0.007929,0.003285,-0.380575,0.062165,-0.425601,-3.808003,-75.168709,3.218505
01046,172318,9.495686,-0.220806,2.614692,-0.010309,0.007587,0.003204,-0.378065,0.063170,-0.426549,-3.816875,-75.165350,3.221725
01047,172418,9.509210,-0.175612,2.628333,0.011210,0.005948,0.001067,-0.380039,0.062752,-0.427575,-3.809043,-75.163003,3.220421
01048,172518,9.514595,-0.182254,2.630620,0.028432,0.000807,-0.006410,-0.378090,0.059137,-0.425753,-3.775942,-75.163865,3.203193
01049,172618,9.520275,-0.187744,2.627249,0.033499,0.001756,-0.012647,-0.377164,0.061419,-0.421627,-3.726381,-75.164407,3.171921
01050,172718,9.525836,-0.256215,2.570888,0.025077,0.010263,-0.015172,-0.377116,0.062038,-0.424100,-3.675039,-75.160158,3.133819
01051,172818,9.458722,-0.288096,2.531933,0.015091,0.018421,-0.013668,-0.378142,0.061483,-0.422627,-3.631613,-75.151182,3.097985
01052,172918,9.422706,-0.239221,2.473043,0.011337,0.028534,-0.009096,-0.379103,0.060101,-0.424703,-3.598895,-75.136247,3.071007
01053,173018,9.424602,-0.120501,2.436258,0.009518,0.027617,-0.002507,-0.375658,0.062914,-0.422050,-3.581610,-75.121599,3.058897
01054,173118,9.492762,-0.018276,2.360279,0.010789,0.018075,0.004220,-0.378595,0.060615,-0.425177,-3.579305,-75.112178,3.063066
01055,173218,9.520314,0.001372,2.386913,0.008111,0.003703,0.009773,-0.377629,0.059032,-0.423753,-3.592375,-75.110786,3.081555
01056,173318,9.499191,-0.044511,2.412729,-0.002297,-0.017840,0.010553,-0.375641,0.061966,-0.423100,-3.616017,-75.121686,3.104793
01057,173418,9.502503,-0.213400,2.566472,-0.014498,-0.032233,0.005681,-0.377635,0.061001,-0.423152,-3.638157,-75.140990,3.119260
01058,173518,9.503565,-0.345552,2.654370,-0.020939,-0.026033,0.004692,-0.375126,0.061010,-0.424151,-3.661118,-75.156758,3.130750
01059,173618,9.477933,-0.339040,2.639197,-0.023616,-0.001203,0.001152,-0.376645,0.057498,-0.423329,-3.674592,-75.158456,3.130855
01060,173718,9.485083,-0.191925,2.564291,-0.015962,0.020251,0.003933,-0.376642,0.059490,-0.423228,-3.686772,-75.147773,3.134122
01061,173818,9.428951,-0.042613,2.511244,-0.004012,0.026664,0.010472,-0.377177,0.058904,-0.421254,-3.705238,-75.133185,3.150993
01062,173918,9.473392,-0.001372,2.327065,0.007229,0.023879,0.009854,-0.374695,0.059837,-0.420703,-3.716269,-75.120212,3.166829
01063,174018,9.491902,0.036757,2.242659,0.010720,0.034169,0.006702,-0.375672,0.059901,-0.421703,-3.716998,-75.101498,3.174086
01064,174118,9.417842,-0.150925,2.483406,0.005113,0.018200,0.002860,-0.375223,0.058278,-0.419280,-3.714897,-75.092061,3.175101
01065,174218,9.457246,-0.292063,2.633654,-0.004974,0.001517,0.004415,-0.375173,0.060391,-0.421677,-3.724326,-75.092080,3.182041
01066,174318,9.558022,-0.283117,2.706631,-0.003593,0.013251,0.008221,-0.371198,0.059806,-0.421201,-3.739506,-75.085225,3.195765
01067,174418,9.553234,-0.259773,2.577178,0.009011,0.031411,0.010874,-0.370687,0.061815,-0.421600,-3.750660,-75.067890,3.212771
01068,174518,9.507371,-0.163187,2.499456,0.015672,0.043386,0.014546,-0.369692,0.061301,-0.421625,-3.764111,-75.043571,3.236129
01069,174618,9.480520,-0.052923,2.493088,0.007284,0.059780,0.018885,-0.372167,0.059894,-0.422701,-3.789194,-75.009728,3.266578
01070,174718,9.367495,-0.035585,2.379681,-0.004433,0.062403,0.020534,-0.372229,0.061220,-0.419127,-3.824029,-74.974336,3.300135
01071,174818,9.290079,-0.022456,2.253477,-0.014304,0.029134,0.015466,-0.370209,0.061260,-0.420625,-3.858291,-74.958136,3.327272
01072,174918,9.400797,-0.130192,2.358888,-0.004307,-0.015198,0.009906,-0.370171,0.061855,-0.422599,-3.881342,-74.967501,3.348729
01073,175018,9.498776,-0.196856,2.573901,0.008038,-0.039845,0.005179,-0.366704,0.061253,-0.421624,-3.890850,-74.991123,3.363494
01074,175118,9.525842,-0.223985,2.617491,0.014485,-0.035500,0.004911,-0.368734,0.060690,-0.419651,-3.895508,-75.012306,3.377058
01075,175218,9.518251,-0.216680,2.565509,0.019391,-0.022497,0.004964,-0.366268,0.062571,-0.418049,-3.895696,-75.026022,3.388852
01076,175318,9.495598,-0.195649,2.531503,0.019558,-0.014740,0.002392,-0.366231,0.062170,-0.420074,-3.889115,-75.035392,3.393786
01077,175418,9.466372,-0.171009,2.488700,0.019783,-0.002545,0.003879,-0.365718,0.065673,-0.420395,-3.883947,-75.037737,3.400228
01078,175518,9.423492,-0.095313,2.419873,0.017635,0.001507,0.003240,-0.364210,0.062708,-0.421547,-3.877832,-75.037784,3.404560
01079,175618,9.397958,-0.058417,2.392817,0.015854,-0.004915,0.004006,-0.365744,0.066597,-0.418845,-3.875506,-75.041532,3.411595
01080,175718,9.394434,0.006053,2.407190,0.009260,-0.025947,0.001927,-0.365179,0.067755,-0.422293,-3.875446,-75.057330,3.417128
01081,175818,9.394545,0.050591,2.444685,0.001398,-0.043879,0.003568,-0.363705,0.066686,-0.421344,-3.885879,-75.083331,3.428919
01082,175918,9.417579,0.107579,2.518880,-0.004456,-0.060577,0.005041,-0.366720,0.067658,-0.419794,-3.905294,-75.118871,3.446491
01083,176018,9.446831,0.071459,2.555226,-0.008060,-0.074915,0.008177,-0.367209,0.067690,-0.420294,-3.935654,-75.162444,3.473277
01084,176118,9.456678,0.048491,2.613796,-0.011919,-0.088295,0.011020,-0.366209,0.069667,-0.420192,-3.976581,-75.213516,3.508648
01085,176218,9.503244,-0.021217,2.606228,-0.012191,-0.090483,0.013913,-0.365195,0.069201,-0.421217,-4.024410,-75.265689,3.551056
01086,176318,9.529314,-0.057656,2.531203,-0.005830,-0.072484,0.007836,-0.368650,0.071322,-0.422616,-4.052925,-75.307852,3.577191
01087,176418,9.476188,-0.170943,2.399070,-0.004297,-0.060035,0.003131,-0.373127,0.074880,-0.422439,-4.068586,-75.343127,3.590880
01088,176518,9.449558,-0.218491,2.321195,-0.006784,-0.057263,-0.000957,-0.374660,0.074310,-0.420466,-4.076237,-75.376982,3.594910
01089,176618,9.500129,-0.147146,2.344941,-0.012966,-0.066451,-0.002459,-0.374149,0.076319,-0.420864,-4.085655,-75.416117,3.597081
01090,176718,9.525186,-0.107709,2.399532,-0.021898,-0.075895,-0.001578,-0.375686,0.078215,-0.418264,-4.103637,-75.460638,3.602813
01091,176818,9.518882,-0.059373,2.410484,-0.028916,-0.087606,-0.000674,-0.379184,0.077250,-0.417816,-4.129477,-75.511816,3.612559
01092,176918,9.502691,-0.039201,2.435761,-0.031626,-0.102134,-0.002997,-0.380679,0.076775,-0.417842,-4.154148,-75.571377,3.619492
01093,177018,9.533170,-0.130915,2.516961,-0.025493,-0.099939,-0.010757,-0.385170,0.077819,-0.417292,-4.157773,-75.630004,3.608309
01094,177118,9.553245,-0.235488,2.512877,-0.013446,-0.077571,-0.019847,-0.387145,0.082358,-0.417564,-4.130531,-75.676205,3.572375
01095,177218,9.457170,-0.329831,2.421085,-0.007910,-0.050068,-0.029199,-0.387622,0.078453,-0.419267,-4.074517,-75.707058,3.510060
01096,177318,9.337765,-0.373712,2.303117,-0.013075,-0.045963,-0.028953,-0.388115,0.086408,-0.418361,-4.021245,-75.735544,3.447493
01097,177418,9.297103,-0.326252,2.258925,-0.019510,-0.070653,-0.025517,-0.388078,0.086504,-0.420360,-3.983075,-75.777995,3.396727
01098,177518,9.338083,-0.235283,2.324510,-0.020511,-0.100458,-0.016107,-0.385559,0.092492,-0.421054,-3.971217,-75.837101,3.372513
01099,177618,9.425985,-0.089826,2.400138,-0.019110,-0.118170,-0.008632,-0.387536,0.096035,-0.421377,-3.978177,-75.906032,3.368543
01100,177718,9.532373,-0.014824,2.472352,-0.018680,-0.112062,-0.010108,-0.385454,0.099210,-0.425722,-3.980510,-75.971519,3.360060
01101,177818,9.611654,-0.027472,2.459105,-0.030908,-0.093772,-0.009159,-0.388434,0.104239,-0.425469,-3.989052,-76.026509,3.350760
01102,177918,9.635419,-0.044453,2.405652,-0.043179,-0.076593,-0.007204,-0.388429,0.106730,-0.425342,-4.006341,-76.071599,3.343233
01103,178018,9.621621,-0.076189,2.352956,-0.050439,-0.069295,-0.003877,-0.385942,0.110154,-0.424664,-4.034311,-76.112385,3.342425
01104,178118,9.589989,-0.205980,2.295272,-0.055668,-0.080630,-0.004308,-0.388852,0.112886,-0.428536,-4.066243,-76.159669,3.342610
01105,178218,9.573423,-0.283672,2.292938,-0.057987,-0.097392,-0.005663,-0.388344,0.112902,-0.429035,-4.099292,-76.216589,3.342577
01106,178318,9.538535,-0.313220,2.348833,-0.044754,-0.104538,-0.008718,-0.392338,0.118398,-0.427758,-4.118992,-76.277714,3.336601
01107,178418,9.447228,-0.270434,2.412755,-0.026285,-0.097786,-0.016395,-0.394315,0.116983,-0.428834,-4.108998,-76.335283,3.310954
01108,178518,9.324465,-0.146147,2.402000,-0.020638,-0.079369,-0.020352,-0.397290,0.119047,-0.429233,-4.083171,-76.382473,3.272348
01109,178618,9.305309,0.017376,2.337597,-0.023692,-0.068249,-0.012769,-0.399221,0.122711,-0.432055,-4.074898,-76.422988,3.250012
01110,178718,9.460520,0.149927,2.314353,-0.042432,-0.067717,-0.006300,-0.399772,0.124069,-0.428980,-4.092450,-76.462932,3.243204
01111,178818,9.530393,0.187764,2.280180,-0.061342,-0.072429,-0.000371,-0.399720,0.127179,-0.431326,-4.135689,-76.505325,3.251677
01112,178918,9.552075,0.049904,2.252949,-0.077839,-0.085637,0.003647,-0.401222,0.128673,-0.430751,-4.200394,-76.555098,3.272505
01113,179018,9.621274,-0.168619,2.299232,-0.079504,-0.102679,0.002982,-0.402197,0.129734,-0.431700,-4.267815,-76.614628,3.295137
01114,179118,9.663814,-0.302037,2.368587,-0.075779,-0.115451,-0.000422,-0.406631,0.131420,-0.434124,-4.327659,-76.681585,3.312167
01115,179218,9.692269,-0.402848,2.397625,-0.069791,-0.125184,-0.004922,-0.408608,0.134963,-0.434447,-4.375415,-76.754282,3.320294
01116,179318,9.667811,-0.543044,2.398740,-0.058873,-0.117318,-0.013203,-0.410562,0.136088,-0.436396,-4.395661,-76.822832,3.306577
01117,179418,9.593073,-0.558907,2.371419,-0.053516,-0.087581,-0.017346,-0.411028,0.138161,-0.437794,-4.397254,-76.874561,3.276854
01118,179518,9.478753,-0.391156,2.344743,-0.056673,-0.036581,-0.008994,-0.411009,0.143665,-0.438014,-4.411533,-76.896775,3.258300
01119,179618,9.407274,0.076565,2.164739,-0.051747,0.006040,0.009569,-0.410504,0.142187,-0.438590,-4.460384,-76.893822,3.278145
01120,179718,9.483252,0.514899,1.939467,-0.066802,0.016055,0.017931,-0.412459,0.147771,-0.439811,-4.536180,-76.884791,3.316810
01121,179818,9.452198,0.633088,1.931035,-0.103623,-0.033585,0.017468,-0.411430,0.150817,-0.441157,-4.641390,-76.904141,3.364024
01122,179918,9.500649,0.568083,2.106808,-0.144766,-0.103082,0.014456,-0.414366,0.153974,-0.443505,-4.776906,-76.963304,3.418154
01123,180018,9.717581,0.285095,2.314286,-0.164676,-0.133960,0.008683,-0.410829,0.156530,-0.445876,-4.916763,-77.040339,3.465022
01124,180118,9.868496,-0.050793,2.355601,-0.138858,-0.125159,-0.004863,-0.413269,0.164140,-0.447495,-5.007133,-77.112990,3.476280
01125,180218,9.850601,-0.319599,2.335890,-0.106909,-0.101187,-0.007619,-0.413313,0.165514,-0.444920,-5.067550,-77.172084,3.475585
01126,180318,9.742952,-0.454777,2.263291,-0.086857,-0.067388,-0.008099,-0.417221,0.167264,-0.448843,-5.108048,-77.211904,3.466240
01127,180418,9.482155,-0.578811,2.135981,-0.078197,-0.043735,-0.014808,-0.416180,0.171331,-0.450639,-5.121580,-77.238565,3.434327
01128,180518,9.256781,-0.679636,2.002028,-0.080993,-0.057986,-0.020370,-0.419649,0.176393,-0.450886,-5.126039,-77.273646,3.391467
01129,180618,9.288164,-0.585311,2.084919,-0.076034,-0.092336,-0.017374,-0.418094,0.179004,-0.453757,-5.143094,-77.328171,3.364432
01130,180718,9.430920,-0.374284,2.162935,-0.059159,-0.117847,-0.008490,-0.418538,0.183617,-0.456028,-5.179009,-77.396792,3.366637
01131,180818,9.556638,-0.094278,2.200811,-0.040878,-0.118887,0.001583,-0.420065,0.186035,-0.453902,-5.230687,-77.465474,3.395722
01132,180918,9.628465,0.137181,2.159722,-0.031054,-0.108015,0.003786,-0.419510,0.192127,-0.456095,-5.280142,-77.527829,3.428292
01133,181018,9.653411,0.151463,2.120237,-0.031076,-0.096850,0.000540,-0.417991,0.195140,-0.456942,-5.318793,-77.583981,3.449783
01134,181118,9.768360,0.028555,2.116828,-0.038429,-0.087164,-0.006594,-0.418445,0.199230,-0.458739,-5.340939,-77.634986,3.450059
01135,181218,9.789556,-0.197209,2.100389,-0.052920,-0.061301,-0.016822,-0.417930,0.203232,-0.459035,-5.338483,-77.671784,3.416649
01136,181318,9.628288,-0.379461,2.068522,-0.064825,-0.040351,-0.017644,-0.416950,0.204663,-0.457959,-5.335574,-77.696671,3.375796
01137,181418,9.517875,-0.444802,2.010400,-0.075188,-0.041173,-0.013207,-0.414893,0.209758,-0.460703,-5.350459,-77.721792,3.347077
01138,181518,9.493855,-0.381432,2.036442,-0.073873,-0.052254,-0.000447,-0.414393,0.216203,-0.459873,-5.400894,-77.752551,3.355510
01139,181618,9.507287,-0.185324,2.070186,-0.068465,-0.061174,0.015071,-0.412845,0.220286,-0.462168,-5.491507,-77.787548,3.408221
01140,181718,9.557620,0.072161,2.082654,-0.065233,-0.069686,0.028353,-0.409862,0.222207,-0.461566,-5.617875,-77.826639,3.499404
01141,181818,9.613052,0.246007,2.066601,-0.055828,-0.083521,0.031240,-0.407846,0.230171,-0.461659,-5.750720,-77.873411,3.602714
01142,181918,9.696411,0.269901,2.108917,-0.055101,-0.101185,0.033253,-0.404382,0.233033,-0.460006,-5.894082,-77.930081,3.717192
01143,182018,9.798161,0.158058,2.139560,-0.056636,-0.099646,0.025964,-0.400823,0.237132,-0.463300,-6.019450,-77.986247,3.812351
01144,182118,9.846314,-0.023939,2.110899,-0.059596,-0.077695,0.016670,-0.398344,0.241030,-0.462096,-6.116172,-78.030428,3.876475
01145,182218,9.746857,-0.252791,2.052071,-0.064101,-0.039148,0.005621,-0.395416,0.243305,-0.458470,-6.175080,-78.053307,3.899299
01146,182318,9.611633,-0.440324,1.963014,-0.076360,-0.004682,-0.001949,-0.391474,0.244617,-0.455893,-6.210775,-78.057018,3.891212
01147,182418,9.481418,-0.437664,1.880764,-0.097843,0.009385,-0.002325,-0.386486,0.248523,-0.455689,-6.253745,-78.052747,3.877976
01148,182518,9.373764,-0.285877,1.817985,-0.125852,0.011862,0.005123,-0.381023,0.249883,-0.454611,-6.332095,-78.046609,3.884500
01149,182618,9.345379,0.022179,1.752706,-0.150046,-0.007364,0.027205,-0.378606,0.250149,-0.450586,-6.489377,-78.050019,3.957538
01150,182718,9.407889,0.303235,1.857180,-0.166641,-0.050011,0.046605,-0.375628,0.254537,-0.449357,-6.721647,-78.076384,4.097506
01151,182818,9.574942,0.356640,2.008227,-0.175927,-0.086853,0.053654,-0.375699,0.256338,-0.445257,-6.990976,-78.123099,4.269897
01152,182918,9.771493,0.272412,2.131254,-0.173202,-0.104192,0.051939,-0.370278,0.254612,-0.442333,-7.261572,-78.179621,4.445152
01153,183018,9.895402,0.096309,2.182900,-0.162247,-0.103927,0.039821,-0.370846,0.256918,-0.438207,-7.494717,-78.236715,4.588526
01154,183118,9.924334,-0.101627,2.132410,-0.150019,-0.094946,0.024670,-0.366472,0.253094,-0.432886,-7.677782,-78.289740,4.687879
01155,183218,9.862101,-0.356856,2.063435,-0.134816,-0.076991,0.011467,-0.365544,0.250917,-0.429489,-7.810366,-78.333527,4.744557
01156,183318,9.768903,-0.602160,1.994728,-0.120477,-0.044476,0.000974,-0.362623,0.249705,-0.426040,-7.894230,-78.359653,4.759868
01157,183418,9.664246,-0.735175,1.969841,-0.112022,-0.017449,-0.004240,-0.363734,0.247438,-0.420144,-7.948892,-78.370842,4.750301
01158,183518,9.554471,-0.768542,1.978466,-0.111406,-0.002585,-0.003114,-0.360321,0.242730,-0.416873,-8.000818,-78.373498,4.738294
01159,183618,9.476533,-0.632690,1.975512,-0.109646,-0.009302,0.005545,-0.362859,0.242151,-0.414400,-8.078395,-78.379264,4.753501
01160,183718,9.474706,-0.461162,2.053056,-0.104519,-0.021270,0.020009,-0.363958,0.236446,-0.409682,-8.197806,-78.390626,4.814411
01161,183818,9.544692,-0.263566,2.157102,-0.094738,-0.029160,0.028289,-0.363055,0.235691,-0.404709,-8.337832,-78.405732,4.902085
01162,183918,9.604309,-0.107078,2.196586,-0.082077,-0.027905,0.031322,-0.361144,0.231979,-0.400888,-8.478691,-78.419810,4.998010
01163,184018,9.651513,-0.047421,2.200300,-0.066384,-0.012020,0.025359,-0.361646,0.229496,-0.401015,-8.587604,-78.425334,5.070504
01164,184118,9.682124,-0.123630,2.100365,-0.049476,0.013399,0.014829,-0.362259,0.227222,-0.395119,-8.647029,-78.417331,5.102372
01165,184218,9.703240,-0.265755,1.967565,-0.032759,0.036837,0.007901,-0.361793,0.225149,-0.393721,-8.667825,-78.396643,5.104586
01166,184318,9.726683,-0.405518,1.861297,-0.016706,0.052148,0.003021,-0.363885,0.221452,-0.388902,-8.659596,-78.367711,5.086557
01167,184418,9.680123,-0.515929,1.843659,0.000671,0.058779,0.000059,-0.364445,0.217330,-0.386106,-8.630702,-78.335282,5.057590
01168,184518,9.639178,-0.537369,1.930858,0.009419,0.055779,0.002441,-0.364528,0.212653,-0.382336,-8.604833,-78.304345,5.036823
01169,184618,9.625054,-0.456639,1.998718,0.016358,0.039872,0.010619,-0.369070,0.211085,-0.379415,-8.604083,-78.281712,5.045764
01170,184718,9.624615,-0.335080,2.023315,0.019247,0.018760,0.020158,-0.366182,0.206312,-0.374645,-8.636432,-78.270213,5.090200
01171,184818,9.595844,-0.240638,2.030255,0.013847,-0.008519,0.024709,-0.369723,0.202261,-0.372350,-8.695558,-78.273761,5.158826
01172,184918,9.613467,-0.195725,2.085481,-0.000015,-0.027439,0.023336,-0.371795,0.199111,-0.368505,-8.766846,-78.288117,5.231760
01173,185018,9.643695,-0.223507,2.110721,-0.007879,-0.022658,0.019322,-0.373860,0.194988,-0.365210,-8.829782,-78.300090,5.291561
01174,185118,9.642219,-0.232890,2.120629,-0.000705,-0.002271,0.020806,-0.373933,0.195294,-0.361186,-8.884044,-78.300366,5.346698
01175,185218,9.592372,-0.263633,2.055987,0.022595,0.022545,0.019037,-0.375006,0.188664,-0.358018,-8.909469,-78.286736,5.386023
01176,185318,9.584623,-0.246798,1.840056,0.050054,0.052091,0.013684,-0.378023,0.188639,-0.356519,-8.891868,-78.256865,5.397475
01177,185418,9.500068,-0.281591,1.683538,0.063628,0.060443,0.008013,-0.379073,0.184549,-0.354224,-8.847588,-78.222788,5.389623
01178,185518,9.306365,-0.326066,1.780073,0.059457,0.009925,0.000839,-0.378580,0.181552,-0.354376,-8.807689,-78.217952,5.383804
01179,185618,9.363659,-0.319954,1.985571,0.042084,-0.057389,0.001333,-0.377123,0.181432,-0.352377,-8.807458,-78.251181,5.408335
01180,185718,9.553660,-0.296993,2.138170,0.036362,-0.083938,0.006180,-0.379676,0.177341,-0.349582,-8.835088,-78.298998,5.457969
01181,185818,9.638047,-0.278354,2.095251,0.032282,-0.059346,0.010129,-0.379733,0.176698,-0.346608,-8.865669,-78.332529,5.508221
01182,185918,9.649358,-0.253184,2.064588,0.029305,-0.025439,0.016318,-0.380805,0.175525,-0.342661,-8.900574,-78.346305,5.561142
01183,186018,9.636112,-0.182843,2.058350,0.035387,-0.001805,0.018563,-0.381291,0.177550,-0.343060,-8.928008,-78.346490,5.609994
01184,186118,9.586667,-0.082858,1.991713,0.037289,-0.009656,0.019355,-0.379301,0.176023,-0.343135,-8.959849,-78.351043,5.664460
01185,186218,9.577506,-0.041385,2.027157,0.041871,-0.041446,0.018978,-0.377830,0.178418,-0.341508,-9.001813,-78.373609,5.731941
01186,186318,9.649575,-0.051990,2.062435,0.049918,-0.072032,0.017035,-0.376885,0.175791,-0.339136,-9.047367,-78.413642,5.807790
01187,186418,9.722901,-0.049440,2.100450,0.050205,-0.081905,0.011187,-0.376882,0.177286,-0.339060,-9.081261,-78.459770,5.871895
01188,186518,9.737705,-0.114742,2.118349,0.043942,-0.074825,0.003381,-0.378443,0.176144,-0.335612,-9.094193,-78.502582,5.910938
01189,186618,9.703295,-0.212823,2.068768,0.032800,-0.061087,-0.003601,-0.379956,0.176618,-0.334588,-9.088048,-78.538245,5.923994
01190,186718,9.669818,-0.277560,2.019092,0.012032,-0.053065,-0.005509,-0.378494,0.173533,-0.333240,-9.084906,-78.569535,5.927972
01191,186818,9.631351,-0.345939,2.009858,-0.008916,-0.042361,-0.000254,-0.381009,0.175493,-0.331640,-9.103744,-78.594284,5.942126
01192,186918,9.618364,-0.396802,1.933134,-0.031198,-0.026475,0.006651,-0.379010,0.179448,-0.331436,-9.147704,-78.609414,5.968882
01193,187018,9.558711,-0.394936,1.832937,-0.043889,-0.010685,0.017673,-0.378044,0.177864,-0.330013,-9.222869,-78.614603,6.020051
01194,187118,9.536828,-0.327201,1.821040,-0.043696,-0.002281,0.026554,-0.378999,0.180468,-0.331885,-9.319086,-78.614209,6.092805
01195,187218,9.542778,-0.245690,1.854293,-0.044720,-0.004501,0.036401,-0.378538,0.185322,-0.329132,-9.444545,-78.614125,6.194791
01196,187318,9.583084,-0.224076,1.868066,-0.044678,-0.013706,0.041750,-0.382546,0.182846,-0.328260,-9.589319,-78.618692,6.316504
01197,187418,9.603079,-0.262532,1.939272,-0.036183,-0.027593,0.044019,-0.379534,0.185836,-0.329107,-9.742370,-78.630819,6.451620
01198,187518,9.564463,-0.292401,1.966114,-0.031400,-0.036039,0.044603,-0.380519,0.186872,-0.329556,-9.898760,-78.647578,6.592931
01199,187618,9.561455,-0.356494,1.965612,-0.028833,-0.033214,0.039667,-0.382514,0.190866,-0.328854,-10.038833,-78.663154,6.719090
01200,187718,9.570071,-0.301154,1.933724,-0.031817,-0.029505,0.033704,-0.381475,0.193936,-0.330700,-10.162308,-78.677175,6.826572
01201,187818,9.577819,-0.250844,1.962568,-0.038190,-0.030340,0.031450,-0.381939,0.197503,-0.332022,-10.283767,-78.691845,6.928268
01202,187918,9.630251,-0.181240,1.941007,-0.041002,-0.025864,0.034186,-0.383460,0.197953,-0.330498,-10.412469,-78.703666,7.035705
01203,188018,9.693943,-0.191599,1.936079,-0.046084,-0.022935,0.034935,-0.382912,0.200058,-0.332895,-10.544854,-78.713708,7.143926
01204,188118,9.666439,-0.283409,1.860843,-0.052153,-0.018865,0.034132,-0.383906,0.201071,-0.332844,-10.676485,-78.721497,7.247829
01205,188218,9.588444,-0.394471,1.841994,-0.049863,-0.036574,0.032226,-0.385934,0.202003,-0.330795,-10.811155,-78.739412,7.356163
01206,188318,9.562236,-0.420141,1.897619,-0.039947,-0.052160,0.031460,-0.386939,0.202492,-0.330270,-10.946915,-78.766126,7.471391
01207,188418,9.535853,-0.449261,2.016238,-0.029765,-0.049148,0.028138,-0.388014,0.199824,-0.326399,-11.066368,-78.791443,7.575929
01208,188518,9.557124,-0.424351,2.030476,-0.023605,-0.034211,0.025460,-0.387019,0.199310,-0.326424,-11.166824,-78.808605,7.664691
01209,188618,9.595984,-0.368329,1.940190,-0.022937,-0.025234,0.022850,-0.389524,0.196336,-0.326077,-11.254689,-78.820976,7.741003
01210,188718,9.693690,-0.323545,1.898873,-0.019436,-0.024797,0.023112,-0.392040,0.197798,-0.324503,-11.341214,-78.833048,7.817991
01211,188818,9.790202,-0.321634,1.888153,-0.027689,-0.027648,0.023917,-0.393057,0.196769,-0.323554,-11.436568,-78.846608,7.899155
01212,188918,9.807119,-0.339342,1.885651,-0.028712,-0.031627,0.022941,-0.393087,0.195203,-0.322131,-11.532249,-78.862486,7.980051
01213,189018,9.689892,-0.375767,1.908758,-0.030959,-0.024591,0.016936,-0.394073,0.195740,-0.322606,-11.608209,-78.875079,8.039532
01214,189118,9.495126,-0.380783,1.862549,-0.030384,-0.007714,0.007323,-0.397582,0.193755,-0.321709,-11.646609,-78.879295,8.061066
01215,189218,9.325735,-0.386127,1.717423,-0.029305,0.011783,-0.001889,-0.397574,0.192782,-0.322259,-11.646662,-78.873639,8.044150
01216,189318,9.257026,-0.322359,1.652695,-0.031071,0.013987,-0.006089,-0.401148,0.191126,-0.317838,-11.634470,-78.867242,8.013721
01217,189418,9.326523,-0.212865,1.681725,-0.028843,-0.003741,-0.003939,-0.401134,0.188683,-0.318965,-11.637509,-78.870555,8.000119
01218,189518,9.550506,-0.186713,1.846253,-0.022812,-0.027399,0.002862,-0.403113,0.190732,-0.319364,-11.670364,-78.886359,8.020427
01219,189618,9.762225,-0.214563,2.008205,-0.019469,-0.043428,0.003883,-0.404144,0.192146,-0.317289,-11.713728,-78.911026,8.053397
01220,189718,9.923525,-0.256942,2.107785,-0.024429,-0.049995,0.010511,-0.403102,0.191753,-0.319813,-11.782984,-78.938583,8.109853
01221,189818,9.966450,-0.311862,2.086938,-0.029376,-0.035440,0.012234,-0.404131,0.194661,-0.317661,-11.851531,-78.957749,8.162693
01222,189918,9.906705,-0.372749,1.999657,-0.035245,-0.017231,0.011520,-0.404607,0.196212,-0.318585,-11.910549,-78.966769,8.202397
01223,190018,9.824405,-0.421892,1.881447,-0.048087,-0.003960,0.007387,-0.410620,0.192249,-0.317291,-11.957063,-78.968831,8.221863
01224,190118,9.664198,-0.446087,1.804935,-0.060305,-0.003288,0.004402,-0.410594,0.196283,-0.318087,-12.001637,-78.970869,8.232219
01225,190218,9.458546,-0.424980,1.773596,-0.069282,-0.008220,0.001344,-0.411625,0.197697,-0.316012,-12.045625,-78.976036,8.236737
01226,190318,9.331387,-0.366397,1.725976,-0.063640,-0.018489,-0.003707,-0.412659,0.197119,-0.314038,-12.078194,-78.987564,8.232915
01227,190418,9.332889,-0.354894,1.699204,-0.049689,-0.024534,-0.003001,-0.411606,0.198243,-0.316986,-12.108572,-79.002399,8.235003
01228,190518,9.392546,-0.374654,1.763619,-0.035816,-0.025448,-0.003370,-0.417162,0.201601,-0.312312,-12.130554,-79.017791,8.236636
01229,190618,9.568899,-0.393650,1.818623,-0.014012,-0.015572,0.002639,-0.419148,0.200162,-0.312888,-12.151305,-79.026926,8.249740
01230,190718,9.653549,-0.411834,1.883884,0.006436,-0.005179,0.010050,-0.421665,0.201126,-0.311339,-12.175322,-79.029339,8.278103
01231,190818,9.742407,-0.398648,1.862868,0.008548,-0.000170,0.014001,-0.421673,0.201600,-0.310814,-12.206436,-79.028464,8.314928
01232,190918,9.777784,-0.365174,1.750512,-0.000716,0.011743,0.015961,-0.421229,0.197486,-0.308518,-12.241058,-79.020684,8.349919
01233,191018,9.604426,-0.347824,1.797084,-0.020583,-0.008479,0.018884,-0.425237,0.199968,-0.306892,-12.308150,-79.023866,8.406393
01234,191118,9.552750,-0.330996,1.855820,-0.038041,-0.042988,0.023546,-0.428247,0.198473,-0.305970,-12.420636,-79.045769,8.498912
01235,191218,9.537180,-0.327806,1.821873,-0.042784,-0.061848,0.030648,-0.428762,0.199429,-0.304920,-12.568960,-79.077301,8.625158
01236,191318,9.479993,-0.274913,1.710619,-0.040660,-0.069965,0.032978,-0.431329,0.198279,-0.300973,-12.728914,-79.113021,8.764473
01237,191418,9.351396,-0.170613,1.604457,-0.027621,-0.072128,0.029943,-0.432825,0.197307,-0.301024,-12.874894,-79.150278,8.897150
01238,191518,9.354687,-0.054859,1.582435,-0.016888,-0.074639,0.024519,-0.433351,0.197242,-0.299525,-13.001398,-79.189591,9.016246
01239,191618,9.355727,0.004183,1.582403,-0.016015,-0.090594,0.014633,-0.437389,0.198656,-0.296451,-13.110053,-79.239061,9.117668
01240,191718,9.405493,-0.034339,1.634687,-0.017884,-0.120733,0.005136,-0.438928,0.200054,-0.293876,-13.213473,-79.306564,9.212655
01241,191818,9.588210,-0.165016,1.747091,-0.021713,-0.143338,-0.000852,-0.438453,0.197506,-0.293004,-13.318364,-79.387432,9.306884
01242,191918,9.735566,-0.328069,1.825800,-0.025087,-0.148745,-0.001792,-0.443979,0.197473,-0.290506,-13.427740,-79.471401,9.403684
01243,192018,9.839662,-0.444597,1.791047,-0.030188,-0.130120,0.001636,-0.445530,0.196356,-0.287559,-13.538540,-79.544498,9.498934
01244,192118,9.760856,-0.487100,1.716445,-0.034636,-0.103340,0.000338,-0.447073,0.195262,-0.285111,-13.629728,-79.602825,9.571628
01245,192218,9.693368,-0.493594,1.627536,-0.040430,-0.092117,0.004069,-0.448069,0.195776,-0.285086,-13.728251,-79.654381,9.648389
01246,192318,9.648633,-0.438610,1.589046,-0.043891,-0.098385,0.009143,-0.452635,0.196129,-0.280564,-13.849943,-79.708712,9.746671
01247,192418,9.593764,-0.356880,1.574555,-0.046063,-0.110194,0.011247,-0.453629,0.192183,-0.281267,-13.989571,-79.769288,9.861898
01248,192518,9.560650,-0.274209,1.528884,-0.044398,-0.121525,0.010164,-0.459142,0.193669,-0.279193,-14.135200,-79.836274,9.984168
01249,192618,9.541695,-0.280212,1.567739,-0.039042,-0.128435,0.002531,-0.461154,0.193154,-0.278220,-14.261157,-79.908128,10.089547
01250,192718,9.510962,-0.312747,1.581286,-0.030784,-0.130497,-0.003846,-0.462684,0.194078,-0.276170,-14.365624,-79.981996,10.177881
01251,192818,9.509756,-0.376431,1.602653,-0.024310,-0.129336,-0.012802,-0.466676,0.195113,-0.275621,-14.438508,-80.056473,10.237892
01252,192918,9.550372,-0.513478,1.625737,-0.021333,-0.127260,-0.022199,-0.471150,0.195707,-0.276097,-14.479070,-80.131129,10.266808
01253,193018,9.609315,-0.566811,1.657939,-0.006544,-0.134233,-0.023700,-0.472639,0.193263,-0.276724,-14.512711,-80.209856,10.297289
01254,193118,9.709258,-0.621424,1.647940,0.008410,-0.133473,-0.015801,-0.477189,0.192169,-0.273278,-14.563326,-80.287015,10.353678
01255,193218,9.747414,-0.585401,1.619897,0.026982,-0.124098,-0.007487,-0.478698,0.194636,-0.272151,-14.623360,-80.357761,10.430400
01256,193318,9.721489,-0.493565,1.564699,0.040994,-0.115534,0.004465,-0.480707,0.195616,-0.271102,-14.708279,-80.422010,10.540486
01257,193418,9.689724,-0.345939,1.541787,0.050365,-0.115977,0.015526,-0.486190,0.199167,-0.270426,-14.826054,-80.484858,10.689314
01258,193518,9.681407,-0.187682,1.537535,0.055968,-0.126116,0.022189,-0.487705,0.197647,-0.269503,-14.973463,-80.552288,10.871414
01259,193618,9.723977,-0.101871,1.529327,0.051539,-0.137172,0.022482,-0.489672,0.201713,-0.270299,-15.136657,-80.625718,11.066907
01260,193718,9.736799,-0.090377,1.521475,0.040448,-0.144719,0.018802,-0.492681,0.200716,-0.269352,-15.303482,-80.703789,11.259598
01261,193818,9.723019,-0.137567,1.549159,0.023754,-0.154493,0.013840,-0.496667,0.205239,-0.268624,-15.475161,-80.787925,11.447473
01262,193918,9.660743,-0.141493,1.624733,0.011093,-0.160836,0.009727,-0.499126,0.207344,-0.270023,-15.649281,-80.876098,11.630427
01263,194018,9.602207,-0.156424,1.690890,0.001452,-0.160285,0.008392,-0.501135,0.208822,-0.268948,-15.827124,-80.964072,11.811514
01264,194118,9.568780,-0.156897,1.691507,-0.005009,-0.151078,0.008577,-0.505593,0.212429,-0.269771,-16.003476,-81.046842,11.987302
01265,194218,9.575692,-0.218065,1.605373,-0.003594,-0.142733,0.012492,-0.507586,0.211962,-0.269797,-16.187452,-81.124301,12.171589
01266,194318,9.597452,-0.239880,1.539814,0.004878,-0.135288,0.014719,-0.512536,0.214605,-0.271171,-16.369845,-81.197211,12.359148
01267,194418,9.596024,-0.270522,1.430796,0.009727,-0.130622,0.015995,-0.513524,0.213648,-0.271722,-16.552079,-81.267258,12.549322
01268,194518,9.617556,-0.262132,1.345040,0.007854,-0.129221,0.014430,-0.517498,0.214732,-0.272172,-16.731193,-81.336709,12.735218
01269,194618,9.617167,-0.264941,1.300929,-0.007638,-0.139778,0.014310,-0.520026,0.214177,-0.270199,-16.933338,-81.411885,12.935395
01270,194718,9.668558,-0.249523,1.384098,-0.027021,-0.153668,0.015595,-0.525432,0.213958,-0.274225,-17.170502,-81.494342,13.159713
01271,194818,9.731812,-0.236345,1.482148,-0.050253,-0.165867,0.019396,-0.526949,0.211941,-0.273327,-17.453628,-81.582666,13.416991
01272,194918,9.753358,-0.200782,1.507660,-0.075162,-0.166856,0.028629,-0.528927,0.209529,-0.274454,-17.792281,-81.669716,13.715910
01273,195018,9.724070,-0.197075,1.500760,-0.098231,-0.162097,0.034285,-0.532451,0.209488,-0.272456,-18.166193,-81.752893,14.037039
01274,195118,9.648133,-0.193240,1.417640,-0.108381,-0.152365,0.035590,-0.535942,0.207551,-0.272559,-18.545478,-81.830232,14.357656
01275,195218,9.564351,-0.252975,1.368388,-0.107818,-0.144566,0.031651,-0.539936,0.207590,-0.272061,-18.905829,-81.903764,14.659412
01276,195318,9.555106,-0.322842,1.290662,-0.094941,-0.138398,0.027917,-0.541400,0.203724,-0.274263,-19.242187,-81.974394,14.944332
01277,195418,9.518272,-0.461122,1.240670,-0.070575,-0.147411,0.017865,-0.544836,0.200934,-0.277416,-19.543567,-82.051584,15.207976
01278,195518,9.481827,-0.608194,1.280005,-0.040314,-0.165740,0.012141,-0.545852,0.200404,-0.276442,-19.836605,-82.139565,15.480646
01279,195618,9.503615,-0.747359,1.324021,-0.013044,-0.184658,0.016000,-0.550283,0.198627,-0.279543,-20.163063,-82.236756,15.802756
01280,195718,9.671879,-0.774676,1.421782,-0.001282,-0.201866,0.024349,-0.555801,0.197621,-0.277597,-20.550089,-82.341227,16.192706
01281,195818,9.866078,-0.680432,1.467839,0.003284,-0.209095,0.032340,-0.558775,0.195724,-0.278699,-20.988702,-82.447544,16.637240
01282,195918,9.987111,-0.547292,1.441183,-0.000174,-0.204787,0.033798,-0.560745,0.192340,-0.280377,-21.440939,-82.550778,17.093408
01283,196018,10.115562,-0.343599,1.373468,0.009513,-0.185752,0.032222,-0.562277,0.192267,-0.278378,-21.862212,-82.643743,17.523846
01284,196118,10.046823,-0.149870,1.302152,0.024735,-0.152627,0.024817,-0.564271,0.191302,-0.278429,-22.198288,-82.720339,17.877098
01285,196218,9.902808,-0.069787,1.203238,0.024351,-0.129719,0.014571,-0.565722,0.189952,-0.281005,-22.459070,-82.786798,18.154173
01286,196318,9.701320,-0.095943,1.106677,0.006260,-0.122996,0.003002,-0.569712,0.192482,-0.280380,-22.674452,-82.852109,18.375003
01287,196418,9.530593,-0.225329,1.180668,-0.009791,-0.141591,-0.002109,-0.571168,0.187644,-0.283133,-22.914631,-82.928266,18.611520
01288,196518,9.521439,-0.306651,1.316378,-0.018491,-0.163612,0.000240,-0.570163,0.192610,-0.282879,-23.215485,-83.015352,18.904107
01289,196618,9.633790,-0.438759,1.369674,-0.021193,-0.152088,0.001495,-0.573592,0.188848,-0.286582,-23.508991,-83.095883,19.187679
01290,196718,9.706760,-0.520180,1.287991,-0.010419,-0.120654,0.003866,-0.574128,0.193220,-0.283854,-23.752861,-83.159190,19.427427
01291,196818,9.756341,-0.509948,1.153140,-0.006517,-0.098666,0.009998,-0.579065,0.192423,-0.286406,-23.982953,-83.209426,19.655523
01292,196918,9.741466,-0.437556,1.115055,-0.001770,-0.096460,0.015314,-0.577579,0.192873,-0.285880,-24.232824,-83.257146,19.906250
01293,197018,9.703623,-0.344204,1.145356,0.001757,-0.108442,0.019730,-0.580032,0.193009,-0.287880,-24.528040,-83.309930,20.204645
01294,197118,9.697355,-0.268099,1.209311,0.004513,-0.131697,0.017110,-0.581531,0.190542,-0.288007,-24.862674,-83.375248,20.544279
01295,197218,9.785861,-0.220983,1.246096,0.004885,-0.145296,0.012787,-0.583497,0.195106,-0.288779,-25.212978,-83.448428,20.899854
01296,197318,9.822230,-0.218601,1.290674,0.010984,-0.142952,0.008504,-0.581496,0.194600,-0.289304,-25.542906,-83.521192,21.238386
01297,197418,9.827266,-0.273447,1.268692,0.015021,-0.124610,0.006402,-0.583479,0.194656,-0.289804,-25.827470,-83.584787,21.533547
01298,197518,9.775394,-0.287160,1.208760,0.017204,-0.104991,-0.000735,-0.581978,0.193161,-0.290380,-26.039073,-83.639908,21.756516
01299,197618,9.757866,-0.327477,1.148220,0.015307,-0.095034,-0.005224,-0.587449,0.192774,-0.290907,-26.211754,-83.690947,21.939206
01300,197718,9.801048,-0.322117,1.150291,0.008362,-0.085568,-0.011881,-0.585973,0.192702,-0.289907,-26.338095,-83.738751,22.071255
01301,197818,9.851078,-0.307842,1.146293,0.003198,-0.071133,-0.011682,-0.587920,0.192356,-0.292431,-26.436378,-83.779060,22.172092
01302,197918,9.824165,-0.305811,1.131268,-0.005551,-0.057434,-0.010769,-0.588900,0.190925,-0.293508,-26.512827,-83.812085,22.245917
01303,198018,9.786299,-0.345187,1.132147,-0.011844,-0.054671,-0.012242,-0.586845,0.190066,-0.297056,-26.580027,-83.844053,22.306807
01304,198118,9.713740,-0.433468,1.104521,-0.005437,-0.064699,-0.011077,-0.587842,0.189584,-0.297082,-26.673775,-83.880837,22.398087
01305,198218,9.656131,-0.495033,1.162206,-0.000819,-0.081348,-0.005798,-0.587323,0.190620,-0.298031,-26.831703,-83.924737,22.556564
01306,198318,9.686739,-0.533778,1.195346,-0.000951,-0.085390,-0.005028,-0.589815,0.190161,-0.298057,-27.005674,-83.970431,22.731085
01307,198418,9.715998,-0.445022,1.218829,0.006885,-0.083059,-0.002404,-0.585248,0.190307,-0.302554,-27.184657,-84.014173,22.915144
01308,198518,9.770228,-0.283687,1.203183,0.004733,-0.079506,-0.003230,-0.592216,0.188449,-0.303157,-27.354333,-84.056249,23.088592
01309,198618,9.797623,-0.142881,1.084714,0.004037,-0.068341,-0.009222,-0.588707,0.190435,-0.304054,-27.468603,-84.094181,23.205922
01310,198718,9.790820,-0.082553,1.014108,0.000822,-0.060883,-0.015855,-0.585702,0.188941,-0.305129,-27.533946,-84.130064,23.272208
01311,198818,9.806269,-0.101578,1.011867,-0.008224,-0.055344,-0.021404,-0.585694,0.193425,-0.304901,-27.563098,-84.164604,23.296900
01312,198918,9.787260,-0.163312,1.025452,-0.016578,-0.045240,-0.027661,-0.588708,0.189438,-0.304105,-27.539531,-84.195669,23.263787
01313,199018,9.752830,-0.253480,1.034405,-0.022894,-0.039459,-0.028841,-0.586630,0.191118,-0.308527,-27.498089,-84.224103,23.209073
01314,199118,9.728113,-0.361411,1.073460,-0.022743,-0.034227,-0.031713,-0.589614,0.193656,-0.308400,-27.427770,-84.250619,23.125424
01315,199218,9.758072,-0.435841,1.084733,-0.010223,-0.036191,-0.029723,-0.587086,0.193713,-0.310399,-27.364780,-84.277585,23.056354
01316,199318,9.751071,-0.446192,1.105711,0.001797,-0.037792,-0.029675,-0.588077,0.191262,-0.311026,-27.298685,-84.305328,22.991087
01317,199418,9.762880,-0.388104,1.093478,0.011317,-0.035359,-0.027660,-0.586592,0.191214,-0.310526,-27.230328,-84.331282,22.929032
01318,199518,9.785235,-0.285060,1.020573,0.015140,-0.027523,-0.026538,-0.588529,0.191390,-0.313525,-27.144115,-84.352935,22.851237
01319,199618,9.718134,-0.220767,0.882062,0.014632,-0.018918,-0.023262,-0.586533,0.193352,-0.313423,-27.051656,-84.369338,22.766875
01320,199718,9.601174,-0.258792,0.748793,0.008723,-0.017676,-0.021277,-0.587001,0.189470,-0.315626,-26.969069,-84.384591,22.689035
01321,199818,9.513314,-0.333158,0.705942,0.004346,-0.023030,-0.020140,-0.586999,0.190466,-0.315575,-26.908678,-84.402286,22.630980
01322,199918,9.397270,-0.424174,0.743243,0.003752,-0.041080,-0.012828,-0.590503,0.191470,-0.314525,-26.934518,-84.427308,22.659226
01323,200018,9.351405,-0.533347,0.879007,0.008701,-0.061946,-0.003550,-0.591002,0.190980,-0.314551,-27.062617,-84.460556,22.793061
01324,200118,9.308462,-0.634330,0.965275,0.023063,-0.076851,0.003162,-0.591066,0.185853,-0.311806,-27.260242,-84.499591,23.005003
01325,200218,9.358651,-0.753077,1.080203,0.043037,-0.085501,0.010497,-0.588555,0.187356,-0.312729,-27.512439,-84.540981,23.283248
01326,200318,9.455975,-0.823060,1.099516,0.060857,-0.086596,0.016997,-0.589561,0.186850,-0.312255,-27.796477,-84.581039,23.603712
01327,200418,9.532920,-0.956775,1.066994,0.085508,-0.075245,0.022236,-0.590524,0.189927,-0.313602,-28.066772,-84.613759,23.924538
01328,200518,9.552576,-1.112766,0.912446,0.110557,-0.060162,0.030939,-0.591037,0.186922,-0.313255,-28.329797,-84.636335,24.252459
01329,200618,9.533397,-1.310559,0.683027,0.136639,-0.058412,0.039983,-0.593020,0.186977,-0.313755,-28.624566,-84.655383,24.627258
01330,200718,9.528391,-1.498811,0.552901,0.164947,-0.077415,0.050345,-0.594061,0.187869,-0.311206,-29.018801,-84.680875,25.118228
01331,200818,9.621560,-1.608236,0.593427,0.193796,-0.105518,0.065176,-0.594577,0.182871,-0.310960,-29.567301,-84.715847,25.780697
01332,200918,9.801310,-1.609834,0.775360,0.221774,-0.125788,0.082472,-0.595594,0.181842,-0.310012,-30.265527,-84.755232,26.609580
01333,201018,9.835310,-1.724642,1.045315,0.264165,-0.121554,0.107028,-0.597606,0.181327,-0.309038,-31.069995,-84.784287,27.569490
01334,201118,10.181787,-1.377155,1.063478,0.246195,-0.143745,0.113883,-0.596630,0.180267,-0.308089,-32.006029,-84.820741,28.651118
01335,201218,10.087269,-1.265557,1.169639,0.278963,-0.146243,0.129392,-0.595120,0.178797,-0.309164,-33.028951,-84.851889,29.838779
01336,201318,10.057864,-1.121413,1.350970,0.293779,-0.140734,0.134724,-0.598114,0.180813,-0.308564,-34.064999,-84.876729,31.048088
01337,201418,10.078426,-0.847294,1.361003,0.289365,-0.154664,0.132450,-0.600157,0.178233,-0.306192,-35.153695,-84.906817,32.307664
01338,201518,10.202087,-0.559269,1.318529,0.274159,-0.152315,0.126328,-0.600638,0.177791,-0.307217,-36.223419,-84.935705,33.539389
01339,201618,10.118089,-0.365231,1.215543,0.249317,-0.129911,0.109420,-0.599697,0.178128,-0.304193,-37.144166,-84.958168,34.607220
01340,201718,9.914466,-0.254223,1.197264,0.218693,-0.145821,0.088017,-0.599692,0.175662,-0.304820,-38.044849,-84.993823,35.637248
01341,201818,9.852156,-0.114492,1.393568,0.180334,-0.199559,0.072764,-0.600689,0.175179,-0.304845,-39.126198,-85.057413,36.826488
01342,201918,9.850837,-0.180017,1.667673,0.147036,-0.244970,0.060823,-0.601730,0.176071,-0.302296,-40.391662,-85.143218,38.181237
01343,202018,9.819337,-0.355905,1.744054,0.143979,-0.250644,0.047178,-0.601241,0.176039,-0.301796,-41.660469,-85.233976,39.537407
01344,202118,9.654564,-0.596222,1.641967,0.170446,-0.239803,0.047459,-0.603774,0.172993,-0.299950,-42.913258,-85.317445,40.892549
01345,202218,9.478664,-0.814960,1.509102,0.210364,-0.229729,0.048562,-0.603253,0.170566,-0.301576,-44.144774,-85.393791,42.249139
01346,202318,9.357481,-0.985887,1.443615,0.256019,-0.221215,0.042647,-0.604312,0.171410,-0.298027,-45.318695,-85.466663,43.574050
01347,202418,9.286136,-1.078794,1.357303,0.284654,-0.217872,0.035453,-0.604820,0.171394,-0.297527,-46.461921,-85.538941,44.884496
01348,202518,9.198997,-1.091764,1.400174,0.306705,-0.214338,0.028553,-0.605831,0.168396,-0.297180,-47.577778,-85.610617,46.180034
01349,202618,9.169958,-1.011110,1.444971,0.318850,-0.213053,0.024314,-0.604876,0.165793,-0.295308,-48.697159,-85.681575,47.485962
01350,202718,9.094617,-0.872302,1.549400,0.324520,-0.218091,0.019042,-0.608374,0.164828,-0.294860,-49.856155,-85.754651,48.834750
01351,202818,9.083821,-0.742435,1.681664,0.319048,-0.225176,0.016745,-0.608362,0.166346,-0.295284,-51.092755,-85.829138,50.258080
01352,202918,9.088370,-0.642861,1.750178,0.297143,-0.229901,0.015357,-0.609935,0.163686,-0.291413,-52.411779,-85.903514,51.751332
01353,203018,9.152768,-0.636969,1.708428,0.259947,-0.233220,0.014792,-0.609438,0.163180,-0.291438,-53.821452,-85.976647,53.313957
01354,203118,9.232116,-0.672446,1.617342,0.216958,-0.237696,0.017344,-0.609932,0.160223,-0.292090,-55.351463,-86.047156,54.972388
01355,203218,9.342609,-0.692649,1.501115,0.181804,-0.238298,0.015086,-0.613927,0.159763,-0.291617,-56.951315,-86.115704,56.680494
01356,203318,9.445231,-0.698638,1.359727,0.159089,-0.238570,0.009647,-0.613974,0.159643,-0.289118,-58.599088,-86.183590,58.423449
01357,203418,9.551829,-0.690166,1.304659,0.148484,-0.235102,0.001123,-0.615511,0.156581,-0.287272,-60.248725,-86.251234,60.162046
01358,203518,9.613488,-0.680270,1.314947,0.145484,-0.238320,-0.012815,-0.617513,0.156090,-0.286798,-61.926840,-86.323362,61.927320
01359,203618,9.681130,-0.662171,1.383818,0.152995,-0.233138,-0.027170,-0.618081,0.153439,-0.283426,-63.566624,-86.398063,63.658352
01360,203718,9.736460,-0.641128,1.555928,0.172918,-0.243425,-0.040144,-0.617055,0.154491,-0.284875,-65.299929,-86.478706,65.494376
01361,203818,9.920830,-0.612155,1.697991,0.178548,-0.249792,-0.049744,-0.619543,0.151067,-0.285553,-67.130573,-86.562228,67.430989
01362,203918,9.631272,-0.628359,1.843621,0.175391,-0.254864,-0.072486,-0.620083,0.147990,-0.283706,-69.019699,-86.655021,69.424195
01363,204018,9.910574,-0.730888,2.014590,0.179636,-0.232863,-0.073703,-0.623105,0.150432,-0.281581,-70.799191,-86.740261,71.309840
01364,204118,9.848747,-0.775978,1.936253,0.161443,-0.210420,-0.065300,-0.623642,0.143890,-0.280412,-72.488583,-86.813498,73.094653
01365,204218,9.708816,-0.745875,1.823821,0.146520,-0.210556,-0.063239,-0.624626,0.145923,-0.280811,-74.271807,-86.882507,74.964751
01366,204318,9.666465,-0.678465,1.784235,0.136082,-0.201140,-0.062182,-0.623678,0.144790,-0.278362,-76.044190,-86.946286,76.817887
01367,204418,9.546700,-0.601674,1.764278,0.129146,-0.178551,-0.065958,-0.628680,0.143327,-0.277440,-77.643163,-87.006232,78.493283
01368,204518,9.474056,-0.585455,1.758218,0.120581,-0.161764,-0.072183,-0.629690,0.140827,-0.277068,-79.113112,-87.065318,80.034476
01369,204618,9.439333,-0.575454,1.772866,0.115463,-0.146704,-0.077504,-0.630213,0.137798,-0.276221,-80.465181,-87.123869,81.454618
01370,204718,9.395123,-0.622825,1.783315,0.112330,-0.138247,-0.081575,-0.631677,0.138890,-0.277670,-81.769313,-87.182266,82.824893
01371,204818,9.423970,-0.719689,1.810174,0.115495,-0.122118,-0.084073,-0.630243,0.136231,-0.274798,-82.931177,-87.239339,84.054477
01372,204918,9.464298,-0.810778,1.801019,0.123129,-0.102062,-0.083981,-0.632642,0.135515,-0.279847,-83.894325,-87.293885,85.089439
01373,205018,9.486544,-0.876542,1.717638,0.134017,-0.086467,-0.082985,-0.631730,0.135282,-0.275349,-84.698650,-87.346167,85.971602
01374,205118,9.509897,-0.887811,1.711938,0.148724,-0.087092,-0.083886,-0.631707,0.132365,-0.277001,-85.532739,-87.398361,86.891955
01375,205218,9.559164,-0.895909,1.711395,0.171457,-0.090407,-0.085555,-0.633691,0.131922,-0.277526,-86.428133,-87.450962,87.886675
01376,205318,9.637832,-0.901666,1.792419,0.205189,-0.083113,-0.089262,-0.635185,0.132444,-0.277502,-87.242861,-87.504744,88.819953
01377,205418,9.836887,-0.879373,1.950640,0.239315,-0.057618,-0.094998,-0.633748,0.131280,-0.274553,-87.727857,-87.560668,89.442722
01378,205518,10.056443,-0.934654,2.107591,0.264002,-0.020041,-0.102467,-0.634206,0.127920,-0.277230,-87.700280,-87.619867,89.566592
01379,205618,10.182898,-1.044741,2.183427,0.276210,0.024231,-0.105727,-0.637704,0.126955,-0.276782,-87.037121,-87.679757,89.061338
01380,205718,10.228603,-1.065436,2.170469,0.276797,0.059275,-0.103058,-0.636209,0.126931,-0.276782,-85.834558,-87.736482,88.016601
01381,205818,10.342719,-0.910179,2.187949,0.264060,0.101670,-0.102190,-0.636184,0.125509,-0.278357,-83.953118,-87.789371,86.285203
01382,205918,10.516966,-0.603828,2.315261,0.246556,0.166084,-0.103246,-0.637173,0.124054,-0.278934,-81.022068,-87.835136,83.493444
01383,206018,10.755215,-0.314093,2.344414,0.221372,0.250460,-0.109403,-0.639582,0.123314,-0.283483,-76.695410,-87.868181,79.290725
01384,206118,10.886299,-0.086224,2.237852,0.191645,0.312288,-0.118252,-0.636590,0.120301,-0.284135,-71.318032,-87.882887,74.019577
01385,206218,10.966595,0.035608,2.035539,0.144235,0.343255,-0.121425,-0.637004,0.120526,-0.288633,-65.480280,-87.873561,68.260558
01386,206318,11.053982,-0.010387,1.688222,0.092840,0.347348,-0.119350,-0.638489,0.120076,-0.289159,-59.739431,-87.840608,62.568954
01387,206418,11.102539,-0.208779,1.235368,0.056195,0.335854,-0.119601,-0.635413,0.117280,-0.294308,-54.378771,-87.790907,57.236642
01388,206518,11.353124,-0.473833,0.810844,0.044357,0.327508,-0.115739,-0.635357,0.117424,-0.297307,-49.429211,-87.724338,52.308739
01389,206618,11.882825,-0.805918,0.335305,0.079489,0.339357,-0.105730,-0.635372,0.114411,-0.296960,-44.756367,-87.632995,47.677649
01390,206718,12.349817,-1.248138,-0.191398,0.132633,0.326418,-0.078388,-0.636792,0.114627,-0.300959,-40.814038,-87.522644,43.807862
01391,206818,12.701645,-1.641026,-0.908963,0.187047,0.265960,-0.059428,-0.636265,0.115190,-0.302433,-37.850430,-87.422627,40.948645
01392,206918,13.066903,-1.759598,-1.332578,0.259904,0.180616,-0.049629,-0.636673,0.113446,-0.307532,-35.781596,-87.353047,39.026728
01393,207018,12.960364,-1.388583,-1.270256,0.306306,0.074069,-0.056660,-0.639230,0.112818,-0.304060,-34.452695,-87.333254,37.872087
01394,207118,12.389829,-0.893192,-0.813410,0.318251,-0.031516,-0.077091,-0.640165,0.110511,-0.307686,-33.646053,-87.369229,37.247121
01395,207218,12.031942,-0.430830,-0.076534,0.299131,-0.100109,-0.098682,-0.639678,0.109483,-0.307237,-33.077172,-87.444538,36.849219
01396,207318,11.683498,-0.041430,0.455947,0.249065,-0.096980,-0.110723,-0.643188,0.107497,-0.306340,-32.351078,-87.521892,36.265258
01397,207418,11.092074,0.205296,0.801764,0.173796,-0.051915,-0.105296,-0.641679,0.105031,-0.307466,-31.367955,-87.575300,35.380891
01398,207518,10.418591,0.368032,0.987788,0.076128,0.013221,-0.089876,-0.645675,0.104073,-0.307018,-30.130130,-87.591378,34.185603
01399,207618,9.559712,0.432766,0.894381,-0.041499,0.079956,-0.071085,-0.647161,0.103623,-0.307544,-28.729243,-87.567705,32.759644
01400,207718,8.653282,0.508575,0.519923,-0.160929,0.129513,-0.054179,-0.646626,0.103711,-0.309543,-27.321016,-87.512973,31.257803
01401,207818,8.040807,0.515166,0.073272,-0.246287,0.158889,-0.037619,-0.645616,0.106211,-0.309915,-26.050239,-87.437504,29.844514
01402,207918,7.673797,0.566166,-0.429634,-0.291899,0.173512,-0.014216,-0.648547,0.107399,-0.312864,-25.069431,-87.347573,28.695243
01403,208018,7.532930,0.592103,-1.000861,-0.306457,0.171298,0.002704,-0.646558,0.105374,-0.312965,-24.362544,-87.254112,27.811763
01404,208118,7.564385,0.687512,-1.494369,-0.306199,0.148351,0.009858,-0.646002,0.106508,-0.315913,-23.890944,-87.170720,27.163936
01405,208218,7.751516,0.758053,-1.691804,-0.298998,0.103757,0.008007,-0.647494,0.107528,-0.315863,-23.629194,-87.111124,26.730316
01406,208318,8.096915,0.791199,-1.534098,-0.272231,0.053387,0.003182,-0.646477,0.109055,-0.316786,-23.540363,-87.079192,26.485180
01407,208418,8.662917,0.791297,-1.196099,-0.221213,0.004841,-0.002262,-0.646421,0.109199,-0.319785,-23.585806,-87.074151,26.403761
01408,208518,9.333047,0.659868,-0.787239,-0.164975,-0.038330,-0.004173,-0.646473,0.111048,-0.316684,-23.773780,-87.092334,26.497325
01409,208618,9.910904,0.481600,-0.368869,-0.113694,-0.064941,-0.002891,-0.646974,0.109561,-0.316761,-24.070207,-87.124227,26.728900
01410,208718,10.321112,0.365412,-0.052177,-0.083506,-0.078472,0.005020,-0.646484,0.115484,-0.315456,-24.502616,-87.161314,27.113937
01411,208818,10.619876,0.264315,0.180188,-0.091179,-0.057330,0.017100,-0.645948,0.116070,-0.317430,-24.973804,-87.184400,27.533392
01412,208918,10.700031,0.305604,0.396854,-0.118799,-0.019558,0.026361,-0.645973,0.117493,-0.315854,-25.376176,-87.185517,27.868100
01413,209018,10.616183,0.398484,0.547308,-0.165240,0.022868,0.028271,-0.646443,0.117573,-0.317353,-25.611409,-87.164158,28.008828
01414,209118,10.460984,0.476231,0.626705,-0.213050,0.048931,0.021098,-0.645445,0.118553,-0.317302,-25.666775,-87.131119,27.942043
01415,209218,10.166562,0.559067,0.685565,-0.247724,0.051170,0.011382,-0.644955,0.119518,-0.316752,-25.631139,-87.099353,27.764250
01416,209318,9.794820,0.639974,0.689738,-0.280301,0.037631,0.001387,-0.651447,0.120569,-0.315703,-25.579699,-87.077071,27.551937
01417,209418,9.414848,0.737534,0.650289,-0.305086,0.012723,-0.012385,-0.647430,0.123069,-0.317074,-25.523982,-87.071081,27.321121
01418,209518,9.050540,0.719501,0.651644,-0.327283,-0.007091,-0.021867,-0.647892,0.127633,-0.318345,-25.479746,-87.077687,27.089065
01419,209618,8.750165,0.626211,0.640234,-0.337943,-0.019626,-0.025504,-0.649405,0.127609,-0.317346,-25.463556,-87.091683,26.878978
01420,209718,8.557790,0.521309,0.642471,-0.332552,-0.038127,-0.026810,-0.648405,0.129586,-0.317244,-25.519085,-87.115586,26.743798
01421,209818,8.506618,0.339666,0.616030,-0.318795,-0.053559,-0.028524,-0.645919,0.132512,-0.316591,-25.624089,-87.147906,26.666049
01422,209918,8.539399,0.119053,0.588080,-0.302632,-0.063466,-0.030372,-0.648377,0.135115,-0.317964,-25.750452,-87.185809,26.618958
01423,210018,8.565783,-0.053094,0.501824,-0.289139,-0.072790,-0.026660,-0.647410,0.134030,-0.316515,-25.957762,-87.227602,26.660652
01424,210118,8.549505,-0.137121,0.439421,-0.283253,-0.089056,-0.024673,-0.648900,0.137043,-0.316364,-26.273407,-87.277256,26.814178
01425,210218,8.560318,-0.145529,0.370395,-0.277155,-0.115034,-0.024254,-0.649404,0.138522,-0.315788,-26.742207,-87.340077,27.124519
01426,210318,8.543343,-0.120703,0.432118,-0.268535,-0.146988,-0.022424,-0.650921,0.141463,-0.314137,-27.431063,-87.418575,27.660071
01427,210418,8.502233,-0.058619,0.518503,-0.253378,-0.184259,-0.022683,-0.649923,0.142443,-0.314085,-28.378103,-87.515657,28.462713
01428,210518,8.522219,0.088985,0.645842,-0.224907,-0.215760,-0.024639,-0.653901,0.141036,-0.314662,-29.568869,-87.628390,29.525562
01429,210618,8.628438,0.205783,0.735854,-0.189782,-0.237359,-0.024581,-0.649463,0.141841,-0.312111,-31.012338,-87.750724,30.861369
01430,210718,8.753350,0.184861,0.741357,-0.150733,-0.253366,-0.023315,-0.649982,0.140804,-0.311162,-32.740632,-87.878924,32.504479
01431,210818,8.911918,0.125818,0.695212,-0.110319,-0.252611,-0.020039,-0.651984,0.140313,-0.310689,-34.696638,-88.003639,34.398482
01432,210918,9.065179,0.052414,0.633418,-0.073618,-0.233211,-0.015541,-0.655964,0.143366,-0.310538,-36.744105,-88.115368,36.404899
01433,211018,9.226597,0.067207,0.645880,-0.038505,-0.195175,-0.010796,-0.655522,0.143214,-0.307539,-38.651878,-88.205772,38.291561
01434,211118,9.402671,0.121210,0.648780,-0.002639,-0.151016,-0.003432,-0.656998,0.142787,-0.308564,-40.295134,-88.272036,39.934057
01435,211218,9.527638,0.234095,0.670802,0.032822,-0.127088,0.002381,-0.656494,0.141309,-0.309140,-41.816578,-88.324359,41.474962
01436,211318,9.584343,0.328582,0.744451,0.065221,-0.134696,0.004731,-0.658032,0.142707,-0.306565,-43.555450,-88.377658,43.251912
01437,211418,9.645562,0.327633,0.836285,0.089297,-0.154024,0.003744,-0.660518,0.139781,-0.307218,-45.670667,-88.437497,45.419099
01438,211518,9.806863,0.337231,0.941490,0.107747,-0.156777,0.007360,-0.658540,0.142192,-0.306091,-48.037364,-88.494505,47.848369
01439,211618,9.967822,0.334733,0.983022,0.105154,-0.112506,0.021199,-0.660012,0.144755,-0.306964,-50.020511,-88.526379,49.892421
01440,211718,9.942907,0.281727,0.937629,0.076517,-0.043628,0.040196,-0.660462,0.145382,-0.309438,-51.155141,-88.523326,51.071247
01441,211818,9.766832,0.241234,0.805483,0.050132,0.017079,0.068895,-0.658988,0.144314,-0.308488,-51.637160,-88.485298,51.582130
01442,211918,9.626268,0.232028,0.740756,0.038386,0.055818,0.093360,-0.658496,0.146275,-0.307887,-51.776572,-88.422448,51.743562
01443,212018,9.605569,0.153130,0.693915,0.027345,0.065307,0.113412,-0.657967,0.147834,-0.309310,-52.006824,-88.347195,51.989550
01444,212118,9.650037,0.147726,0.738286,0.030720,0.089776,0.125700,-0.659454,0.146885,-0.309861,-51.990802,-88.257754,51.991106
01445,212218,9.735125,0.205256,0.912600,0.027626,0.107853,0.143245,-0.658411,0.152446,-0.311581,-51.914653,-88.154012,51.930737
01446,212318,9.781164,0.370206,0.961227,0.010102,0.126064,0.153413,-0.659386,0.154005,-0.312504,-51.719279,-88.039246,51.741032
01447,212418,9.936490,0.503598,1.061120,-0.007666,0.149977,0.160088,-0.656825,0.157123,-0.315850,-51.324007,-87.912943,51.341111
01448,212518,10.091534,0.615821,1.162471,-0.032628,0.184065,0.159201,-0.654857,0.158514,-0.314274,-50.587256,-87.774610,50.585129
01449,212618,10.156251,0.704966,1.249579,-0.053413,0.219221,0.150424,-0.654248,0.158795,-0.320271,-49.497329,-87.626772,49.463701
01450,212718,10.304876,0.854193,1.454532,-0.056226,0.251755,0.141012,-0.654759,0.161744,-0.319119,-48.139657,-87.469801,48.072553
01451,212818,10.427542,0.946909,1.666736,-0.048617,0.291374,0.124188,-0.653717,0.166807,-0.320864,-46.444574,-87.302988,46.347840
01452,212918,10.689971,0.788243,1.865946,-0.030186,0.357309,0.114150,-0.653681,0.165907,-0.322914,-44.327703,-87.111189,44.211166
01453,213018,11.198871,0.385390,2.022819,0.008541,0.470636,0.129573,-0.650587,0.168117,-0.328309,-41.773804,-86.861760,41.658675
01454,213118,11.919045,-0.063287,1.868752,0.062803,0.590666,0.160283,-0.648994,0.171324,-0.333155,-39.067372,-86.542600,38.983859
01455,213218,12.282610,-0.354352,1.613957,0.126762,0.684528,0.193669,-0.645421,0.172980,-0.337575,-36.531764,-86.162481,36.515966
01456,213318,12.275697,-0.327538,1.405032,0.154619,0.716147,0.199235,-0.644823,0.176700,-0.342395,-34.331599,-85.759592,34.399236
01457,213418,12.717685,-0.295480,1.223333,0.152346,0.735212,0.192173,-0.641690,0.179505,-0.349765,-32.394789,-85.344705,32.544250
01458,213518,13.392848,-0.392652,0.763152,0.148804,0.755461,0.201235,-0.639581,0.182752,-0.355609,-30.754860,-84.912982,30.984087
01459,213618,13.676308,-0.367139,-0.050865,0.137356,0.712655,0.207024,-0.637537,0.185332,-0.357981,-29.527699,-84.497744,29.830864
01460,213718,13.138094,-0.185540,-0.987942,0.089170,0.584199,0.183464,-0.635436,0.189053,-0.363300,-28.722316,-84.151731,29.073030
01461,213818,12.176390,-0.049247,-1.720879,0.004556,0.379258,0.140778,-0.635408,0.189125,-0.364799,-28.367931,-83.920037,28.719527
01462,213918,11.398572,0.005108,-1.862520,-0.079638,0.149513,0.099661,-0.634893,0.193625,-0.365071,-28.467266,-83.815468,28.773737
01463,214018,10.760170,-0.079874,-1.498071,-0.113896,-0.048553,0.079051,-0.636363,0.197185,-0.365893,-28.989082,-83.816245,29.233166
01464,214118,10.010112,-0.242683,-1.083248,-0.099862,-0.196800,0.064864,-0.635381,0.199612,-0.364766,-29.828190,-83.894568,30.019772
01465,214218,9.095950,-0.413197,-0.795949,-0.044992,-0.335672,0.045032,-0.638928,0.201990,-0.361141,-30.952431,-84.045938,31.124537
01466,214318,8.256880,-0.709563,-0.296083,0.049062,-0.471173,0.020979,-0.636455,0.202400,-0.360116,-32.375086,-84.268077,32.583060
01467,214418,7.646106,-1.083982,0.247740,0.178177,-0.531558,-0.008266,-0.641025,0.205718,-0.354941,-33.894220,-84.524479,34.212236
01468,214518,7.205855,-1.445597,0.679729,0.325460,-0.505895,-0.032033,-0.641045,0.205172,-0.353967,-35.266319,-84.772368,35.777791
01469,214618,6.988388,-1.831764,0.800708,0.471160,-0.404945,-0.044689,-0.640131,0.205936,-0.349417,-36.238536,-84.974443,37.025100
01470,214718,6.919093,-2.273239,0.534681,0.586852,-0.276123,-0.040766,-0.639617,0.203983,-0.350518,-36.733294,-85.114323,37.859358
01471,214818,7.099357,-2.520170,0.233820,0.656958,-0.136007,-0.018486,-0.639090,0.204546,-0.351992,-36.769653,-85.181847,38.273745
01472,214918,7.602105,-2.439662,0.126647,0.670730,0.018694,0.012435,-0.638567,0.203115,-0.353568,-36.342549,-85.167697,38.230918
01473,215018,8.168619,-2.097373,0.058434,0.625216,0.161700,0.036604,-0.636088,0.202055,-0.353118,-35.513174,-85.079016,37.758183
01474,215118,8.726901,-1.593840,0.046181,0.520358,0.239982,0.066363,-0.632564,0.202096,-0.355116,-34.635400,-84.943246,37.176479
01475,215218,9.324302,-1.009290,0.070752,0.390893,0.237449,0.107149,-0.631946,0.201405,-0.361664,-34.091374,-84.794902,36.855265
01476,215318,10.124718,-0.311326,0.174022,0.262823,0.205615,0.145706,-0.632919,0.203960,-0.362537,-33.948174,-84.649206,36.862820
01477,215418,11.061422,0.252689,0.200327,0.177885,0.188912,0.172080,-0.629906,0.201992,-0.364137,-34.042218,-84.503082,37.059811
01478,215518,11.703426,0.517804,-0.007211,0.126036,0.181593,0.188275,-0.629412,0.204950,-0.363485,-34.259319,-84.355284,37.350650
01479,215618,11.667350,0.428662,-0.250146,0.054409,0.149926,0.178884,-0.627347,0.209072,-0.366780,-34.561755,-84.225494,37.686082
01480,215718,10.900963,0.178213,-0.244659,-0.035227,0.074000,0.128721,-0.627868,0.206541,-0.365907,-34.913848,-84.147751,38.019871
01481,215818,10.120294,-0.091669,-0.058029,-0.102273,-0.038048,0.074950,-0.626371,0.213468,-0.365051,-35.411388,-84.140065,38.461281
01482,215918,9.565194,-0.280742,0.266155,-0.122757,-0.128962,0.029884,-0.625850,0.215501,-0.365949,-36.014064,-84.189361,38.996560
01483,216018,9.212332,-0.418573,0.545442,-0.104893,-0.178476,-0.006553,-0.626386,0.215413,-0.363950,-36.617769,-84.273326,39.543096
01484,216118,8.954413,-0.629013,0.700738,-0.064250,-0.197000,-0.029054,-0.628391,0.213926,-0.363527,-37.176194,-84.372959,40.067439
01485,216218,8.693801,-0.844596,0.761872,-0.013696,-0.204095,-0.038547,-0.625420,0.219286,-0.361747,-37.706414,-84.478616,40.592449
01486,216318,8.468779,-1.010210,0.828380,0.024390,-0.220676,-0.042205,-0.626426,0.218780,-0.361273,-38.280274,-84.592528,41.183117
01487,216418,8.375643,-1.138007,0.970671,0.049943,-0.232194,-0.037035,-0.625972,0.220146,-0.358698,-38.934369,-84.709101,41.868960
01488,216518,8.422985,-1.186841,1.140672,0.066057,-0.235500,-0.025841,-0.624958,0.219681,-0.359723,-39.677414,-84.822237,42.653266
01489,216618,8.626139,-1.152834,1.249923,0.071966,-0.223539,-0.012810,-0.624979,0.218636,-0.358774,-40.465148,-84.924302,43.485702
01490,216718,8.797677,-1.054749,1.208974,0.059999,-0.196887,-0.006406,-0.625981,0.220621,-0.358173,-41.209199,-85.011363,44.267278
01491,216818,8.866226,-0.991062,1.059502,0.034331,-0.182555,-0.002251,-0.626023,0.222991,-0.355547,-41.951952,-85.089768,45.032690
01492,216918,8.829712,-0.955455,0.942321,-0.000794,-0.195924,-0.001201,-0.625542,0.223932,-0.354496,-42.806437,-85.172469,45.889946
01493,217018,8.830890,-0.921307,0.894293,-0.031110,-0.214860,-0.002808,-0.626011,0.224510,-0.355970,-43.790822,-85.262495,46.860014
01494,217118,8.775584,-0.894417,0.947797,-0.052806,-0.222849,-0.008295,-0.627034,0.224952,-0.354446,-44.837854,-85.356516,47.880335
01495,217218,8.777994,-0.913454,1.011246,-0.070437,-0.217453,-0.014797,-0.626999,0.224052,-0.356496,-45.877233,-85.449446,48.882708
01496,217318,8.713219,-0.880439,1.091060,-0.092211,-0.206809,-0.020490,-0.625549,0.224904,-0.353945,-46.885946,-85.539043,49.841676
01497,217418,8.629655,-0.870400,1.215491,-0.116767,-0.215399,-0.024698,-0.629041,0.227427,-0.353320,-47.975636,-85.632308,50.867630
01498,217518,8.554365,-0.780488,1.268952,-0.136701,-0.256405,-0.030136,-0.628066,0.225868,-0.352396,-49.333644,-85.741686,52.151071
01499,217618,8.518234,-0.691304,1.343243,-0.133732,-0.288276,-0.047462,-0.626598,0.226768,-0.350845,-50.867300,-85.867885,53.612137
01500,217718,8.572317,-0.714548,1.325800,-0.106672,-0.279362,-0.068995,-0.629596,0.226792,-0.350346,-52.312915,-85.997716,55.000246
01501,217818,8.796057,-0.776851,1.230470,-0.059370,-0.239988,-0.087791,-0.631596,0.227796,-0.349797,-53.462723,-86.120219,56.118798
01502,217918,9.107185,-0.822765,1.147845,-0.001793,-0.196543,-0.096566,-0.632118,0.229724,-0.348196,-54.300174,-86.230720,56.957201
01503,218018,9.343522,-0.902536,1.047583,0.046253,-0.179261,-0.108673,-0.629605,0.226768,-0.349847,-54.971247,-86.340368,57.656355
01504,218118,9.557703,-1.072298,1.054230,0.085969,-0.199989,-0.123597,-0.632135,0.225216,-0.347924,-55.742402,-86.463184,58.478495
01505,218218,9.904824,-1.291610,1.146999,0.135380,-0.225668,-0.134552,-0.632148,0.223199,-0.347526,-56.690623,-86.598556,59.506272
01506,218318,10.394819,-1.419417,1.245363,0.183380,-0.246589,-0.133010,-0.632652,0.225176,-0.346925,-57.878730,-86.738422,60.801740
01507,218418,10.760295,-1.384384,1.386507,0.209711,-0.237806,-0.131051,-0.632655,0.223681,-0.347001,-59.093409,-86.873029,62.138754
01508,218518,10.969101,-1.241293,1.545676,0.207266,-0.211358,-0.136256,-0.634140,0.223729,-0.347502,-60.143564,-87.000982,63.309435
01509,218618,10.879061,-0.982834,1.585498,0.190731,-0.187932,-0.151478,-0.639135,0.221293,-0.347130,-60.983188,-87.128837,64.259684
01510,218718,10.559601,-0.694459,1.397801,0.169952,-0.190343,-0.173189,-0.635148,0.222226,-0.347078,-61.820774,-87.267523,65.195858
01511,218818,10.106006,-0.468151,1.160228,0.146815,-0.206280,-0.199438,-0.639619,0.218360,-0.348282,-62.793994,-87.423022,66.254422
01512,218918,9.748610,-0.317781,0.956405,0.145194,-0.202941,-0.225257,-0.641175,0.215249,-0.345436,-63.702832,-87.590045,67.247474
01513,219018,9.545453,-0.305756,0.758872,0.156112,-0.177548,-0.244862,-0.640617,0.217877,-0.348308,-64.287704,-87.760211,67.922424
01514,219118,9.520345,-0.455454,0.739127,0.193926,-0.155984,-0.258283,-0.639130,0.213369,-0.348536,-64.553737,-87.931766,68.299908
01515,219218,9.614267,-0.628554,0.835725,0.243475,-0.157959,-0.265436,-0.642157,0.212822,-0.346563,-64.827001,-88.107427,68.712987
01516,219318,9.915121,-0.709991,1.085161,0.271157,-0.186985,-0.271895,-0.641129,0.209913,-0.348715,-65.608422,-88.293259,69.650293
01517,219418,10.556746,-0.678973,1.763684,0.266612,-0.176340,-0.276992,-0.644145,0.209888,-0.347216,-66.346259,-88.478828,70.541294
01518,219518,11.299891,-0.541683,2.548705,0.224696,-0.086363,-0.265421,-0.644636,0.208924,-0.347767,-65.438209,-88.637271,69.761788
01519,219618,11.930861,-0.366785,3.001787,0.151920,0.054572,-0.235638,-0.641105,0.207494,-0.350341,-61.363202,-88.743298,65.772825
01520,219718,12.187642,-0.202053,3.038557,0.074755,0.221116,-0.213984,-0.641577,0.206578,-0.351892,-53.199569,-88.776946,57.650160
01521,219818,12.234875,-0.138317,2.823320,0.011101,0.374451,-0.198631,-0.640511,0.204264,-0.356017,-42.306702,-88.715051,46.761085
01522,219918,12.286395,-0.158376,2.514620,-0.048777,0.492052,-0.185251,-0.640408,0.205027,-0.361489,-31.568395,-88.550626,35.991809
01523,220018,12.390692,-0.355250,2.042582,-0.113899,0.580240,-0.167625,-0.640882,0.203114,-0.363090,-22.924418,-88.295744,27.279317
01524,220118,12.381306,-0.554600,1.275530,-0.195923,0.617180,-0.144310,-0.637768,0.205373,-0.369485,-16.878648,-87.988165,21.118085
01525,220218,12.721677,-0.707523,0.504246,-0.206522,0.611552,-0.103759,-0.636170,0.206112,-0.374957,-13.067152,-87.661973,17.185449
01526,220318,13.074089,-0.906195,-0.622700,-0.231386,0.564981,-0.050807,-0.635067,0.208853,-0.380328,-10.974926,-87.348549,14.958554
01527,220418,13.083554,-1.124791,-2.052682,-0.218081,0.468827,-0.013885,-0.635001,0.209519,-0.383801,-9.919663,-87.083158,13.776961
01528,220518,12.365562,-1.170164,-3.388059,-0.208588,0.276286,0.008742,-0.632987,0.211529,-0.384698,-9.606828,-86.923893,13.344043
01529,220618,10.999953,-0.670910,-3.941619,-0.211609,0.051433,0.003892,-0.637464,0.215088,-0.384522,-9.665637,-86.892343,13.281548
01530,220718,9.961692,0.138239,-3.468410,-0.216844,-0.142646,-0.026522,-0.638924,0.213215,-0.386623,-9.756215,-86.973598,13.247875
01531,220818,9.388520,1.140081,-2.430488,-0.148356,-0.264486,-0.087367,-0.641399,0.217264,-0.386920,-9.358853,-87.129677,12.764916
01532,220918,8.860047,2.037994,-1.117318,-0.049514,-0.327708,-0.159614,-0.642473,0.215095,-0.383024,-8.093514,-87.327603,11.469741
01533,221018,8.499541,2.347756,0.143009,-0.002656,-0.336160,-0.216158,-0.642452,0.216139,-0.383973,-5.859663,-87.532347,9.232162
01534,221118,8.540843,2.037180,1.127418,-0.057035,-0.242387,-0.230600,-0.643019,0.213985,-0.380576,-2.977225,-87.679478,6.314537
01535,221218,8.872984,1.495243,1.419061,-0.178409,-0.073087,-0.207509,-0.644495,0.214057,-0.381576,-0.126038,-87.722942,3.358781
01536,221318,9.305479,0.841290,0.980908,-0.292236,0.129079,-0.145036,-0.645452,0.215166,-0.383525,1.755300,-87.646129,1.308356
01537,221418,9.471994,0.454877,0.192682,-0.360564,0.298108,-0.074887,-0.644443,0.217167,-0.383923,2.426612,-87.472217,0.429685
01538,221518,9.479680,0.167231,-0.679961,-0.404338,0.361477,-0.024409,-0.641920,0.219691,-0.385294,2.328680,-87.263129,0.295836
01539,221618,9.604906,-0.354024,-1.404073,-0.416403,0.323082,0.021388,-0.642349,0.221860,-0.388691,1.725116,-87.077117,0.661300
01540,221718,9.811539,-0.882001,-1.824431,-0.420182,0.225298,0.075511,-0.641356,0.225806,-0.387988,0.618819,-86.947644,1.528072
01541,221818,9.947638,-1.229159,-1.920290,-0.406203,0.113977,0.129273,-0.639851,0.226305,-0.388462,-0.971554,-86.880974,2.887731
01542,221918,10.042178,-1.266615,-1.493767,-0.357553,0.016648,0.174667,-0.642825,0.229366,-0.388810,-2.990030,-86.866987,4.704105
01543,222018,10.058608,-0.875731,-0.902131,-0.274615,-0.062690,0.194986,-0.641786,0.232934,-0.390631,-5.227800,-86.893928,6.787684
01544,222118,10.110611,-0.309756,-0.435464,-0.171921,-0.112594,0.180944,-0.639385,0.234148,-0.385556,-7.361009,-86.945892,8.825402
01545,222218,10.113768,0.217884,-0.087309,-0.073843,-0.124321,0.141129,-0.640931,0.236519,-0.382431,-9.097927,-87.004085,10.522447
01546,222318,9.913935,0.602457,0.145363,-0.010593,-0.115740,0.095967,-0.643428,0.238527,-0.381830,-10.351315,-87.059478,11.771513
01547,222418,9.622053,0.817524,0.245799,0.010964,-0.096913,0.055941,-0.646377,0.239667,-0.383780,-11.151227,-87.107410,12.578826
01548,222518,9.237832,0.922207,0.320159,-0.010619,-0.068972,0.028848,-0.641929,0.240994,-0.381703,-11.618823,-87.142279,13.040993
01549,222618,8.778640,0.906916,0.394064,-0.065075,-0.048417,0.011018,-0.644388,0.243099,-0.383101,-11.876566,-87.167570,13.261795
01550,222718,8.422458,0.860566,0.587834,-0.138754,-0.041760,0.007417,-0.643928,0.242496,-0.381127,-12.122731,-87.189518,13.428734
01551,222818,8.190032,0.786158,0.650967,-0.211542,-0.022926,0.016308,-0.647425,0.242030,-0.380654,-12.467768,-87.199799,13.652906
01552,222918,8.097764,0.616485,0.454860,-0.264267,0.011014,0.031842,-0.646447,0.241966,-0.379654,-12.933853,-87.189085,13.968026
01553,223018,8.087313,0.376246,0.207450,-0.294733,0.037119,0.054893,-0.647379,0.247108,-0.382399,-13.603716,-87.160649,14.469699
01554,223118,8.192300,0.167824,0.119853,-0.292780,0.045439,0.072571,-0.645425,0.246482,-0.380425,-14.433051,-87.124834,15.132180
01555,223218,8.303388,0.141295,0.130152,-0.263051,0.027456,0.077402,-0.646416,0.248989,-0.380298,-15.332811,-87.097793,15.882248
01556,223318,8.355822,0.165698,0.132400,-0.223684,-0.017455,0.066279,-0.648387,0.250563,-0.381222,-16.214966,-87.096684,16.637284
01557,223418,8.438214,0.188738,0.220536,-0.174682,-0.081243,0.051622,-0.647941,0.247446,-0.378875,-17.121415,-87.132418,17.444745
01558,223518,8.530099,0.255497,0.392008,-0.116070,-0.134858,0.038746,-0.647473,0.246369,-0.377427,-18.065722,-87.199014,18.323698
01559,223618,8.546279,0.321693,0.561747,-0.055098,-0.174136,0.029254,-0.648963,0.248884,-0.377300,-19.064637,-87.287932,19.292238
01560,223718,8.568652,0.429246,0.690775,-0.000496,-0.208318,0.023681,-0.648953,0.249406,-0.377774,-20.179616,-87.395497,20.408204
01561,223818,8.633338,0.525045,0.842700,0.037770,-0.216901,0.021250,-0.648005,0.248274,-0.375326,-21.378495,-87.507082,21.630000
01562,223918,8.731794,0.577355,0.970745,0.050714,-0.194081,0.020399,-0.653966,0.251880,-0.375650,-22.550299,-87.605564,22.832021
01563,224018,8.827514,0.604600,0.983629,0.041047,-0.145528,0.020650,-0.652013,0.250756,-0.373701,-23.554087,-87.677389,23.860262
01564,224118,8.887564,0.515681,0.895590,0.019304,-0.093290,0.026375,-0.653547,0.249686,-0.371753,-24.395706,-87.719832,24.713693
01565,224218,8.891025,0.399072,0.796320,0.001390,-0.058209,0.034147,-0.654017,0.249268,-0.373278,-25.163479,-87.741668,25.482926
01566,224318,8.885491,0.319264,0.717093,0.001417,-0.042175,0.039474,-0.652523,0.249245,-0.373277,-25.913111,-87.753490,26.234010
01567,224418,8.983171,0.314033,0.709497,0.019428,-0.045397,0.048640,-0.655008,0.247316,-0.373879,-26.801171,-87.764208,27.133949
01568,224518,9.147045,0.321626,0.638219,0.045536,-0.064939,0.057549,-0.654528,0.247259,-0.372880,-27.933219,-87.781902,28.293020
01569,224618,9.408588,0.342667,0.582193,0.077899,-0.097400,0.063508,-0.655046,0.246721,-0.371906,-29.379082,-87.813267,29.784674
01570,224718,9.664962,0.273879,0.657388,0.105495,-0.124729,0.066633,-0.655040,0.245250,-0.372482,-31.105998,-87.855662,31.573367
01571,224818,9.829130,0.141083,0.822274,0.130916,-0.136530,0.072409,-0.656563,0.244704,-0.371008,-33.062844,-87.899828,33.606671
01572,224918,9.956114,-0.004625,1.077382,0.148132,-0.134423,0.086975,-0.655063,0.247669,-0.370855,-35.262335,-87.935527,35.892597
01573,225018,9.992110,-0.152450,1.206064,0.151270,-0.103092,0.101086,-0.657054,0.243241,-0.371584,-37.407989,-87.948767,38.126415
01574,225118,9.998280,-0.327452,1.224856,0.150795,-0.049875,0.122499,-0.656570,0.245676,-0.370458,-39.302483,-87.927610,40.108642
01575,225218,9.981922,-0.351454,1.127628,0.143104,0.002492,0.151248,-0.655061,0.243707,-0.371558,-40.961505,-87.870662,41.850880
01576,225318,9.938256,-0.334205,0.991582,0.139693,0.032298,0.179351,-0.657975,0.243948,-0.375558,-42.540175,-87.788444,43.510833
01577,225418,9.852866,-0.217836,0.984362,0.138844,0.044259,0.201838,-0.657020,0.241344,-0.373685,-44.113321,-87.690683,45.164872
01578,225518,9.857661,-0.094965,1.063685,0.136719,0.041905,0.208642,-0.657993,0.243900,-0.374558,-45.642741,-87.589382,46.774046
01579,225618,9.977785,0.091809,1.303521,0.133406,0.032567,0.208932,-0.656519,0.243329,-0.373584,-47.137641,-87.489922,48.346888
01580,225718,10.047422,0.206283,1.351570,0.097364,0.027301,0.194560,-0.656996,0.244880,-0.374507,-48.463953,-87.396948,49.730419
01581,225818,10.172259,0.448738,1.539433,0.091391,0.040516,0.171231,-0.657446,0.245507,-0.376981,-49.391750,-87.307877,50.711683
01582,225918,10.288996,0.543928,1.779462,0.083513,0.082787,0.146511,-0.656928,0.246543,-0.377929,-49.692578,-87.213380,51.060815
01583,226018,10.409893,0.644767,1.911586,0.075835,0.158493,0.126344,-0.656404,0.245611,-0.379480,-49.172528,-87.099474,50.583684
01584,226118,10.563217,0.680236,1.993371,0.075194,0.253468,0.112896,-0.656388,0.244165,-0.380555,-47.824862,-86.954891,49.277400
01585,226218,10.687297,0.666453,2.024274,0.081093,0.352332,0.106122,-0.654336,0.245772,-0.383477,-45.816037,-86.772426,47.312154
01586,226318,10.913080,0.499071,2.174617,0.105510,0.447926,0.104707,-0.653256,0.246471,-0.387950,-43.366115,-86.547438,44.918684
01587,226418,11.357032,0.316581,2.207049,0.148464,0.538830,0.112790,-0.651708,0.245097,-0.391025,-40.717078,-86.274642,42.349744
01588,226518,12.045578,-0.130724,2.132034,0.216344,0.621055,0.127450,-0.652077,0.244446,-0.398072,-38.068646,-85.952924,39.819531
01589,226618,12.787859,-0.468280,1.624220,0.269869,0.688487,0.134596,-0.648486,0.246150,-0.403493,-35.525038,-85.590359,37.424117
01590,226718,13.059443,-0.541070,1.066885,0.291615,0.705512,0.144731,-0.645419,0.242832,-0.408168,-33.341477,-85.209513,35.401219
01591,226818,13.267228,-0.393414,0.573037,0.253222,0.706542,0.136909,-0.643289,0.247622,-0.414936,-31.445225,-84.825082,33.643512
01592,226918,13.765019,-0.348828,0.000953,0.198582,0.707872,0.135037,-0.640723,0.248273,-0.418908,-29.819791,-84.436100,32.125304
01593,227018,14.008150,-0.195383,-0.779214,0.138117,0.644682,0.139669,-0.638646,0.248458,-0.423406,-28.623091,-84.074151,31.002208
01594,227118,13.508648,-0.011862,-1.739514,0.032178,0.515731,0.129710,-0.639554,0.251680,-0.427752,-27.887443,-83.778285,30.281061
01595,227218,12.542282,0.053464,-2.243213,-0.038193,0.318984,0.082653,-0.636516,0.253248,-0.430174,-27.503976,-83.594188,29.873351
01596,227318,11.630214,-0.035450,-2.345660,-0.041909,0.085259,0.027169,-0.638505,0.255273,-0.430073,-27.434843,-83.543545,29.779731
01597,227418,10.678136,-0.270191,-2.075900,0.004822,-0.140138,-0.010253,-0.639001,0.256277,-0.430022,-27.700805,-83.617451,30.050263
01598,227518,9.640077,-0.462082,-1.567748,0.062914,-0.344435,-0.039390,-0.639026,0.257699,-0.428447,-28.309618,-83.802410,30.699137
01599,227618,8.924658,-0.849091,-1.050440,0.115688,-0.459032,-0.052472,-0.642105,0.259001,-0.423373,-29.168913,-84.047688,31.630043
01600,227718,8.169804,-1.315121,-0.488008,0.168680,-0.473248,-0.067492,-0.643639,0.257433,-0.421451,-30.040880,-84.302810,32.603778
01601,227818,7.715390,-1.807948,-0.101283,0.218456,-0.393265,-0.077803,-0.645614,0.257015,-0.422477,-30.671648,-84.520050,33.363416
01602,227918,7.503355,-2.223117,-0.061732,0.280581,-0.239535,-0.076486,-0.647166,0.255898,-0.419529,-30.840120,-84.660671,33.694212
01603,228018,7.385495,-2.476162,-0.187793,0.332044,-0.108716,-0.059943,-0.643701,0.253801,-0.418630,-30.661610,-84.732017,33.706091
01604,228118,7.705442,-2.471878,-0.275380,0.383363,-0.014117,-0.042422,-0.645660,0.257393,-0.419952,-30.246446,-84.751544,33.509842
01605,228218,8.446788,-2.314175,-0.203102,0.431030,0.073152,-0.021638,-0.644683,0.251872,-0.419732,-29.644401,-84.721634,33.153349
01606,228318,9.217849,-1.995364,-0.134370,0.444338,0.156591,0.002525,-0.647129,0.250537,-0.422307,-28.921509,-84.642880,32.683114
01607,228418,9.782949,-1.422359,-0.078625,0.428848,0.205639,0.027384,-0.645071,0.251173,-0.425780,-28.216931,-84.532110,32.222288
01608,228518,10.282655,-0.749644,-0.010309,0.384491,0.211016,0.047811,-0.644065,0.251181,-0.426280,-27.652338,-84.412691,31.876480
01609,228618,10.776272,-0.162404,-0.131473,0.320360,0.174617,0.065243,-0.645522,0.246343,-0.429033,-27.328092,-84.306955,31.735199
01610,228718,11.152176,0.258262,-0.368063,0.243960,0.111472,0.076723,-0.641073,0.248168,-0.426931,-27.276894,-84.230373,31.824319
01611,228818,11.206963,0.581035,-0.430928,0.156373,0.047868,0.079545,-0.644015,0.248336,-0.429431,-27.453296,-84.185478,32.091776
01612,228918,10.614025,0.740367,-0.364065,0.052605,-0.020011,0.070650,-0.646515,0.248351,-0.428932,-27.818373,-84.177348,32.489133
01613,229018,9.924098,0.662845,-0.159028,-0.033609,-0.118336,0.040890,-0.647057,0.249734,-0.426357,-28.346442,-84.226695,33.000653
01614,229118,9.361351,0.435397,0.098856,-0.077314,-0.220687,0.015107,-0.647556,0.249243,-0.426382,-29.063574,-84.334051,33.676943
01615,229218,8.940882,0.170893,0.270492,-0.087579,-0.289411,-0.004489,-0.648584,0.252152,-0.424231,-29.914928,-84.480305,34.482036
01616,229318,8.620677,-0.187271,0.467937,-0.087750,-0.321037,-0.013588,-0.648134,0.251028,-0.421783,-30.862378,-84.643587,35.383350
01617,229418,8.346506,-0.521643,0.640468,-0.087799,-0.312948,-0.020227,-0.650623,0.252063,-0.421733,-31.805335,-84.803450,36.279882
01618,229518,8.211610,-0.808399,0.764412,-0.085397,-0.273392,-0.021416,-0.652181,0.252915,-0.418184,-32.659984,-84.943170,37.088919
01619,229618,8.140826,-1.005597,0.832650,-0.077178,-0.221471,-0.021551,-0.653234,0.252288,-0.415210,-33.366356,-85.056959,37.753683
01620,229718,8.202855,-1.141277,0.808316,-0.055882,-0.173171,-0.017247,-0.655726,0.251331,-0.415262,-33.934315,-85.145660,38.291670
01621,229818,8.426031,-1.095107,0.761816,-0.037772,-0.142162,-0.004369,-0.656196,0.251411,-0.416762,-34.465001,-85.215048,38.802604
01622,229918,8.607443,-0.987657,0.689982,-0.023004,-0.136448,0.012316,-0.656234,0.251315,-0.414762,-35.074720,-85.275840,39.401284
01623,230018,8.769992,-0.802845,0.581273,-0.023801,-0.153539,0.023708,-0.655282,0.252175,-0.412212,-35.835883,-85.340211,40.151407
01624,230118,8.940024,-0.686419,0.550884,-0.034968,-0.176527,0.029821,-0.658746,0.249313,-0.413865,-36.757583,-85.412206,41.056099
01625,230218,9.100249,-0.721151,0.560108,-0.056561,-0.183953,0.036184,-0.659263,0.249273,-0.412866,-37.790212,-85.484113,42.059568
01626,230318,9.038394,-0.876536,0.637558,-0.081641,-0.184346,0.052532,-0.660315,0.249144,-0.409867,-38.965600,-85.548814,43.191725
01627,230418,8.893704,-1.120399,0.716472,-0.106856,-0.166974,0.068497,-0.661366,0.249514,-0.406843,-40.196702,-85.598113,44.365188
01628,230518,8.769335,-1.313510,0.823250,-0.118587,-0.149293,0.093121,-0.664852,0.250067,-0.406819,-41.512160,-85.628456,45.616452
01629,230618,8.758269,-1.423152,0.913738,-0.124987,-0.132889,0.111344,-0.663352,0.248075,-0.407420,-42.865483,-85.642542,46.901977
01630,230718,8.753538,-1.443027,0.969731,-0.123948,-0.110247,0.127674,-0.666860,0.252044,-0.405718,-44.195648,-85.638435,48.164869
01631,230818,8.764696,-1.372601,0.973644,-0.116740,-0.083464,0.137998,-0.669870,0.250548,-0.404796,-45.430062,-85.617081,49.335895
01632,230918,8.890576,-1.269020,0.958653,-0.108689,-0.053277,0.142209,-0.665929,0.251859,-0.402220,-46.506592,-85.580135,50.353246
01633,231018,9.141863,-1.177182,0.970723,-0.102397,-0.020591,0.140932,-0.670885,0.250018,-0.403822,-47.378854,-85.529580,51.169389
01634,231118,9.392526,-1.144221,1.021625,-0.095391,0.014275,0.138421,-0.672413,0.252436,-0.401696,-48.028177,-85.465778,51.765996
01635,231218,9.522745,-1.187834,1.017980,-0.089663,0.039008,0.130186,-0.670931,0.250396,-0.401298,-48.486115,-85.395578,52.173957
01636,231318,9.623069,-1.245701,0.982175,-0.081780,0.048151,0.119376,-0.673381,0.252524,-0.403196,-48.828495,-85.326310,52.470554
01637,231418,9.643377,-1.305934,0.915499,-0.055674,0.045260,0.103541,-0.676358,0.253592,-0.403646,-49.090213,-85.264816,52.701254
01638,231518,9.602707,-1.397846,0.812663,-0.008240,0.038713,0.086035,-0.674863,0.254067,-0.403620,-49.274636,-85.213260,52.881685
01639,231618,9.560720,-1.538451,0.640628,0.057291,0.031764,0.070067,-0.677360,0.250619,-0.403799,-49.383439,-85.171170,53.023922
01640,231718,9.454791,-1.613378,0.477058,0.130590,0.015321,0.052578,-0.675848,0.250145,-0.404823,-49.456241,-85.142774,53.172187
01641,231818,9.326882,-1.732723,0.447431,0.192781,-0.011832,0.037315,-0.677861,0.249132,-0.403875,-49.564940,-85.131079,53.392247
01642,231918,9.320879,-1.893319,0.529455,0.246731,-0.026224,0.028087,-0.677354,0.248650,-0.404400,-49.676020,-85.128683,53.645726
01643,232018,9.590725,-1.986401,0.727403,0.304751,0.006737,0.019907,-0.683334,0.247748,-0.404453,-49.549630,-85.117580,53.694244
01644,232118,10.078413,-1.865906,0.885227,0.355028,0.088540,0.007945,-0.684285,0.246888,-0.407003,-48.929019,-85.081054,53.275642
01645,232218,10.449790,-1.505150,1.129604,0.385342,0.158557,-0.014367,-0.685342,0.244268,-0.404131,-47.856468,-85.026888,52.420820
01646,232318,10.794359,-0.947003,1.411406,0.356725,0.210399,-0.048211,-0.687724,0.242604,-0.410231,-46.424403,-84.965109,51.188574
01647,232418,11.201736,-0.384838,1.684046,0.261637,0.240857,-0.081859,-0.689224,0.239140,-0.410410,-44.787861,-84.902026,49.696236
01648,232518,11.589067,0.307360,1.972924,0.107942,0.284990,-0.118657,-0.690181,0.240747,-0.412333,-42.916033,-84.831304,47.879092
01649,232618,11.866311,0.862018,2.027056,-0.059662,0.364047,-0.161138,-0.689631,0.238392,-0.415459,-40.667562,-84.737233,45.587070
01650,232718,12.229079,1.112817,1.786380,-0.171428,0.478368,-0.199650,-0.693077,0.240537,-0.417357,-37.950761,-84.597521,42.759933
01651,232818,13.004471,0.991763,1.376625,-0.205358,0.615280,-0.196641,-0.690989,0.236784,-0.423058,-34.951112,-84.380754,39.628270
01652,232918,13.482470,0.449899,0.649529,-0.171918,0.696649,-0.168819,-0.688443,0.236889,-0.426056,-32.058247,-84.101170,36.621851
01653,233018,13.217640,-0.093737,-0.495791,-0.127311,0.619916,-0.176394,-0.692328,0.235723,-0.431631,-29.578568,-83.847838,34.055163
01654,233118,12.299178,-0.451187,-1.819978,-0.141945,0.366568,-0.208227,-0.690287,0.237306,-0.434053,-27.767863,-83.720857,32.152047
01655,233218,11.106341,-0.674147,-2.511473,-0.195268,0.037777,-0.235440,-0.691816,0.238230,-0.432004,-26.690601,-83.763501,30.955877
01656,233318,9.926247,-0.618054,-2.239295,-0.254816,-0.233687,-0.245419,-0.692305,0.238262,-0.432504,-26.216762,-83.946277,30.332560
01657,233418,8.950505,-0.321138,-1.602636,-0.292080,-0.424483,-0.247729,-0.695890,0.235585,-0.427634,-26.186920,-84.227504,30.134414
01658,233518,8.081567,0.089246,-0.715160,-0.330302,-0.531039,-0.245373,-0.700978,0.237867,-0.421511,-26.462465,-84.562945,30.221224
01659,233618,7.574289,0.418364,0.158566,-0.339878,-0.562756,-0.235605,-0.703458,0.238927,-0.421961,-26.914977,-84.912072,30.480190
01660,233718,7.448080,0.558948,0.897131,-0.323569,-0.489663,-0.218903,-0.703072,0.238131,-0.415988,-27.281571,-85.219377,30.662164
01661,233818,7.550926,0.387668,1.324964,-0.323622,-0.315681,-0.194787,-0.707112,0.238548,-0.412965,-27.260803,-85.431679,30.455384
01662,233918,7.941609,0.002808,1.290247,-0.330039,-0.088504,-0.154623,-0.707585,0.237134,-0.414541,-26.736329,-85.517452,29.739676
01663,234018,8.433722,-0.225260,0.946656,-0.313339,0.118208,-0.106527,-0.708082,0.237640,-0.414516,-25.831929,-85.484101,28.652492
01664,234118,8.974679,-0.222277,0.376185,-0.293509,0.258426,-0.075958,-0.708071,0.238661,-0.414965,-24.710584,-85.369122,27.358958
01665,234218,9.554421,-0.350269,-0.108699,-0.264153,0.289389,-0.048349,-0.706536,0.240726,-0.416862,-23.720550,-85.229616,26.213822
01666,234318,10.225064,-0.573455,-0.302297,-0.202691,0.245256,-0.017083,-0.705541,0.239714,-0.416912,-23.063936,-85.104904,25.438418
01667,234418,11.035444,-0.828464,-0.506358,-0.135401,0.157958,0.020987,-0.705528,0.236773,-0.418064,-22.854971,-85.017286,25.150907
01668,234518,11.675803,-0.814759,-0.684070,-0.096824,0.042989,0.060298,-0.707551,0.240694,-0.415863,-23.158198,-84.981560,25.399706
01669,234618,11.814245,-0.509146,-0.751220,-0.108447,-0.061927,0.069780,-0.707525,0.239769,-0.417413,-23.794570,-84.998678,25.976247
01670,234718,11.267280,-0.107993,-0.423075,-0.149583,-0.143027,0.055407,-0.711569,0.242654,-0.413763,-24.594224,-85.060965,26.692993
01671,234818,10.516662,0.225164,0.116283,-0.172569,-0.193227,0.032080,-0.710576,0.241143,-0.413839,-25.429182,-85.154101,27.431868
01672,234918,9.772548,0.403726,0.575215,-0.175826,-0.225503,0.012578,-0.714640,0.243481,-0.409214,-26.274124,-85.267827,28.178773
01673,235018,9.168209,0.517321,0.871215,-0.165016,-0.252141,-0.001264,-0.717159,0.243448,-0.407716,-27.150088,-85.397804,28.962884
01674,235118,8.740514,0.599453,0.991402,-0.150452,-0.271295,-0.008956,-0.719177,0.244404,-0.406166,-28.081358,-85.538522,29.810693
01675,235218,8.391141,0.624958,1.034785,-0.141360,-0.285569,-0.022615,-0.720701,0.243857,-0.404693,-29.026360,-85.689043,30.677327
01676,235318,8.063298,0.558124,1.045890,-0.133928,-0.285143,-0.036218,-0.723230,0.242804,-0.402745,-29.937251,-85.842087,31.513851
01677,235418,7.891863,0.404650,1.023430,-0.131357,-0.270325,-0.046463,-0.723264,0.244700,-0.400645,-30.778697,-85.989797,32.282068
01678,235518,7.982378,0.260742,0.990391,-0.133211,-0.233876,-0.054012,-0.723293,0.244130,-0.399170,-31.466296,-86.121108,32.894873
01679,235618,8.291042,0.088050,0.877779,-0.144304,-0.188895,-0.053087,-0.723335,0.241044,-0.397324,-32.004137,-86.229751,33.351128
01680,235718,8.653861,-0.011110,0.715814,-0.177029,-0.143068,-0.050544,-0.723321,0.243559,-0.397696,-32.390011,-86.315142,33.636252
01681,235818,8.962830,-0.001502,0.516711,-0.215020,-0.115157,-0.045209,-0.725869,0.242956,-0.394724,-32.717398,-86.385290,33.840933
01682,235918,9.138527,0.073043,0.363176,-0.259354,-0.138385,-0.037771,-0.725905,0.243358,-0.392699,-33.255955,-86.464187,34.231725
01683,236018,9.157721,0.131135,0.267523,-0.293685,-0.183570,-0.030983,-0.726908,0.244844,-0.392123,-34.128671,-86.562169,34.937550
01684,236118,9.145141,0.163358,0.264031,-0.303437,-0.247201,-0.023991,-0.728912,0.243357,-0.391701,-35.470639,-86.686968,36.107761
01685,236218,9.214882,0.219934,0.364303,-0.289086,-0.300197,-0.018158,-0.728982,0.246154,-0.387550,-37.278699,-86.832307,37.752882
01686,236318,9.237344,0.175496,0.522698,-0.260051,-0.329243,-0.013367,-0.728549,0.245480,-0.384076,-39.473503,-86.985663,39.801731
01687,236418,9.210596,0.122360,0.634861,-0.222188,-0.335738,-0.011371,-0.730551,0.245985,-0.383552,-41.936128,-87.136482,42.140186
01688,236518,9.140856,-0.000136,0.737747,-0.184871,-0.334885,-0.010202,-0.734631,0.244313,-0.378631,-44.640838,-87.280926,44.742115
01689,236618,9.021757,-0.103956,0.823993,-0.150044,-0.329558,-0.001590,-0.733096,0.246378,-0.380528,-47.638981,-87.413208,47.657468
01690,236718,9.013526,-0.169065,0.942480,-0.114891,-0.311487,0.013853,-0.733206,0.247086,-0.374480,-50.868074,-87.524487,50.823874
01691,236818,9.187195,-0.207340,1.043496,-0.076256,-0.260860,0.032130,-0.734233,0.245534,-0.373057,-53.945871,-87.601879,53.860776
01692,236918,9.542388,-0.225551,1.007081,-0.034886,-0.185196,0.049915,-0.736197,0.246137,-0.374532,-56.442947,-87.639754,56.340052
01693,237018,9.849291,-0.248751,0.746723,0.003513,-0.113701,0.066177,-0.739250,0.246016,-0.371034,-58.256899,-87.643767,58.157605
01694,237118,9.935715,-0.207469,0.613833,0.031007,-0.061587,0.078291,-0.739223,0.245589,-0.372559,-59.518828,-87.624390,59.438441
01695,237218,9.786754,0.027992,0.603646,0.034438,-0.044844,0.079939,-0.740258,0.245011,-0.370585,-60.568605,-87.598343,60.508926
01696,237318,9.683318,0.161536,0.621624,0.018410,-0.061835,0.078830,-0.738744,0.245533,-0.371559,-61.799160,-87.576668,61.751174
01697,237418,9.762127,0.209424,0.716567,0.015158,-0.094304,0.079820,-0.741244,0.245549,-0.371060,-63.403915,-87.561767,63.366107
01698,237518,9.912769,0.224678,0.778930,0.026181,-0.103090,0.084116,-0.742233,0.244592,-0.371611,-65.111646,-87.544867,65.090447
01699,237618,9.983961,0.236286,0.951086,0.034347,-0.082674,0.087915,-0.742265,0.246987,-0.369484,-66.560655,-87.519177,66.560532
01700,237718,9.924855,0.242824,1.086209,0.017609,-0.021467,0.091402,-0.744765,0.247003,-0.368985,-67.266704,-87.476717,67.277382
01701,237818,9.791892,0.305802,1.121748,-0.021378,0.053263,0.099939,-0.746694,0.246206,-0.372535,-67.132549,-87.413006,67.130858
01702,237918,9.744270,0.419935,1.036005,-0.068202,0.126063,0.113603,-0.745170,0.247252,-0.373984,-66.274220,-87.325561,66.232528
01703,238018,9.800536,0.572700,0.921942,-0.102412,0.170851,0.124813,-0.744147,0.246810,-0.375508,-65.064272,-87.220975,64.962483
01704,238118,10.027258,0.697093,0.926589,-0.114726,0.193940,0.124796,-0.744111,0.251366,-0.376779,-63.715514,-87.109374,63.546272
01705,238218,10.448062,0.687709,1.158840,-0.092850,0.231281,0.115561,-0.745534,0.250088,-0.380854,-62.049665,-86.990940,61.824952
01706,238318,11.027585,0.429840,1.389926,-0.044904,0.307346,0.110346,-0.745538,0.253053,-0.380202,-59.769434,-86.850938,59.515666
01707,238418,11.611861,0.051843,1.460476,0.023250,0.417175,0.113963,-0.744969,0.250747,-0.384327,-56.753820,-86.670452,56.508578
01708,238518,12.033883,-0.402229,1.200775,0.096884,0.518220,0.127445,-0.740907,0.252371,-0.388248,-53.332383,-86.441160,53.136578
01709,238618,12.215137,-0.709032,0.911596,0.165506,0.570101,0.136037,-0.741755,0.252274,-0.396271,-49.997382,-86.178012,49.889696
01710,238718,12.487216,-0.852871,0.729030,0.188976,0.593278,0.138562,-0.738217,0.255328,-0.398616,-46.959464,-85.893772,46.953056
01711,238818,13.186992,-1.056258,0.319861,0.169495,0.617600,0.160831,-0.737505,0.255376,-0.410137,-44.317189,-85.580973,44.400868
01712,238918,13.881840,-1.131976,-0.369070,0.141633,0.592447,0.197504,-0.733511,0.255337,-0.410636,-42.342402,-85.256905,42.501197
01713,239018,13.811453,-0.916493,-1.603908,0.129157,0.473984,0.208205,-0.736376,0.257192,-0.417058,-41.180516,-84.975443,41.409383
01714,239118,13.265669,-0.759423,-2.554462,0.144878,0.310831,0.208062,-0.733863,0.259692,-0.417929,-40.787878,-84.763467,41.098541
01715,239218,12.092218,-0.733878,-2.720840,0.181676,0.102153,0.166009,-0.735815,0.261314,-0.419853,-41.036375,-84.657682,41.452668
01716,239318,11.296997,-0.901562,-2.106774,0.206867,-0.104082,0.116698,-0.738279,0.260430,-0.421404,-41.867224,-84.658931,42.406214
01717,239418,10.555420,-0.964618,-1.460739,0.229670,-0.240119,0.086620,-0.737813,0.263315,-0.419253,-43.122134,-84.727727,43.798712
01718,239518,9.635881,-1.038006,-0.978419,0.253720,-0.304031,0.062355,-0.739886,0.260164,-0.415407,-44.571877,-84.829536,45.400498
01719,239618,8.666031,-1.126859,-0.662978,0.287911,-0.333547,0.037202,-0.742316,0.262341,-0.418305,-46.087486,-84.949692,47.087802
01720,239718,7.961071,-1.222537,-0.280596,0.335931,-0.335198,0.008935,-0.740888,0.262149,-0.414806,-47.534048,-85.078375,48.733091
01721,239818,7.553717,-1.223573,0.138667,0.394563,-0.283242,-0.013848,-0.744903,0.260645,-0.413384,-48.659313,-85.193629,50.089337
01722,239918,7.405997,-1.195052,0.345895,0.446794,-0.196687,-0.027497,-0.746921,0.256643,-0.412588,-49.294120,-85.280426,50.983259
01723,240018,7.503876,-1.213131,0.609188,0.490566,-0.094247,-0.033601,-0.743917,0.254651,-0.413688,-49.353644,-85.331137,51.325039
01724,240118,8.107235,-1.217956,0.858723,0.523623,0.049538,-0.029136,-0.746356,0.252841,-0.416790,-48.652121,-85.325997,50.922232
01725,240218,8.981525,-1.142407,0.927463,0.519589,0.222913,-0.015321,-0.745853,0.250367,-0.417416,-47.128342,-85.247704,49.692041
01726,240318,9.769507,-0.967266,0.792349,0.464442,0.381868,0.005446,-0.744781,0.251042,-0.421389,-45.016960,-85.094460,47.840243
01727,240418,10.328028,-0.737715,0.464969,0.384642,0.476989,0.023144,-0.740218,0.249195,-0.425988,-42.738382,-84.889031,45.774216
01728,240518,10.719955,-0.445337,0.048837,0.298407,0.490113,0.049242,-0.739151,0.246880,-0.430112,-40.747398,-84.661484,43.946667
01729,240618,11.021078,-0.159079,-0.324019,0.210799,0.441554,0.068992,-0.736569,0.246085,-0.435161,-39.233853,-84.443051,42.547633
01730,240718,11.067494,0.154818,-0.484058,0.111618,0.373387,0.071226,-0.734991,0.246278,-0.439658,-38.135416,-84.251395,41.508138
01731,240818,10.701385,0.353978,-0.450492,0.017351,0.297016,0.055557,-0.737509,0.246744,-0.438135,-37.345836,-84.098237,40.724490
01732,240918,10.129643,0.263025,-0.289031,-0.050534,0.213530,0.027092,-0.735934,0.245442,-0.442708,-36.781247,-83.992199,40.127761
01733,241018,9.564915,0.016886,0.036035,-0.080230,0.133677,-0.001270,-0.734392,0.246037,-0.445182,-36.384734,-83.932102,39.682843
01734,241118,9.102632,-0.271463,0.327496,-0.097584,0.075687,-0.012402,-0.734922,0.248938,-0.443030,-36.140774,-83.902324,39.381302
01735,241218,8.756146,-0.492694,0.614690,-0.111850,0.041950,-0.026858,-0.736374,0.246591,-0.445657,-35.950770,-83.892930,39.125794
01736,241318,8.533448,-0.640856,0.856853,-0.114447,0.020620,-0.042393,-0.734437,0.246415,-0.442657,-35.762099,-83.898556,38.870130
01737,241418,8.358474,-0.835967,1.011486,-0.104710,0.009809,-0.059177,-0.734413,0.244494,-0.444258,-35.527833,-83.914701,38.574231
01738,241518,8.364405,-0.958302,1.070990,-0.080051,0.010239,-0.066342,-0.735404,0.242541,-0.444860,-35.245188,-83.932859,38.243898
01739,241618,8.481403,-1.102449,1.116442,-0.037416,0.029160,-0.067578,-0.734397,0.243048,-0.445334,-34.872382,-83.942323,37.847475
01740,241718,8.609232,-1.184842,1.032827,0.006109,0.053105,-0.056655,-0.734383,0.245563,-0.445707,-34.449030,-83.936628,37.425306
01741,241818,8.726924,-1.207743,0.918712,0.032738,0.081290,-0.044693,-0.731376,0.245564,-0.446705,-33.979957,-83.913356,36.972493
01742,241918,8.777879,-1.195456,0.741291,0.038894,0.095186,-0.029557,-0.733352,0.244149,-0.447782,-33.537522,-83.878251,36.549996
01743,242018,8.729470,-1.139513,0.565118,0.018675,0.076226,-0.014706,-0.733768,0.243377,-0.452331,-33.232976,-83.847234,36.254507
01744,242118,8.702532,-1.073594,0.501673,-0.017180,0.025792,-0.000425,-0.733282,0.241850,-0.451907,-33.161232,-83.835809,36.172501
01745,242218,8.782625,-0.971147,0.629999,-0.048725,-0.035692,0.012297,-0.733782,0.240862,-0.451958,-33.343161,-83.849849,36.327463
01746,242318,8.945486,-0.921744,0.831224,-0.070407,-0.093076,0.021414,-0.732841,0.241199,-0.448934,-33.748622,-83.888310,36.694742
01747,242418,9.030013,-0.882179,1.058847,-0.090570,-0.134660,0.030130,-0.735342,0.240717,-0.448460,-34.335573,-83.943359,37.232890
01748,242518,9.022096,-0.882408,1.270590,-0.103377,-0.164774,0.030904,-0.736835,0.241239,-0.448435,-35.037735,-84.011675,37.879452
01749,242618,9.031840,-0.971330,1.486593,-0.103617,-0.184369,0.032649,-0.735359,0.241167,-0.447435,-35.826597,-84.087639,38.612960
01750,242718,9.086329,-1.054886,1.687482,-0.090741,-0.187537,0.024213,-0.739372,0.241158,-0.445937,-36.600241,-84.166839,39.338487
01751,242818,9.113775,-1.133989,1.787081,-0.077009,-0.176510,0.023946,-0.737417,0.241030,-0.443937,-37.347155,-84.240046,40.044959
01752,242918,9.131229,-1.154008,1.744183,-0.070483,-0.151906,0.018542,-0.739391,0.241110,-0.444937,-37.997208,-84.303066,40.657762
01753,243018,9.139430,-1.091839,1.589763,-0.069039,-0.122846,0.014599,-0.739921,0.239052,-0.443540,-38.537396,-84.353734,41.160935
01754,243118,9.154291,-0.977858,1.457294,-0.067635,-0.104212,0.009169,-0.740897,0.239614,-0.444514,-38.992889,-84.397559,41.579772
01755,243218,9.177975,-0.842461,1.341077,-0.066634,-0.098796,0.002525,-0.741894,0.239132,-0.444540,-39.404128,-84.441047,41.954691
01756,243318,9.236984,-0.770804,1.272850,-0.060526,-0.103894,-0.008571,-0.741424,0.239052,-0.443041,-39.786685,-84.490562,42.304283
01757,243418,9.293941,-0.816065,1.206670,-0.046155,-0.116437,-0.026663,-0.740955,0.238474,-0.441566,-40.133049,-84.552005,42.625756
01758,243518,9.345616,-0.909711,1.146134,-0.028646,-0.129454,-0.047516,-0.744442,0.238529,-0.441567,-40.431735,-84.626667,42.909380
01759,243618,9.413173,-1.012056,1.178164,-0.017007,-0.134942,-0.064088,-0.741954,0.236995,-0.441643,-40.676350,-84.709737,43.145364
01760,243718,9.515850,-1.132061,1.255981,-0.004357,-0.122425,-0.082213,-0.745448,0.238022,-0.441093,-40.783655,-84.794049,43.250709
01761,243818,9.661975,-1.210473,1.292780,0.018041,-0.095356,-0.095097,-0.747409,0.235161,-0.443245,-40.706260,-84.871392,43.183478
01762,243918,9.806762,-1.278754,1.265290,0.044478,-0.068362,-0.100347,-0.747466,0.234020,-0.440297,-40.471981,-84.938894,42.973961
01763,244018,9.927666,-1.356206,1.240762,0.069004,-0.058408,-0.105256,-0.747433,0.232124,-0.442398,-40.150972,-85.003739,42.691513
01764,244118,10.045091,-1.436450,1.270768,0.086310,-0.064305,-0.107596,-0.750435,0.229656,-0.442026,-39.825352,-85.071855,42.414425
01765,244218,10.187552,-1.501891,1.365679,0.101544,-0.059257,-0.107307,-0.748970,0.229061,-0.440552,-39.462513,-85.137448,42.108776
01766,244318,10.437606,-1.513212,1.543287,0.116813,-0.016110,-0.105878,-0.750929,0.226698,-0.442679,-38.904311,-85.183100,41.615878
01767,244418,10.654657,-1.456543,1.660524,0.123266,0.061945,-0.097931,-0.751901,0.224793,-0.444280,-38.044971,-85.190338,40.824513
01768,244518,10.768465,-1.382094,1.788668,0.111058,0.135011,-0.088224,-0.749871,0.225356,-0.446253,-36.943582,-85.159784,39.783210
01769,244618,10.908172,-1.278162,1.991400,0.086084,0.183023,-0.083022,-0.751322,0.223508,-0.448854,-35.710112,-85.103466,38.594928
01770,244718,11.149020,-1.102055,2.339340,0.052522,0.217391,-0.081156,-0.752847,0.221964,-0.447432,-34.405393,-85.028131,37.315716
01771,244818,11.531251,-0.746425,2.639977,0.032615,0.264830,-0.085969,-0.750772,0.221153,-0.451980,-32.957223,-84.929021,35.880884
01772,244918,11.930245,-0.388061,2.536881,0.015338,0.323768,-0.092569,-0.752688,0.217415,-0.456682,-31.344770,-84.799958,34.270914
01773,245018,12.199683,-0.204589,2.339093,-0.002433,0.383557,-0.107406,-0.747158,0.219940,-0.459053,-29.560824,-84.641415,32.478124
01774,245118,12.371726,-0.257599,1.930941,-0.014937,0.428344,-0.121297,-0.751571,0.217713,-0.463179,-27.691661,-84.458953,30.592031
01775,245218,12.766253,-0.475143,1.391228,-0.006235,0.462699,-0.119640,-0.748984,0.219409,-0.468101,-25.861845,-84.252795,28.749863
01776,245318,13.217733,-0.785663,0.698795,0.037276,0.486146,-0.093197,-0.745456,0.216485,-0.470751,-24.215963,-84.022674,27.116950
01777,245418,13.055078,-1.124520,-0.363711,0.090391,0.452665,-0.070675,-0.746876,0.216701,-0.474750,-22.840978,-83.800735,25.786402
01778,245518,12.006704,-1.206549,-1.625602,0.085816,0.315399,-0.075140,-0.747794,0.213944,-0.479401,-21.801830,-83.649703,24.790609
01779,245618,10.659610,-1.112380,-2.293189,0.030038,0.088765,-0.077895,-0.746247,0.217529,-0.481722,-21.242411,-83.618668,24.245190
01780,245718,9.575994,-0.781499,-1.885317,-0.008292,-0.153765,-0.077068,-0.750785,0.217953,-0.478699,-21.160995,-83.716782,24.158649
01781,245818,8.768822,-0.153222,-1.023599,-0.012873,-0.346049,-0.086817,-0.754815,0.213436,-0.476929,-21.402668,-83.919670,24.394470
01782,245918,7.895120,0.598227,-0.119963,0.030300,-0.442287,-0.105176,-0.753875,0.213276,-0.473930,-21.738973,-84.177620,24.750201
01783,246018,7.306946,1.105907,0.459402,0.066071,-0.441174,-0.122090,-0.757907,0.212720,-0.471458,-21.991177,-84.438424,25.041840
01784,246118,7.185794,1.269288,0.834141,0.054365,-0.345026,-0.134330,-0.759462,0.210109,-0.468586,-21.983872,-84.650723,25.065925
01785,246218,7.379830,1.197393,0.804965,-0.009159,-0.199577,-0.125255,-0.758965,0.209104,-0.468637,-21.724452,-84.783760,24.800251
01786,246318,7.688520,0.994650,0.381858,-0.101831,-0.075286,-0.100519,-0.759995,0.211515,-0.466511,-21.361800,-84.845248,24.377639
01787,246418,8.099436,0.809698,-0.038388,-0.173373,0.003107,-0.076994,-0.758485,0.209546,-0.467612,-20.991699,-84.859782,23.906409
01788,246518,8.753260,0.538234,-0.272388,-0.194747,0.047416,-0.054453,-0.759491,0.209040,-0.467138,-20.666439,-84.845790,23.467902
01789,246618,9.462985,0.145981,-0.417061,-0.177548,0.052046,-0.023708,-0.757969,0.209088,-0.468637,-20.505641,-84.823008,23.204404
01790,246718,10.212310,-0.361065,-0.506414,-0.117651,0.028657,0.009662,-0.756468,0.213051,-0.468433,-20.561091,-84.806101,23.192494
01791,246818,10.959864,-0.760943,-0.563154,-0.050149,-0.006697,0.046858,-0.757026,0.210423,-0.465561,-20.875671,-84.800656,23.479622
01792,246918,11.514226,-0.912260,-0.478337,-0.003132,-0.036878,0.084904,-0.756472,0.210559,-0.468560,-21.455324,-84.803312,24.059971
01793,247018,11.634239,-0.765842,-0.363558,0.021709,-0.086257,0.099319,-0.758074,0.207329,-0.463215,-22.223519,-84.828586,24.843917
01794,247118,11.293424,-0.359974,-0.130538,0.034552,-0.149034,0.091095,-0.757030,0.208430,-0.465663,-23.100638,-84.887889,25.744562
01795,247218,10.824325,0.061113,0.205456,0.043215,-0.189962,0.067032,-0.761057,0.210864,-0.463038,-23.958614,-84.973002,26.630866
01796,247318,10.296776,0.343821,0.596082,0.050699,-0.202761,0.033695,-0.763096,0.210775,-0.460540,-24.676574,-85.071598,27.380798
01797,247418,9.751291,0.442584,0.859175,0.052643,-0.204504,0.009897,-0.762089,0.211281,-0.461014,-25.282017,-85.176107,28.018801
01798,247518,9.277375,0.539751,1.012383,0.042130,-0.196252,-0.005423,-0.762606,0.211241,-0.460015,-25.799870,-85.279600,28.562760
01799,247618,8.849231,0.632042,1.071080,0.022779,-0.189078,-0.011510,-0.763192,0.209039,-0.455618,-26.290848,-85.380529,29.068542
01800,247718,8.493603,0.665434,1.057832,-0.014823,-0.188027,-0.022399,-0.765179,0.212060,-0.455466,-26.751315,-85.483360,29.522022
01801,247818,8.224227,0.659992,1.021957,-0.066119,-0.192016,-0.034537,-0.764196,0.209529,-0.455093,-27.195536,-85.591095,29.929652
01802,247918,8.147406,0.561384,0.949136,-0.112390,-0.178114,-0.043682,-0.768217,0.209994,-0.453070,-27.576613,-85.693936,30.247302
01803,248018,8.292414,0.357507,0.854675,-0.145026,-0.166865,-0.040013,-0.766196,0.210533,-0.454543,-27.977433,-85.789927,30.565951
01804,248118,8.494722,0.087684,0.785830,-0.167847,-0.154223,-0.032175,-0.766283,0.208323,-0.450146,-28.415039,-85.877236,30.908332
01805,248218,8.599771,-0.146950,0.670139,-0.179143,-0.139350,-0.026498,-0.766737,0.207456,-0.452696,-28.858095,-85.955309,31.249652
01806,248318,8.705136,-0.282227,0.483157,-0.182578,-0.130155,-0.017783,-0.769254,0.207921,-0.451172,-29.344169,-86.026151,31.632091
01807,248418,8.786288,-0.278971,0.304282,-0.177468,-0.134232,-0.011590,-0.768296,0.207311,-0.449198,-29.905206,-86.097032,32.092571
01808,248518,8.802857,-0.163793,0.219874,-0.169330,-0.155859,-0.007436,-0.772244,0.207470,-0.451199,-30.605020,-86.177078,32.696774
01809,248618,8.798257,-0.002873,0.253950,-0.165806,-0.190622,-0.001776,-0.769819,0.207262,-0.447699,-31.531733,-86.271942,33.530327
01810,248718,8.848786,0.148051,0.412960,-0.157885,-0.232866,-0.000191,-0.772320,0.206281,-0.447251,-32.717062,-86.385809,34.627472
01811,248818,8.984975,0.269091,0.615327,-0.143385,-0.260275,0.002541,-0.774379,0.205646,-0.443778,-34.132245,-86.510308,35.963086
01812,248918,9.041827,0.292396,0.761554,-0.119676,-0.271470,0.002604,-0.775382,0.207132,-0.443203,-35.697933,-86.637856,37.462896
01813,249018,9.093600,0.240467,0.877222,-0.088703,-0.261743,0.002678,-0.777385,0.206143,-0.442754,-37.305416,-86.758367,39.022149
01814,249118,9.073953,0.140536,0.929190,-0.056861,-0.234320,0.005039,-0.778870,0.206191,-0.443255,-38.853313,-86.863148,40.539818
01815,249218,8.954029,0.004549,0.919054,-0.034174,-0.202031,0.007098,-0.778927,0.205549,-0.440281,-40.283503,-86.950673,41.952481
01816,249318,8.831727,-0.021989,0.951273,-0.016123,-0.172323,0.014734,-0.778466,0.205444,-0.438282,-41.630444,-87.020587,43.292028
01817,249418,8.849959,-0.017619,1.044980,0.003256,-0.142052,0.022341,-0.778447,0.205991,-0.439256,-42.860081,-87.073112,44.525157
01818,249518,9.035077,0.074687,1.091148,0.024780,-0.109139,0.033832,-0.777961,0.204464,-0.438832,-43.954655,-87.106098,45.635343
01819,249618,9.291547,0.118878,1.061245,0.042885,-0.075476,0.045138,-0.781963,0.204977,-0.437809,-44.882517,-87.119763,46.588963
01820,249718,9.468490,0.140620,1.018487,0.051460,-0.052891,0.057141,-0.780444,0.203531,-0.439384,-45.724201,-87.118687,47.461206
01821,249818,9.515769,0.195826,1.059662,0.049547,-0.049742,0.065141,-0.784415,0.206110,-0.439758,-46.601805,-87.112390,48.368313
01822,249918,9.504163,0.248206,1.188061,0.047748,-0.044578,0.073333,-0.783959,0.203016,-0.437911,-47.494937,-87.099930,49.289936
01823,250018,9.577716,0.157056,1.384592,0.052037,-0.023041,0.084610,-0.784415,0.206110,-0.439758,-48.280032,-87.073705,50.105852
01824,250118,9.774619,-0.019499,1.521555,0.062461,0.016186,0.101840,-0.781940,0.207516,-0.438681,-48.841573,-87.024695,50.703922
01825,250218,10.047788,-0.195793,1.526377,0.066935,0.072582,0.124588,-0.784417,0.205113,-0.439808,-49.080097,-86.944394,50.981128
01826,250318,10.172804,-0.306393,1.408362,0.059336,0.129944,0.148819,-0.784368,0.206728,-0.442231,-49.022087,-86.832016,50.957026
01827,250418,10.139669,-0.257652,1.179420,0.046107,0.173398,0.166020,-0.783890,0.205676,-0.441282,-48.760356,-86.695820,50.721282
01828,250518,10.078691,-0.062025,1.053004,0.018743,0.204126,0.170970,-0.784313,0.205876,-0.445281,-48.345604,-86.545760,50.316508
01829,250618,10.095229,0.275879,1.031397,-0.017054,0.228443,0.167135,-0.782745,0.211003,-0.448525,-47.797066,-86.387834,49.757073
01830,250718,10.279146,0.542672,1.186943,-0.044123,0.264601,0.156342,-0.782712,0.208608,-0.450651,-47.015302,-86.220060,48.948274
01831,250818,10.709034,0.665721,1.465451,-0.043356,0.318271,0.151011,-0.780180,0.211157,-0.452523,-45.948808,-86.032511,47.854358
01832,250918,11.241208,0.585643,1.756871,-0.008469,0.390587,0.154386,-0.779110,0.210835,-0.456546,-44.578215,-85.812888,46.475335
01833,251018,11.863237,0.204191,2.042402,0.041869,0.480955,0.160586,-0.776608,0.212314,-0.456969,-42.892702,-85.550828,44.808990
01834,251118,12.586279,-0.399891,2.162758,0.112294,0.581856,0.176200,-0.772970,0.213641,-0.464914,-40.976648,-85.235915,42.951192
01835,251218,13.324506,-1.114430,1.981363,0.177898,0.671399,0.201527,-0.771366,0.212412,-0.470987,-39.022499,-84.867456,41.091972
01836,251318,13.799388,-1.519842,1.584462,0.207272,0.716939,0.229251,-0.767247,0.215177,-0.477856,-37.275896,-84.463645,39.456994
01837,251418,14.151231,-1.489937,1.055080,0.179375,0.734753,0.246623,-0.767164,0.214895,-0.482380,-35.795870,-84.041586,38.072744
01838,251518,14.537978,-1.238476,0.343381,0.143394,0.710612,0.258906,-0.767020,0.217747,-0.489750,-34.648202,-83.623743,37.000997
01839,251618,14.518640,-0.630107,-0.477938,0.108723,0.600794,0.243223,-0.763422,0.217483,-0.495772,-33.888884,-83.261195,36.299344
01840,251718,13.812025,0.276452,-1.295676,0.044198,0.433173,0.180605,-0.761407,0.219492,-0.496669,-33.424836,-82.997785,35.857393
01841,251818,12.792203,0.871820,-1.589228,-0.036845,0.239693,0.089693,-0.761290,0.222771,-0.502515,-33.172861,-82.855471,35.582140
01842,251918,11.704123,0.974281,-1.377929,-0.114258,0.041300,0.014866,-0.762325,0.222192,-0.500541,-33.180448,-82.831841,35.523714
01843,252018,10.631260,0.824191,-0.853503,-0.168854,-0.131258,-0.028922,-0.764824,0.222706,-0.500017,-33.485191,-82.904743,35.733217
01844,252118,9.521723,0.598116,-0.567880,-0.199838,-0.247428,-0.057361,-0.766310,0.227213,-0.499789,-34.005048,-83.041950,36.141512
01845,252218,8.395817,0.336647,-0.337944,-0.207352,-0.328507,-0.085574,-0.768398,0.225509,-0.494867,-34.657109,-83.226188,36.678474
01846,252318,7.546267,-0.123009,0.015100,-0.183476,-0.371753,-0.121357,-0.768904,0.226490,-0.494317,-35.307369,-83.441779,37.227163
01847,252418,7.032087,-0.569793,0.436116,-0.106091,-0.355515,-0.153627,-0.770936,0.225429,-0.492369,-35.769431,-83.659918,37.630836
01848,252518,6.667629,-0.980504,0.875873,-0.006071,-0.263730,-0.177264,-0.771019,0.225710,-0.487845,-35.814908,-83.843088,37.672929
01849,252618,6.631432,-1.339087,0.921249,0.098644,-0.126793,-0.198148,-0.771024,0.222721,-0.487998,-35.275924,-83.969351,37.187575
01850,252718,7.249021,-1.744316,0.654154,0.175506,0.049392,-0.186727,-0.772499,0.217834,-0.489752,-34.174647,-84.008131,36.181189
01851,252818,7.931338,-2.015548,0.312279,0.218254,0.224251,-0.164057,-0.771982,0.217875,-0.490751,-32.622503,-83.953637,34.746068
01852,252918,8.568891,-2.019468,0.106166,0.228868,0.355516,-0.136402,-0.767946,0.215465,-0.493876,-30.858573,-83.822495,33.103840
01853,253018,9.180270,-1.655415,0.122697,0.200846,0.437064,-0.107422,-0.767375,0.209695,-0.498679,-29.108585,-83.637284,31.459011
01854,253118,9.699625,-1.200207,0.131938,0.137583,0.454953,-0.070944,-0.763341,0.210748,-0.501126,-27.611799,-83.428136,30.031903
01855,253218,10.309576,-0.642300,0.063976,0.044433,0.409383,-0.025905,-0.763796,0.208884,-0.503727,-26.550872,-83.227002,28.989304
01856,253318,11.116791,-0.174319,-0.034553,-0.051435,0.348239,0.019301,-0.760744,0.208009,-0.507275,-25.920586,-83.044148,28.324712
01857,253418,11.722906,0.115807,-0.117247,-0.145780,0.295899,0.043380,-0.761231,0.209037,-0.507724,-25.579453,-82.881727,27.896751
01858,253518,11.509062,0.210935,-0.097183,-0.257551,0.247502,0.045276,-0.760243,0.209994,-0.507173,-25.419324,-82.743722,27.586531
01859,253618,10.624274,0.063132,0.115434,-0.358124,0.171379,0.021244,-0.759688,0.210628,-0.510147,-25.372506,-82.651016,27.332367
01860,253718,9.812112,-0.175631,0.489822,-0.392058,0.077656,-0.006119,-0.759673,0.213642,-0.510494,-25.415915,-82.613579,27.149537
01861,253818,9.210115,-0.420993,0.933656,-0.370537,0.012065,-0.032267,-0.757682,0.212614,-0.510544,-25.467327,-82.616539,26.987201
01862,253918,8.873372,-0.631452,1.215030,-0.314378,-0.024348,-0.056513,-0.762216,0.215530,-0.507394,-25.458602,-82.644301,26.796681
01863,254018,8.604259,-0.746980,1.275547,-0.247499,-0.040509,-0.077565,-0.764173,0.214661,-0.509445,-25.356712,-82.685556,26.550878
01864,254118,8.347013,-0.801365,1.180115,-0.184818,-0.038714,-0.090605,-0.760723,0.214509,-0.507444,-25.160492,-82.728968,26.246211
01865,254218,8.087018,-0.806463,1.057834,-0.126244,-0.028639,-0.103347,-0.759206,0.217025,-0.508317,-24.856372,-82.770048,25.866637
01866,254318,7.910851,-0.806786,1.003171,-0.072018,-0.022303,-0.116093,-0.759702,0.213071,-0.509020,-24.452729,-82.810564,25.418103
01867,254418,7.870169,-0.744875,1.057634,-0.029228,-0.031519,-0.123095,-0.760754,0.212943,-0.506021,-24.007708,-82.857108,24.952622
01868,254518,7.996614,-0.709813,1.183003,-0.005885,-0.029443,-0.125229,-0.761721,0.213529,-0.507496,-23.530598,-82.902566,24.468332
01869,254618,8.256244,-0.716853,1.291739,-0.001674,-0.009557,-0.118529,-0.763194,0.210137,-0.509173,-23.037509,-82.935506,23.970417
01870,254718,8.588845,-0.749812,1.279620,-0.017821,0.009132,-0.109168,-0.762660,0.209728,-0.511198,-22.556060,-82.955950,23.474940
01871,254818,8.881008,-0.783690,1.238223,-0.045015,0.027260,-0.094414,-0.763701,0.210121,-0.508674,-22.119372,-82.963065,23.008886
01872,254918,9.122005,-0.817541,1.217619,-0.074957,0.036351,-0.079309,-0.764174,0.208707,-0.510250,-21.748661,-82.961696,22.592031
01873,255018,9.233231,-0.923984,1.264787,-0.104609,0.037345,-0.064047,-0.763685,0.208675,-0.509750,-21.459515,-82.956261,22.240246
01874,255118,9.286017,-1.020635,1.407252,-0.127544,0.040962,-0.049605,-0.764684,0.207196,-0.509826,-21.240528,-82.945662,21.945915
01875,255218,9.227963,-1.114907,1.518458,-0.145534,0.045876,-0.033845,-0.763675,0.209197,-0.510224,-21.092671,-82.929024,21.712870
01876,255318,9.072609,-1.191984,1.616172,-0.143847,0.044866,-0.019079,-0.762659,0.210226,-0.511173,-21.010183,-82.909783,21.546670
01877,255418,8.898339,-1.219442,1.722415,-0.130524,0.036676,-0.011268,-0.764610,0.207388,-0.513824,-20.967937,-82.893246,21.428719
01878,255518,8.676380,-1.190886,1.795213,-0.103817,0.029320,-0.012208,-0.763198,0.208144,-0.509275,-20.918988,-82.880768,21.319439
01879,255618,8.507083,-1.113253,1.816555,-0.070020,0.015094,-0.015679,-0.763141,0.208787,-0.512248,-20.859465,-82.876545,21.219024
01880,255718,8.463074,-0.972297,1.872333,-0.028975,0.006750,-0.024244,-0.766610,0.208393,-0.513275,-20.753483,-82.878458,21.095496
01881,255818,8.516768,-0.861739,1.911200,0.011912,-0.000896,-0.032060,-0.768113,0.208890,-0.512750,-20.602862,-82.885960,20.950597
01882,255918,8.614901,-0.769130,1.945270,0.046663,-0.013002,-0.040717,-0.766139,0.208811,-0.511750,-20.414168,-82.901586,20.787405
01883,256018,8.774903,-0.749310,1.935023,0.071472,-0.027728,-0.048172,-0.766634,0.205355,-0.512427,-20.201709,-82.926482,20.614600
01884,256118,8.978906,-0.823895,1.908008,0.085503,-0.053990,-0.050377,-0.768159,0.203811,-0.511005,-20.011995,-82.965814,20.472830
01885,256218,9.125892,-0.975475,1.891051,0.097209,-0.080732,-0.055406,-0.768104,0.203458,-0.514029,-19.834168,-83.020421,20.349817
01886,256318,9.177698,-1.095896,1.854163,0.100959,-0.101985,-0.056748,-0.770146,0.201874,-0.511607,-19.679865,-83.086650,20.252690
01887,256418,9.131437,-1.159080,1.774367,0.097464,-0.111450,-0.059188,-0.770626,0.201432,-0.512632,-19.529541,-83.158371,20.157577
01888,256518,9.065399,-1.110951,1.715020,0.084404,-0.115241,-0.056244,-0.770642,0.197422,-0.512335,-19.403867,-83.231499,20.079776
01889,256618,9.046661,-0.998166,1.702773,0.066640,-0.116627,-0.053531,-0.773195,0.198788,-0.508761,-19.301133,-83.304794,20.014844
01890,256718,9.162571,-0.882546,1.667348,0.053447,-0.108526,-0.046253,-0.774158,0.196907,-0.510862,-19.225031,-83.372276,19.969131
01891,256818,9.353758,-0.856558,1.639425,0.056198,-0.106632,-0.043327,-0.776201,0.194825,-0.508466,-19.156904,-83.438132,19.933046
01892,256918,9.493232,-0.955095,1.640414,0.076880,-0.130588,-0.046049,-0.778187,0.192888,-0.509068,-19.102550,-83.517420,19.922763
01893,257018,9.747776,-1.119199,1.778276,0.122155,-0.167157,-0.054658,-0.777258,0.191707,-0.505620,-19.041028,-83.618066,19.931382
01894,257118,10.280939,-1.210543,1.983609,0.184461,-0.177598,-0.056921,-0.779815,0.190582,-0.502172,-18.949504,-83.724729,19.945743
01895,257218,10.984176,-1.262279,2.212863,0.235500,-0.130822,-0.057067,-0.780746,0.185808,-0.506425,-18.746721,-83.805985,19.877607
01896,257318,11.463598,-1.267962,2.387189,0.267322,-0.054432,-0.058622,-0.782717,0.187382,-0.507349,-18.384942,-83.845917,19.667907
01897,257418,11.759729,-1.176504,2.623722,0.266731,0.015115,-0.064949,-0.783264,0.180817,-0.505680,-17.873132,-83.848844,19.306984
01898,257518,12.013786,-1.032212,2.898225,0.229568,0.058012,-0.069862,-0.784736,0.177924,-0.507333,-17.289297,-83.828721,18.852205
01899,257618,12.259780,-0.802389,3.257197,0.189715,0.098634,-0.079521,-0.783222,0.178446,-0.508307,-16.621159,-83.787304,18.289637
01900,257718,12.368582,-0.528514,3.577811,0.150794,0.160115,-0.096888,-0.785720,0.174500,-0.508511,-15.808084,-83.713935,17.558773
01901,257818,12.438964,-0.350566,3.683578,0.131037,0.234993,-0.116978,-0.785696,0.172081,-0.510137,-14.825348,-83.600864,16.645682
01902,257918,12.538922,-0.379616,3.832031,0.104810,0.310987,-0.133280,-0.786124,0.169791,-0.514262,-13.720261,-83.445947,15.594090
01903,258018,12.681087,-0.457503,3.692256,0.070390,0.399127,-0.140749,-0.783098,0.169840,-0.516261,-12.555664,-83.240381,14.462349
01904,258118,12.809964,-0.544091,3.184488,0.073898,0.497151,-0.131029,-0.780520,0.167052,-0.521410,-11.410759,-82.976030,13.351917
01905,258218,13.011614,-0.611278,2.017248,0.095550,0.592755,-0.090578,-0.782910,0.166360,-0.526960,-10.436314,-82.651069,12.425094
01906,258318,13.110752,-0.910403,0.438232,0.121274,0.630296,-0.014546,-0.782304,0.164150,-0.533085,-9.819672,-82.295778,11.873343
01907,258418,12.617071,-1.407250,-1.205700,0.150753,0.549260,0.017185,-0.777266,0.165211,-0.536031,-9.419211,-81.982768,11.556448
01908,258518,11.546214,-1.199330,-3.157179,0.089553,0.327213,0.025816,-0.780200,0.164407,-0.539082,-9.254201,-81.794552,11.441775
01909,258618,10.212403,-0.700928,-4.213415,-0.004015,-0.008455,0.044747,-0.782698,0.165419,-0.538532,-9.435246,-81.794669,11.622548
01910,258718,9.245748,0.180195,-3.853740,-0.056583,-0.383216,0.020446,-0.785274,0.164743,-0.534060,-9.804671,-82.008988,11.963121
01911,258818,8.638935,1.372086,-2.529957,-0.022100,-0.661474,-0.043348,-0.786362,0.165016,-0.529037,-10.114639,-82.386589,12.263362
01912,258918,8.538592,2.224345,-0.732049,0.061602,-0.776376,-0.101858,-0.791947,0.162846,-0.523642,-10.238805,-82.834878,12.424289
01913,259018,8.657904,2.446396,0.823881,0.145175,-0.733853,-0.139497,-0.795022,0.161182,-0.519221,-10.114617,-83.263031,12.383080
01914,259118,9.167732,2.172377,2.020313,0.135113,-0.532248,-0.151595,-0.795635,0.159406,-0.513299,-9.744719,-83.578539,12.088732
01915,259218,9.608888,1.665105,2.414268,0.041578,-0.216768,-0.131614,-0.797653,0.155403,-0.512504,-9.228891,-83.713545,11.593736
01916,259318,9.817199,0.941693,1.879201,-0.061358,0.129102,-0.089155,-0.796658,0.154889,-0.512529,-8.695775,-83.648467,11.022028
01917,259418,9.736012,0.468924,0.846850,-0.120670,0.377987,-0.044909,-0.795589,0.159028,-0.515824,-8.249443,-83.438089,10.503298
01918,259518,9.666614,0.092574,-0.174942,-0.161192,0.468405,-0.012159,-0.793610,0.156980,-0.515425,-7.952484,-83.173476,10.111342
01919,259618,9.700529,-0.530900,-0.959226,-0.194335,0.424416,0.016821,-0.792507,0.159720,-0.520796,-7.859969,-82.931501,9.906011
01920,259718,9.729252,-1.206961,-1.403047,-0.212965,0.285063,0.064159,-0.789027,0.160637,-0.520244,-8.084751,-82.764995,10.009630
01921,259818,9.809167,-1.556307,-1.400159,-0.218779,0.096656,0.123262,-0.790004,0.161199,-0.521219,-8.688709,-82.700380,10.492182
01922,259918,9.916489,-1.328454,-0.843002,-0.195903,-0.068612,0.161155,-0.787576,0.162486,-0.517643,-9.557380,-82.725133,11.254848
01923,260018,9.840189,-0.793882,-0.105467,-0.143202,-0.161676,0.161394,-0.790581,0.163980,-0.516568,-10.478565,-82.800915,12.100811
01924,260118,9.697785,-0.275098,0.494370,-0.055878,-0.180548,0.138213,-0.792598,0.165434,-0.514993,-11.280788,-82.888238,12.877149
01925,260218,9.459685,0.127909,1.007310,0.022942,-0.140623,0.103446,-0.794645,0.166317,-0.511944,-11.860517,-82.955973,13.474657
