PacketCounter,SampleTimeFine,Acc_X,Acc_Y,Acc_Z,Gyr_X,Gyr_Y,Gyr_Z,Mag_X,Mag_Y,Mag_Z,Roll,Pitch,Yaw
04477,511298,9.505119,-0.644804,2.317279,-0.012779,0.050258,-0.011124,-0.261144,0.115703,-0.384158,-14.645071,-75.739063,14.212325
04478,511398,9.500500,-0.642098,2.329538,-0.012415,0.051110,-0.011558,-0.262144,0.113725,-0.384259,-14.594142,-75.713353,14.185776
04479,511498,9.494192,-0.626105,2.307203,-0.007367,0.052386,-0.010444,-0.261156,0.114184,-0.383734,-14.542731,-75.686755,14.144659
04480,511598,9.526940,-0.591169,2.328408,-0.002533,0.054216,-0.008294,-0.259746,0.113445,-0.379261,-14.492854,-75.658837,14.091478
04481,511698,9.534090,-0.570994,2.328554,-0.004657,0.060355,-0.005399,-0.254712,0.112016,-0.382334,-14.446921,-75.626851,14.059796
04482,511798,9.521841,-0.537274,2.300044,-0.009359,0.062033,-0.005177,-0.258171,0.117102,-0.383081,-14.404269,-75.594084,13.996527
04483,511898,9.509982,-0.485603,2.305831,-0.017004,0.052411,-0.003545,-0.255245,0.113422,-0.380259,-14.374704,-75.566311,13.956378
04484,511998,9.517449,-0.490031,2.295000,-0.017465,0.040865,-0.003761,-0.257229,0.112980,-0.380785,-14.351419,-75.544986,13.922792
04485,512098,9.495610,-0.536719,2.292819,-0.018605,0.024559,-0.007186,-0.255180,0.113093,-0.383783,-14.330459,-75.533154,13.892615
04486,512198,9.508022,-0.617043,2.340056,-0.016958,0.015420,-0.012736,-0.256683,0.113590,-0.383258,-14.301769,-75.527206,13.851758
04487,512298,9.502826,-0.668275,2.383783,-0.012777,0.021392,-0.013248,-0.256201,0.115029,-0.382182,-14.266427,-75.518014,13.803968
04488,512398,9.485482,-0.673719,2.423497,-0.009723,0.032772,-0.014891,-0.254220,0.113479,-0.381758,-14.219620,-75.502711,13.747937
04489,512498,9.461540,-0.656851,2.394245,-0.005864,0.032616,-0.013676,-0.256232,0.113462,-0.380759,-14.173418,-75.487321,13.694278
04490,512598,9.432166,-0.620589,2.436087,-0.008082,0.025005,-0.009610,-0.254193,0.113053,-0.383283,-14.141406,-75.475570,13.654657
04491,512698,9.523882,-0.562075,2.411883,-0.002934,0.024311,-0.003184,-0.253234,0.112941,-0.381283,-14.120660,-75.463304,13.629219
04492,512798,9.557958,-0.510161,2.427655,0.005002,0.032779,0.002370,-0.250672,0.116557,-0.384603,-14.102764,-75.445554,13.610945
04493,512898,9.514325,-0.539629,2.347755,0.010211,0.034877,-0.001272,-0.253194,0.114532,-0.383206,-14.072995,-75.427148,13.583913
04494,512998,9.530363,-0.588872,2.281588,0.011765,0.032281,-0.004657,-0.254252,0.116372,-0.379606,-14.036585,-75.410658,13.550394
04495,513098,9.493387,-0.624860,2.415523,0.015036,0.028702,-0.007840,-0.254708,0.114009,-0.382233,-13.993470,-75.396588,13.512602
04496,513198,9.450155,-0.658356,2.551291,0.008373,0.016142,-0.011758,-0.252784,0.112314,-0.378809,-13.952551,-75.390034,13.473111
04497,513298,9.512160,-0.648845,2.587629,0.005725,0.014904,-0.009082,-0.253728,0.115440,-0.381156,-13.919561,-75.383792,13.439879
04498,513398,9.517332,-0.542783,2.491942,0.015805,0.030337,-0.005898,-0.253734,0.111952,-0.381334,-13.879460,-75.368519,13.405755
04499,513498,9.503248,-0.487770,2.396412,0.025480,0.049649,-0.002707,-0.253243,0.113415,-0.380758,-13.830572,-75.342061,13.367946
04500,513598,9.458412,-0.462896,2.352489,0.034067,0.044993,-0.002613,-0.254740,0.111944,-0.380835,-13.779538,-75.318173,13.333149
04501,513698,9.499595,-0.499125,2.410980,0.036390,0.037535,-0.003532,-0.253746,0.110433,-0.380911,-13.729225,-75.298552,13.300547
04502,513798,9.485113,-0.537168,2.446464,0.033376,0.025452,-0.006998,-0.251272,0.111342,-0.379860,-13.679645,-75.286120,13.266707
04503,513898,9.476389,-0.563025,2.421412,0.028313,0.011593,-0.012147,-0.254244,0.110441,-0.380911,-13.629244,-75.282094,13.229114
04504,513998,9.454164,-0.627182,2.456282,0.029257,0.002064,-0.016783,-0.254300,0.110296,-0.377912,-13.573384,-75.283991,13.186324
04505,514098,9.433421,-0.636567,2.506874,0.032118,0.010796,-0.018862,-0.255813,0.110272,-0.376913,-13.507013,-75.281290,13.134359
04506,514198,9.501225,-0.609535,2.496445,0.037134,0.028232,-0.017717,-0.254313,0.108279,-0.377514,-13.431378,-75.268702,13.075929
04507,514298,9.513926,-0.525214,2.413828,0.034098,0.049618,-0.014377,-0.254819,0.109260,-0.376963,-13.353913,-75.243732,13.013675
04508,514398,9.510774,-0.449199,2.383693,0.025753,0.059855,-0.012211,-0.255324,0.110738,-0.376388,-13.280928,-75.212748,12.951053
04509,514498,9.527923,-0.409330,2.386875,0.015442,0.047274,-0.008129,-0.255305,0.105828,-0.378141,-13.228955,-75.188227,12.904297
04510,514598,9.519352,-0.455921,2.443179,0.003724,0.033431,-0.007211,-0.253834,0.107725,-0.376539,-13.192622,-75.171300,12.866573
04511,514698,9.542521,-0.540685,2.489523,-0.000836,0.021482,-0.011485,-0.253320,0.106271,-0.377615,-13.155862,-75.161589,12.825779
04512,514798,9.524650,-0.609107,2.533199,0.001087,0.016483,-0.015838,-0.254323,0.107757,-0.377039,-13.111342,-75.155227,12.778019
04513,514898,9.502735,-0.621896,2.539690,0.006728,0.020050,-0.021315,-0.255335,0.109718,-0.375938,-13.050364,-75.147573,12.716548
04514,514998,9.501212,-0.582911,2.531122,0.016723,0.030066,-0.023990,-0.252876,0.107115,-0.374565,-12.973236,-75.134651,12.644385
04515,515098,9.474120,-0.521387,2.509884,0.028124,0.040674,-0.025357,-0.254849,0.107693,-0.375540,-12.881733,-75.115953,12.564067
04516,515198,9.487379,-0.490810,2.470028,0.032770,0.047789,-0.024497,-0.253360,0.110136,-0.374913,-12.786196,-75.093137,12.482281
04517,515298,9.477725,-0.428276,2.465754,0.034504,0.043199,-0.021611,-0.253282,0.106865,-0.379589,-12.698145,-75.072488,12.409381
04518,515398,9.494930,-0.462671,2.499075,0.030259,0.041854,-0.022010,-0.253829,0.110715,-0.376387,-12.612542,-75.052613,12.336348
04519,515498,9.471855,-0.543247,2.496833,0.025647,0.046113,-0.022218,-0.254316,0.106785,-0.377590,-12.527368,-75.030353,12.261148
04520,515598,9.448836,-0.621608,2.498385,0.016266,0.045792,-0.022140,-0.251333,0.108706,-0.376988,-12.448122,-75.008235,12.186428
04521,515698,9.460596,-0.638683,2.514467,0.010736,0.045207,-0.018412,-0.252332,0.107227,-0.377064,-12.380317,-74.985959,12.120309
04522,515798,9.460555,-0.576555,2.535713,0.008066,0.050795,-0.017887,-0.251797,0.106817,-0.379089,-12.312794,-74.960470,12.052891
04523,515898,9.455709,-0.504287,2.442235,0.006116,0.059696,-0.016403,-0.252338,0.108698,-0.376488,-12.245684,-74.929797,11.984674
04524,515998,9.435471,-0.444782,2.389607,0.000818,0.061429,-0.017215,-0.253292,0.106343,-0.379114,-12.179415,-74.898233,11.914258
04525,516098,9.417393,-0.397799,2.354998,-0.007591,0.051225,-0.013218,-0.249363,0.106135,-0.376114,-12.131060,-74.871885,11.857352
04526,516198,9.422824,-0.383338,2.420459,-0.015122,0.033218,-0.012178,-0.250322,0.106247,-0.378114,-12.097324,-74.855490,11.811127
04527,516298,9.446939,-0.413747,2.487424,-0.018572,0.020056,-0.012178,-0.251801,0.110281,-0.378411,-12.071466,-74.846464,11.770944
04528,516398,9.462050,-0.481179,2.534816,-0.018009,0.012950,-0.012703,-0.249341,0.108176,-0.377012,-12.047366,-74.841477,11.732999
04529,516498,9.487466,-0.541661,2.564793,-0.012239,0.007836,-0.012277,-0.252317,0.110241,-0.377412,-12.023117,-74.839301,11.698275
04530,516598,9.465615,-0.595080,2.524333,-0.007818,0.012183,-0.013057,-0.252276,0.107372,-0.380063,-11.992821,-74.834776,11.659999
04531,516698,9.429803,-0.604948,2.488879,-0.008237,0.018430,-0.009694,-0.249801,0.108779,-0.378986,-11.967011,-74.826345,11.626038
04532,516798,9.404106,-0.569354,2.434109,-0.010417,0.023164,-0.005268,-0.251802,0.109285,-0.378462,-11.949559,-74.814732,11.599443
04533,516898,9.402794,-0.516374,2.433546,-0.009528,0.020078,-0.000277,-0.251785,0.108336,-0.379512,-11.943277,-74.804256,11.584989
04534,516998,9.425570,-0.464166,2.438751,-0.013860,0.013765,0.004140,-0.250308,0.109261,-0.378461,-11.951356,-74.796796,11.582799
04535,517098,9.456450,-0.423733,2.404630,-0.013107,-0.000669,0.006450,-0.251774,0.109357,-0.379961,-11.970064,-74.797154,11.592096
04536,517198,9.522899,-0.433188,2.492193,-0.007986,-0.017460,0.008540,-0.252265,0.108392,-0.380512,-11.997503,-74.806674,11.613506
04537,517298,9.504967,-0.488928,2.548385,-0.003477,-0.023773,0.002519,-0.249792,0.108803,-0.379486,-12.012729,-74.820446,11.624899
04538,517398,9.504531,-0.577849,2.594414,-0.005501,-0.019296,0.000749,-0.251811,0.109759,-0.377937,-12.023512,-74.831920,11.630454
04539,517498,9.489470,-0.621845,2.556943,-0.005428,-0.015621,-0.000793,-0.252280,0.110337,-0.379411,-12.029458,-74.841517,11.631069
04540,517598,9.467646,-0.618755,2.543130,-0.003377,-0.012816,-0.000301,-0.252303,0.107798,-0.378538,-12.034016,-74.849483,11.631537
04541,517698,9.466418,-0.604239,2.509383,0.004753,-0.006773,-0.000316,-0.253810,0.105804,-0.378141,-12.031223,-74.854064,11.629216
04542,517798,9.445533,-0.536815,2.502568,0.013951,-0.005687,0.000987,-0.252857,0.107661,-0.375540,-12.025382,-74.857881,11.629075
04543,517898,9.450723,-0.508307,2.527673,0.025595,-0.003491,0.000627,-0.254303,0.108802,-0.377988,-12.011152,-74.860510,11.627186
04544,517998,9.499058,-0.531069,2.540063,0.032945,-0.006886,0.000473,-0.251841,0.108192,-0.376513,-11.993882,-74.865060,11.626535
04545,518098,9.499984,-0.579761,2.583282,0.030125,-0.009651,0.000254,-0.253318,0.107765,-0.377539,-11.978987,-74.871184,11.626687
04546,518198,9.479748,-0.613067,2.575944,0.023322,-0.014875,0.002645,-0.250322,0.106746,-0.378089,-11.975247,-74.879949,11.634378
04547,518298,9.421816,-0.615073,2.559560,0.012964,-0.021996,0.003674,-0.253345,0.107693,-0.376039,-11.982725,-74.892584,11.647468
04548,518398,9.485688,-0.619744,2.520047,0.009446,-0.020644,0.008255,-0.249319,0.110217,-0.377911,-12.001164,-74.903914,11.669800
04549,518498,9.545962,-0.513062,2.495707,0.021700,0.005093,0.015613,-0.251303,0.109775,-0.378436,-12.016508,-74.899942,11.696256
04550,518598,9.482891,-0.419926,2.376952,0.035315,0.017584,0.016513,-0.247841,0.106184,-0.377613,-12.020377,-74.888863,11.719004
04551,518698,9.476923,-0.390558,2.299140,0.038509,0.018875,0.017486,-0.247832,0.106208,-0.378113,-12.023844,-74.876946,11.743158
04552,518798,9.490783,-0.408314,2.373300,0.036664,0.011320,0.015409,-0.248785,0.109309,-0.379960,-12.027382,-74.869514,11.766187
04553,518898,9.480094,-0.457465,2.483169,0.027954,-0.008561,0.012968,-0.248833,0.108691,-0.377486,-12.039624,-74.873513,11.793112
04554,518998,9.466834,-0.520752,2.598702,0.015133,-0.029946,0.016339,-0.253831,0.109718,-0.376438,-12.075700,-74.889089,11.837086
04555,519098,9.482788,-0.527814,2.645326,0.011489,-0.025648,0.016100,-0.251365,0.111101,-0.374862,-12.111535,-74.902275,11.878632
04556,519198,9.446048,-0.530211,2.515375,0.015389,-0.007180,0.018557,-0.254852,0.111156,-0.374863,-12.142045,-74.904814,11.917027
04557,519298,9.418404,-0.523391,2.406273,0.019209,0.004590,0.017612,-0.253381,0.108593,-0.373989,-12.163144,-74.900870,11.948028
04558,519398,9.465446,-0.523875,2.390773,0.023284,0.015095,0.014646,-0.257900,0.109066,-0.371966,-12.171038,-74.891400,11.967683
04559,519498,9.472477,-0.518780,2.416260,0.029877,0.010207,0.017156,-0.262345,0.110230,-0.373916,-12.182533,-74.884364,11.994981
04560,519598,9.446831,-0.539982,2.449318,0.034080,-0.010490,0.013758,-0.264344,0.111234,-0.373366,-12.193838,-74.889330,12.024568
04561,519698,9.447781,-0.546846,2.511844,0.031967,-0.036099,0.011984,-0.263884,0.111130,-0.371367,-12.214196,-74.908849,12.062292
04562,519798,9.447556,-0.556380,2.605739,0.024853,-0.051365,0.011665,-0.264392,0.110616,-0.370892,-12.244937,-74.936949,12.106562
04563,519898,9.487878,-0.562574,2.639727,0.020346,-0.054520,0.010476,-0.264805,0.111837,-0.375340,-12.277356,-74.966953,12.149893
04564,519998,9.502294,-0.491702,2.615195,0.012069,-0.038031,0.010090,-0.265905,0.110591,-0.369893,-12.306349,-74.987765,12.184754
04565,520098,9.479657,-0.465118,2.520399,0.007325,-0.020643,0.013117,-0.265886,0.110639,-0.370893,-12.336524,-74.998469,12.218033
04566,520198,9.451735,-0.477402,2.429689,0.005274,-0.006801,0.014690,-0.266929,0.110535,-0.368394,-12.364864,-75.001229,12.248187
04567,520298,9.440035,-0.535288,2.386544,0.007233,0.000175,0.016777,-0.267901,0.108630,-0.369995,-12.393250,-74.999825,12.279568
04568,520398,9.451228,-0.541315,2.388042,0.008987,-0.008581,0.018241,-0.267955,0.109482,-0.366946,-12.427715,-75.003138,12.318258
04569,520498,9.484468,-0.537141,2.458550,0.008575,-0.020196,0.019974,-0.270886,0.110670,-0.369895,-12.471419,-75.012728,12.366274
04570,520598,9.480575,-0.531309,2.506718,0.001244,-0.031578,0.022059,-0.269439,0.110526,-0.367395,-12.529030,-75.028415,12.424335
04571,520698,9.497946,-0.539820,2.565204,-0.004764,-0.034780,0.019760,-0.272493,0.109907,-0.363923,-12.586888,-75.046163,12.479086
04572,520798,9.521404,-0.505089,2.577569,-0.012562,-0.032095,0.018748,-0.272936,0.110059,-0.366922,-12.645963,-75.062521,12.530474
04573,520898,9.558223,-0.482519,2.518085,-0.017257,-0.022143,0.017565,-0.274485,0.110437,-0.363898,-12.700662,-75.073452,12.574544
04574,520998,9.522052,-0.514224,2.446440,-0.016394,-0.011569,0.015011,-0.274992,0.110420,-0.363399,-12.744565,-75.078785,12.607953
04575,521098,9.530112,-0.568739,2.395664,-0.011126,-0.009758,0.015033,-0.279467,0.110018,-0.363925,-12.784663,-75.083098,12.640545
04576,521198,9.530305,-0.616768,2.372812,-0.000196,-0.004268,0.008887,-0.281019,0.108900,-0.360978,-12.803012,-75.085121,12.657107
04577,521298,9.473438,-0.648687,2.396691,0.002369,-0.012740,0.008218,-0.278447,0.113039,-0.364772,-12.822543,-75.091960,12.676408
04578,521398,9.443849,-0.663521,2.464842,0.004716,-0.025852,0.008101,-0.278980,0.113947,-0.362722,-12.846784,-75.106137,12.701972
04579,521498,9.434724,-0.620544,2.535949,0.002787,-0.036116,0.009350,-0.278966,0.111504,-0.363849,-12.879740,-75.125884,12.735410
04580,521598,9.489541,-0.592890,2.558735,0.002445,-0.028228,0.009758,-0.275464,0.114960,-0.364170,-12.910031,-75.141166,12.765885
04581,521698,9.488041,-0.568269,2.504710,-0.003356,-0.019948,0.012016,-0.278425,0.114582,-0.365696,-12.944460,-75.151530,12.797201
04582,521798,9.458529,-0.530374,2.451637,-0.006996,-0.011409,0.010544,-0.276474,0.117419,-0.363043,-12.973772,-75.157311,12.821064
04583,521898,9.477634,-0.537267,2.439437,-0.010635,-0.014665,0.010782,-0.276479,0.114928,-0.363170,-13.007275,-75.164876,12.847109
04584,521998,9.500509,-0.519878,2.449756,-0.007537,-0.022826,0.009098,-0.274922,0.118536,-0.365991,-13.039466,-75.177210,12.873628
04585,522098,9.535501,-0.536122,2.461343,-0.008285,-0.026818,0.006153,-0.275947,0.117982,-0.364517,-13.067872,-75.192150,12.895790
04586,522198,9.530326,-0.583130,2.479972,-0.007472,-0.026149,0.004301,-0.278944,0.119002,-0.363968,-13.091621,-75.206954,12.913614
04587,522298,9.507103,-0.587557,2.479836,-0.008005,-0.020147,0.001520,-0.277417,0.121542,-0.365340,-13.106882,-75.218768,12.922342
04588,522398,9.471935,-0.591478,2.473651,-0.008027,-0.018914,0.002497,-0.277477,0.118906,-0.362468,-13.123634,-75.229765,12.932601
04589,522498,9.470012,-0.595726,2.443749,-0.006494,-0.015079,0.001114,-0.280458,0.117981,-0.363019,-13.134706,-75.238801,12.937893
04590,522598,9.438042,-0.582117,2.437570,-0.009329,-0.018694,0.005182,-0.281485,0.116430,-0.361596,-13.157822,-75.249323,12.953959
04591,522698,9.459875,-0.588933,2.425055,-0.009846,-0.025265,0.005485,-0.282474,0.120431,-0.361393,-13.185170,-75.263470,12.974092
04592,522798,9.474649,-0.589202,2.432703,-0.011836,-0.033515,0.006104,-0.283998,0.119884,-0.359920,-13.219132,-75.282135,12.999883
04593,522898,9.486403,-0.611012,2.426457,-0.010268,-0.032152,0.006012,-0.285486,0.117939,-0.360522,-13.251396,-75.300048,13.024846
04594,522998,9.497033,-0.646390,2.417248,-0.007048,-0.028519,0.002121,-0.285985,0.117449,-0.360547,-13.271783,-75.316443,13.039432
04595,523098,9.498942,-0.603156,2.410720,-0.010245,-0.027880,0.004779,-0.285003,0.119876,-0.359421,-13.299384,-75.332129,13.059581
04596,523198,9.487187,-0.543135,2.413382,-0.016590,-0.030423,0.001797,-0.290494,0.118444,-0.358998,-13.325597,-75.349626,13.074536
04597,523298,9.510067,-0.503274,2.434591,-0.016515,-0.033017,0.002458,-0.288048,0.119779,-0.356423,-13.354539,-75.368478,13.092356
04598,523398,9.544548,-0.514132,2.416312,-0.017902,-0.033648,0.001726,-0.290010,0.120880,-0.357872,-13.383088,-75.387778,13.108948
04599,523498,9.544093,-0.532046,2.429338,-0.015645,-0.034057,-0.001555,-0.290472,0.120486,-0.359896,-13.403587,-75.407739,13.118556
04600,523598,9.544011,-0.554228,2.471416,-0.010676,-0.035124,-0.007518,-0.290969,0.120992,-0.359871,-13.409037,-75.429085,13.115557
04601,523698,9.523539,-0.596461,2.454869,-0.007897,-0.031966,-0.009844,-0.293443,0.120083,-0.360923,-13.406288,-75.448981,13.105732
04602,523798,9.504088,-0.637261,2.476034,-0.003538,-0.021526,-0.012498,-0.295938,0.123088,-0.360271,-13.389974,-75.463408,13.084475
04603,523898,9.460814,-0.639524,2.452109,-0.011858,-0.016381,-0.011979,-0.291437,0.122566,-0.361295,-13.376883,-75.474896,13.061623
04604,523998,9.444352,-0.562333,2.436469,-0.027959,-0.018583,-0.006986,-0.295400,0.124671,-0.362194,-13.384868,-75.486948,13.051016
04605,524098,9.480940,-0.476864,2.376540,-0.041267,-0.023169,-0.004008,-0.296367,0.125257,-0.363668,-13.409247,-75.501163,13.049468
04606,524198,9.566412,-0.406091,2.361388,-0.041436,-0.012048,-0.002294,-0.294914,0.128102,-0.361016,-13.431713,-75.508952,13.045846
04607,524298,9.573714,-0.421745,2.350963,-0.036756,0.000511,-0.001804,-0.293836,0.127307,-0.365565,-13.446086,-75.509678,13.036637
04608,524398,9.547589,-0.491562,2.239082,-0.030004,0.006986,-0.006726,-0.292893,0.128641,-0.362489,-13.442640,-75.507455,13.013016
04609,524498,9.549305,-0.582621,2.265086,-0.025567,-0.003878,-0.010603,-0.293332,0.130787,-0.365387,-13.433891,-75.511802,12.986542
04610,524598,9.487650,-0.694201,2.386932,-0.026066,-0.021371,-0.013405,-0.291797,0.132354,-0.367309,-13.428384,-75.526270,12.963117
04611,524698,9.487952,-0.764013,2.521144,-0.036088,-0.044234,-0.016485,-0.291769,0.132924,-0.368783,-13.433734,-75.553887,12.944979
04612,524798,9.491501,-0.732843,2.547420,-0.040421,-0.038691,-0.014536,-0.291759,0.132948,-0.369283,-13.442908,-75.578153,12.928225
04613,524898,9.449481,-0.657406,2.454725,-0.031343,-0.019321,-0.012893,-0.293692,0.135117,-0.372181,-13.440391,-75.591405,12.904774
04614,524998,9.400471,-0.598420,2.290032,-0.015865,-0.004484,-0.009298,-0.292277,0.132410,-0.368309,-13.429099,-75.595910,12.881417
04615,525098,9.448077,-0.555047,2.251425,-0.004930,-0.002296,-0.010712,-0.297724,0.134562,-0.369709,-13.407331,-75.599383,12.853711
04616,525198,9.495436,-0.510405,2.249575,0.001234,-0.012103,-0.009404,-0.298689,0.131685,-0.371861,-13.389927,-75.608147,12.834156
04617,525298,9.498935,-0.514230,2.263911,0.004794,-0.034365,-0.010473,-0.300273,0.133461,-0.366761,-13.379647,-75.629463,12.824060
04618,525398,9.532296,-0.583270,2.301295,0.009971,-0.052229,-0.012286,-0.305239,0.131595,-0.367865,-13.371672,-75.660976,12.819405
04619,525498,9.543885,-0.633028,2.390293,0.011843,-0.059783,-0.017337,-0.305784,0.130984,-0.365391,-13.355482,-75.697369,12.807378
04620,525598,9.511705,-0.682397,2.463492,0.016063,-0.049987,-0.020884,-0.311799,0.130983,-0.363394,-13.323940,-75.728766,12.782005
04621,525698,9.530433,-0.647901,2.466819,0.023008,-0.035766,-0.020716,-0.310322,0.126451,-0.363122,-13.281284,-75.752206,12.749274
04622,525798,9.538021,-0.611621,2.395899,0.031372,-0.022619,-0.017502,-0.313858,0.129849,-0.359946,-13.233976,-75.767885,12.716690
04623,525898,9.524590,-0.558161,2.343320,0.039355,-0.017587,-0.011485,-0.315847,0.126916,-0.360599,-13.192655,-75.779963,12.695003
04624,525998,9.530736,-0.562281,2.315014,0.040407,-0.021026,-0.009308,-0.315862,0.128860,-0.359498,-13.157248,-75.793672,12.680038
04625,526098,9.534328,-0.560192,2.337785,0.040727,-0.027130,-0.005570,-0.318378,0.124866,-0.358702,-13.133002,-75.810298,12.676775
04626,526198,9.527741,-0.563984,2.322080,0.037405,-0.027188,-0.003548,-0.319391,0.126328,-0.357627,-13.115129,-75.826693,12.678122
04627,526298,9.538936,-0.513430,2.340718,0.031890,-0.022041,-0.003892,-0.321892,0.125845,-0.357153,-13.096986,-75.840260,12.675931
04628,526398,9.537532,-0.434776,2.312651,0.026893,-0.017420,-0.001571,-0.321403,0.125813,-0.356653,-13.084444,-75.850948,12.676566
04629,526498,9.554697,-0.394907,2.278378,0.021657,-0.015692,-0.000403,-0.323415,0.124800,-0.355705,-13.076585,-75.860522,12.678938
04630,526598,9.572612,-0.407023,2.310084,0.017446,-0.015845,-0.000261,-0.322432,0.122768,-0.355307,-13.071526,-75.870163,12.681710
04631,526698,9.584612,-0.479520,2.293979,0.019689,-0.015070,-0.002737,-0.323932,0.124760,-0.354706,-13.059285,-75.879693,12.678401
04632,526798,9.566449,-0.512306,2.357627,0.026462,-0.022208,-0.001856,-0.325954,0.123723,-0.353258,-13.048782,-75.893093,12.680888
04633,526898,9.588739,-0.530805,2.411533,0.030491,-0.017091,-0.004219,-0.326422,0.125298,-0.354681,-13.028075,-75.903942,12.675234
04634,526998,9.558646,-0.509149,2.424827,0.030605,-0.006445,-0.008436,-0.326370,0.123450,-0.357781,-12.992428,-75.909390,12.654246
04635,527098,9.514535,-0.477041,2.362520,0.019554,-0.003719,-0.006646,-0.324906,0.126817,-0.355604,-12.965676,-75.913083,12.635902
04636,527198,9.516418,-0.404388,2.315960,0.005232,-0.007921,-0.007487,-0.325383,0.122911,-0.357306,-12.947393,-75.919229,12.617833
04637,527298,9.504842,-0.356941,2.308240,-0.007208,-0.015979,-0.006426,-0.325330,0.127017,-0.359602,-12.942701,-75.929737,12.606430
04638,527398,9.496101,-0.371229,2.260055,-0.016357,-0.022538,-0.011563,-0.322342,0.126472,-0.359627,-12.935139,-75.944568,12.586668
04639,527498,9.470762,-0.446071,2.245300,-0.021186,-0.022682,-0.011908,-0.325331,0.126519,-0.359628,-12.929617,-75.959524,12.566156
04640,527598,9.492851,-0.486000,2.257153,-0.021781,-0.026200,-0.013429,-0.323790,0.126616,-0.362127,-12.922811,-75.976640,12.543971
04641,527698,9.533458,-0.517857,2.300807,-0.021014,-0.030076,-0.015699,-0.322277,0.126641,-0.363126,-12.912436,-75.996210,12.518562
04642,527798,9.561016,-0.515978,2.326622,-0.021849,-0.032933,-0.013825,-0.325786,0.129613,-0.361475,-12.908159,-76.017135,12.498947
04643,527898,9.574008,-0.506787,2.338050,-0.027260,-0.033077,-0.011925,-0.324275,0.128641,-0.362525,-12.911288,-76.037897,12.483771
04644,527998,9.547500,-0.492276,2.321232,-0.029535,-0.027177,-0.013893,-0.327232,0.130754,-0.363924,-12.908236,-76.055616,12.460885
04645,528098,9.527641,-0.529336,2.303203,-0.032878,-0.022532,-0.016613,-0.327686,0.129885,-0.366474,-12.898548,-76.071088,12.429189
04646,528198,9.516614,-0.571883,2.258009,-0.026466,-0.012066,-0.018918,-0.325700,0.131325,-0.365897,-12.874554,-76.081008,12.386540
04647,528298,9.534383,-0.614207,2.229630,-0.021904,-0.009356,-0.020393,-0.327170,0.134386,-0.366745,-12.843184,-76.089596,12.338983
04648,528398,9.523616,-0.622788,2.230356,-0.017585,-0.011041,-0.015206,-0.326685,0.132361,-0.366346,-12.821872,-76.098461,12.304334
04649,528498,9.559872,-0.611893,2.265207,-0.012924,-0.018047,-0.011833,-0.328147,0.134948,-0.367719,-12.809071,-76.110810,12.281203
04650,528598,9.547460,-0.579705,2.283517,-0.009524,-0.023063,-0.011848,-0.328648,0.138419,-0.367041,-12.796835,-76.125961,12.260662
04651,528698,9.542765,-0.543323,2.333465,-0.006817,-0.017677,-0.010104,-0.325606,0.137022,-0.370116,-12.784196,-76.137881,12.241303
04652,528798,9.526223,-0.536356,2.343122,-0.003445,-0.014493,-0.007654,-0.327109,0.137519,-0.369591,-12.773515,-76.147709,12.225953
04653,528898,9.525774,-0.515969,2.298933,-0.001119,-0.010958,-0.005863,-0.327575,0.140091,-0.370964,-12.763729,-76.155334,12.212897
04654,528998,9.523663,-0.513894,2.334550,0.001158,-0.008262,-0.005579,-0.326092,0.139046,-0.370514,-12.751886,-76.161415,12.199067
04655,529098,9.542228,-0.525900,2.286464,0.009918,-0.007033,-0.003817,-0.327547,0.140163,-0.372463,-12.738381,-76.166587,12.188695
04656,529198,9.544001,-0.563848,2.264229,0.015698,-0.007965,-0.005402,-0.326996,0.143763,-0.374784,-12.718437,-76.172479,12.175101
04657,529298,9.525864,-0.562761,2.265078,0.017611,-0.010414,-0.004359,-0.322482,0.145757,-0.376180,-12.701009,-76.179607,12.165226
04658,529398,9.512031,-0.550858,2.263993,0.022215,-0.011554,-0.004276,-0.322025,0.148618,-0.373529,-12.681704,-76.187361,12.156133
04659,529498,9.481924,-0.538854,2.285821,0.026590,-0.015698,-0.001797,-0.323436,0.148360,-0.378053,-12.667636,-76.197119,12.155014
04660,529598,9.495603,-0.512423,2.307833,0.028328,-0.023485,-0.000990,-0.321422,0.149872,-0.378976,-12.658384,-76.211128,12.159880
04661,529698,9.473490,-0.480396,2.335713,0.023733,-0.029939,0.002087,-0.316887,0.152910,-0.381321,-12.662083,-76.228358,12.175372
04662,529798,9.486052,-0.464482,2.315861,0.015058,-0.034537,0.001565,-0.319863,0.155473,-0.381695,-12.671948,-76.248223,12.192095
04663,529898,9.488980,-0.472144,2.320893,0.007001,-0.039645,0.001424,-0.315345,0.154004,-0.383769,-12.688777,-76.270960,12.211234
04664,529998,9.553498,-0.433682,2.328835,0.000216,-0.039237,0.002138,-0.315331,0.156519,-0.384141,-12.710978,-76.293376,12.231902
04665,530098,9.597039,-0.401429,2.305192,0.001476,-0.023912,0.003655,-0.311805,0.158054,-0.386063,-12.728059,-76.307035,12.248044
04666,530198,9.575041,-0.418976,2.257518,0.012213,-0.004559,0.003563,-0.313740,0.158729,-0.389037,-12.728763,-76.309889,12.253664
04667,530298,9.579897,-0.479468,2.141816,0.018732,0.004675,-0.000995,-0.311209,0.160280,-0.390960,-12.710493,-76.308159,12.243595
04668,530398,9.528802,-0.492719,2.168992,0.017167,-0.004581,-0.003147,-0.312164,0.162884,-0.392832,-12.692970,-76.311874,12.233371
04669,530498,9.454425,-0.509206,2.256744,0.001947,-0.036578,-0.007272,-0.310155,0.161904,-0.393882,-12.691233,-76.333992,12.230419
04670,530598,9.485257,-0.548678,2.395009,-0.017003,-0.064777,-0.008206,-0.309077,0.166066,-0.397676,-12.712846,-76.371988,12.240326
04671,530698,9.527824,-0.547703,2.421950,-0.020113,-0.056182,-0.005320,-0.309563,0.167593,-0.398101,-12.738512,-76.404813,12.252569
04672,530798,9.533858,-0.499338,2.312033,-0.013870,-0.033932,-0.004989,-0.307528,0.170647,-0.399946,-12.749796,-76.425161,12.253697
04673,530898,9.522428,-0.494498,2.184531,-0.004753,-0.019088,-0.005602,-0.308924,0.173901,-0.404793,-12.746669,-76.437291,12.245372
04674,530998,9.525541,-0.468981,2.161477,0.002474,-0.014678,-0.004960,-0.306455,0.172319,-0.403869,-12.738567,-76.446876,12.236189
04675,531098,9.516385,-0.418164,2.140992,-0.000597,-0.024164,-0.002853,-0.308331,0.175130,-0.409740,-12.742074,-76.461497,12.237136
04676,531198,9.476990,-0.438650,2.127264,-0.002415,-0.049118,-0.003651,-0.303261,0.178257,-0.414084,-12.757899,-76.490166,12.249680
04677,531298,9.493435,-0.494263,2.173983,-0.007307,-0.077884,-0.007130,-0.305688,0.182427,-0.416880,-12.783690,-76.535348,12.269587
04678,531398,9.541872,-0.553950,2.219917,-0.006614,-0.088174,-0.013112,-0.306105,0.186614,-0.420676,-12.800705,-76.587037,12.280875
04679,531498,9.590572,-0.596952,2.292409,-0.003004,-0.083794,-0.013408,-0.302614,0.189049,-0.420548,-12.812721,-76.636314,12.289147
04680,531598,9.599853,-0.583154,2.319055,-0.005636,-0.070593,-0.013534,-0.304496,0.193830,-0.425817,-12.818941,-76.678231,12.289910
04681,531698,9.618304,-0.558216,2.287678,-0.005352,-0.055253,-0.007457,-0.301946,0.195928,-0.428714,-12.831135,-76.710804,12.296981
04682,531798,9.608534,-0.531220,2.268551,-0.005026,-0.047024,-0.008893,-0.303858,0.199640,-0.432535,-12.835342,-76.738962,12.296036
04683,531898,9.559496,-0.498864,2.219531,-0.002297,-0.038843,-0.006832,-0.303788,0.202300,-0.435907,-12.838457,-76.762286,12.295577
04684,531998,9.534740,-0.459823,2.223026,0.000529,-0.030292,-0.006308,-0.303264,0.206326,-0.436703,-12.836567,-76.780767,12.291640
04685,532098,9.530230,-0.461492,2.196568,0.000334,-0.032794,-0.004612,-0.303224,0.208415,-0.438601,-12.840176,-76.800430,12.293239
04686,532198,9.529015,-0.476548,2.178424,0.001784,-0.032886,-0.005779,-0.301698,0.209958,-0.440023,-12.840227,-76.820292,12.292036
04687,532298,9.528333,-0.499701,2.155360,0.000942,-0.032271,-0.003922,-0.305123,0.213646,-0.442845,-12.844861,-76.839575,12.295044
04688,532398,9.543099,-0.495357,2.152364,0.001750,-0.035226,-0.001840,-0.305065,0.215285,-0.445768,-12.855641,-76.860243,12.304837
04689,532498,9.576409,-0.500469,2.151532,-0.001402,-0.042978,-0.000601,-0.306559,0.215308,-0.445768,-12.875476,-76.885083,12.322073
04690,532598,9.584489,-0.476121,2.199684,-0.001863,-0.046213,0.002168,-0.305950,0.215091,-0.451792,-12.904075,-76.911373,12.348034
04691,532698,9.606915,-0.477815,2.228049,0.001490,-0.050635,-0.000397,-0.309985,0.217999,-0.448642,-12.927127,-76.940458,12.370272
04692,532798,9.641886,-0.545005,2.198518,0.012768,-0.033957,-0.005176,-0.311494,0.220466,-0.447515,-12.923048,-76.960842,12.371289
04693,532898,9.588905,-0.592198,2.167747,0.019548,-0.023140,-0.006476,-0.311926,0.221141,-0.450989,-12.905953,-76.975350,12.362932
04694,532998,9.516123,-0.620463,2.123971,0.024884,-0.025651,-0.005408,-0.312845,0.222844,-0.454911,-12.889748,-76.991123,12.358623
04695,533098,9.498160,-0.567152,2.140875,0.028886,-0.029441,-0.003985,-0.315319,0.227392,-0.455183,-12.876773,-77.008831,12.359982
04696,533198,9.555499,-0.457905,2.140145,0.036102,-0.032697,-0.002554,-0.314816,0.224917,-0.455810,-12.864918,-77.028175,12.366733
04697,533298,9.589374,-0.393049,2.130999,0.036880,-0.030569,-0.001035,-0.314791,0.228452,-0.456632,-12.855114,-77.046138,12.376047
04698,533398,9.624987,-0.390513,2.128995,0.034518,-0.029266,-0.001509,-0.314254,0.229537,-0.458580,-12.844783,-77.063434,12.383431
04699,533498,9.646552,-0.432354,2.110922,0.034102,-0.029703,-0.000694,-0.315684,0.234190,-0.461351,-12.836912,-77.080872,12.393095
04700,533598,9.648648,-0.484318,2.140101,0.033771,-0.029701,-0.003003,-0.313633,0.235797,-0.464272,-12.823603,-77.098602,12.396983
04701,533698,9.586329,-0.529579,2.200918,0.028107,-0.025964,-0.004780,-0.313554,0.238481,-0.468144,-12.807115,-77.114471,12.394282
04702,533798,9.544660,-0.559468,2.184049,0.019621,-0.023939,-0.004986,-0.315552,0.240980,-0.467518,-12.793844,-77.129233,12.389892
04703,533898,9.566074,-0.472838,2.162750,0.017380,-0.020523,-0.001662,-0.310930,0.245730,-0.474285,-12.788075,-77.141663,12.391882
04704,533998,9.599699,-0.362236,2.173966,0.012744,-0.017128,0.003153,-0.312388,0.250808,-0.475531,-12.794861,-77.151586,12.404027
04705,534098,9.655672,-0.328124,2.179896,0.013336,-0.009104,0.006110,-0.311811,0.253484,-0.479402,-12.804094,-77.156650,12.419033
04706,534198,9.673491,-0.348678,2.166469,0.018052,0.001844,0.007173,-0.311251,0.257108,-0.482223,-12.807128,-77.155463,12.430455
04707,534298,9.674194,-0.419805,2.125612,0.018122,0.010248,0.006634,-0.306208,0.260163,-0.485068,-12.804117,-77.149649,12.435720
04708,534398,9.615297,-0.455860,2.187236,0.012104,0.018801,0.003571,-0.306135,0.264816,-0.488338,-12.792296,-77.139444,12.428412
04709,534498,9.564003,-0.513987,2.220266,0.001260,0.025455,0.000514,-0.305056,0.269975,-0.492082,-12.775538,-77.125908,12.409667
04710,534598,9.570051,-0.482334,2.252710,-0.005762,0.026208,-0.001572,-0.304506,0.273077,-0.494428,-12.757325,-77.112213,12.385304
04711,534698,9.591934,-0.428145,2.249718,-0.007674,0.030308,-0.001825,-0.301967,0.274154,-0.496876,-12.737370,-77.096255,12.358033
04712,534798,9.601588,-0.377932,2.226120,-0.009374,0.039229,-0.001236,-0.299947,0.279153,-0.497621,-12.714976,-77.075235,12.327260
04713,534898,9.601577,-0.387103,2.203703,-0.011386,0.052228,-0.002218,-0.298395,0.280270,-0.500568,-12.684316,-77.047068,12.286823
04714,534998,9.591617,-0.405994,2.174774,-0.019790,0.061555,-0.001310,-0.296852,0.281363,-0.503016,-12.655742,-77.013569,12.243582
04715,535098,9.619424,-0.474764,2.121771,-0.026863,0.062184,-0.000322,-0.293789,0.281508,-0.507014,-12.633450,-76.979591,12.202622
04716,535198,9.629299,-0.506649,2.140767,-0.028963,0.058844,0.000331,-0.294759,0.286057,-0.507785,-12.615903,-76.947395,12.165292
04717,535298,9.637036,-0.463891,2.170717,-0.030740,0.050194,0.000625,-0.294267,0.287519,-0.507209,-12.604864,-76.919998,12.133592
04718,535398,9.594005,-0.441395,2.175344,-0.030859,0.043194,-0.004413,-0.293775,0.289480,-0.506607,-12.585632,-76.897142,12.093408
04719,535498,9.531586,-0.422774,2.138195,-0.028637,0.041620,-0.009713,-0.290742,0.293515,-0.508402,-12.553356,-76.875823,12.041136
04720,535598,9.456124,-0.425803,2.104823,-0.027427,0.045057,-0.013556,-0.290237,0.292037,-0.508978,-12.509493,-76.853053,11.977671
04721,535698,9.449489,-0.462174,2.081068,-0.017708,0.045188,-0.015385,-0.287701,0.296577,-0.510748,-12.455810,-76.830424,11.909833
04722,535798,9.476610,-0.517771,2.105962,-0.013214,0.040323,-0.017206,-0.285704,0.299037,-0.510620,-12.397972,-76.810727,11.840363
04723,535898,9.565064,-0.573372,2.169053,-0.011058,0.048484,-0.017974,-0.283199,0.302011,-0.510967,-12.333008,-76.786540,11.764835
04724,535998,9.664175,-0.590445,2.230792,-0.012263,0.069425,-0.008721,-0.278692,0.304977,-0.511813,-12.280176,-76.749482,11.701049
04725,536098,9.671138,-0.522706,2.223121,-0.006903,0.093530,-0.002135,-0.277103,0.311149,-0.516006,-12.227840,-76.698113,11.640915
04726,536198,9.659334,-0.423357,2.133025,-0.006970,0.099802,0.003957,-0.277157,0.312499,-0.512930,-12.187152,-76.642485,11.592698
04727,536298,9.599896,-0.351626,2.093984,-0.003559,0.084593,0.004319,-0.273533,0.316269,-0.519749,-12.153420,-76.595325,11.553628
04728,536398,9.501427,-0.335334,2.166071,-0.008294,0.049900,-0.001808,-0.267626,0.318472,-0.515622,-12.125748,-76.568333,11.517995
04729,536498,9.495814,-0.408309,2.270414,-0.021129,0.009233,-0.002179,-0.267087,0.320554,-0.517519,-12.125117,-76.564163,11.502602
04730,536598,9.515536,-0.491474,2.326108,-0.024711,0.001055,-0.002827,-0.263129,0.325875,-0.515239,-12.129139,-76.564651,11.489886
04731,536698,9.477932,-0.542803,2.249741,-0.013620,0.025550,-0.000697,-0.262600,0.327932,-0.516637,-12.119477,-76.551161,11.469632
04732,536798,9.485383,-0.570468,2.138352,0.003534,0.049411,-0.001520,-0.258100,0.332369,-0.516906,-12.086144,-76.524401,11.435138
04733,536898,9.503654,-0.547954,2.112478,0.015691,0.050014,0.002025,-0.254079,0.336862,-0.518176,-12.053962,-76.496874,11.408985
04734,536998,9.482323,-0.470156,2.093476,0.020416,0.031177,0.003516,-0.254112,0.333800,-0.516829,-12.032025,-76.479724,11.396145
04735,537098,9.425703,-0.357310,2.048715,0.020379,-0.014384,0.004012,-0.249059,0.337377,-0.520148,-12.033916,-76.488047,11.407790
04736,537198,9.464778,-0.286255,2.112884,0.012651,-0.065240,0.001891,-0.246651,0.338118,-0.515599,-12.060649,-76.525120,11.440428
04737,537298,9.549753,-0.271069,2.235884,0.003227,-0.087585,-0.001003,-0.247198,0.336510,-0.513176,-12.097388,-76.575057,11.477800
04738,537398,9.588655,-0.303072,2.322064,-0.002627,-0.083001,-0.009698,-0.246758,0.335362,-0.510228,-12.114953,-76.623465,11.492010
04739,537498,9.593031,-0.376039,2.324801,-0.004204,-0.055408,-0.013710,-0.244893,0.331529,-0.503907,-12.110049,-76.656897,11.482199
04740,537598,9.545014,-0.471572,2.297592,-0.005932,-0.024189,-0.017700,-0.244931,0.330436,-0.501959,-12.080830,-76.673316,11.446385
04741,537698,9.503752,-0.573975,2.235582,-0.007274,-0.000018,-0.018515,-0.242575,0.328067,-0.495063,-12.038173,-76.676284,11.395970
04742,537798,9.528284,-0.609895,2.218408,-0.003713,0.010637,-0.016701,-0.240736,0.319702,-0.487971,-11.992400,-76.673055,11.344447
04743,537898,9.545388,-0.590295,2.236911,-0.000260,0.012929,-0.011177,-0.240376,0.320330,-0.480423,-11.956597,-76.667875,11.305202
04744,537998,9.555024,-0.548631,2.198894,-0.000834,0.010183,-0.008301,-0.236933,0.316690,-0.478601,-11.929332,-76.663888,11.274389
04745,538098,9.592573,-0.487691,2.172144,-0.001862,0.003744,-0.003902,-0.238518,0.312512,-0.474306,-11.916285,-76.662988,11.257581
04746,538198,9.585352,-0.479842,2.217752,0.000440,-0.004748,-0.003499,-0.240613,0.306822,-0.469589,-11.907110,-76.666801,11.246108
04747,538298,9.558744,-0.516513,2.211286,0.005377,-0.011371,-0.002558,-0.239209,0.302596,-0.465293,-11.900634,-76.674216,11.240314
04748,538398,9.549408,-0.558519,2.215924,0.013541,-0.008981,-0.006719,-0.240798,0.301880,-0.460321,-11.878431,-76.680781,11.223163
04749,538498,9.520340,-0.621892,2.178343,0.024872,-0.001453,-0.010324,-0.236842,0.301246,-0.458845,-11.837438,-76.683546,11.193372
04750,538598,9.534317,-0.594992,2.185895,0.035757,-0.001939,-0.008663,-0.236941,0.297518,-0.454025,-11.794380,-76.686384,11.167864
04751,538698,9.568988,-0.587191,2.186147,0.046701,0.002443,-0.006615,-0.238904,0.298618,-0.455474,-11.747734,-76.686521,11.145110
04752,538798,9.549670,-0.507000,2.179715,0.053420,-0.000644,-0.001220,-0.236519,0.296321,-0.450078,-11.711552,-76.687757,11.137062
04753,538898,9.540645,-0.407132,2.213922,0.048806,-0.009904,0.002502,-0.235499,0.294384,-0.451678,-11.691382,-76.693755,11.142754
04754,538998,9.565059,-0.333794,2.218973,0.045610,-0.023282,0.006398,-0.236583,0.296651,-0.446553,-11.688854,-76.706808,11.164693
04755,539098,9.585372,-0.302853,2.199506,0.045449,-0.029562,0.007977,-0.238531,0.295806,-0.449104,-11.693278,-76.723200,11.193683
04756,539198,9.587139,-0.328751,2.168199,0.043786,-0.025830,0.007081,-0.236112,0.292110,-0.445782,-11.694718,-76.737604,11.218626
04757,539298,9.532149,-0.390312,2.107620,0.037110,-0.016289,0.005019,-0.238108,0.295107,-0.445131,-11.690391,-76.746896,11.233713
04758,539398,9.509435,-0.449105,2.086690,0.032574,-0.005866,0.002044,-0.239156,0.292512,-0.442759,-11.676440,-76.750686,11.236240
04759,539498,9.509911,-0.491636,2.061479,0.027534,-0.001834,0.004444,-0.236673,0.293444,-0.442208,-11.669115,-76.751936,11.242603
04760,539598,9.517607,-0.482335,2.111207,0.026103,-0.006237,0.008714,-0.236223,0.292320,-0.439759,-11.674959,-76.755163,11.261651
04761,539698,9.533204,-0.456490,2.183662,0.019558,-0.017614,0.015905,-0.236720,0.292826,-0.439734,-11.707329,-76.763937,11.304096
04762,539798,9.578204,-0.415259,2.240563,0.014916,-0.034855,0.016169,-0.238236,0.290809,-0.438837,-11.751599,-76.782346,11.356031
04763,539898,9.613934,-0.407851,2.302205,0.013055,-0.042968,0.016147,-0.234730,0.291300,-0.439810,-11.801071,-76.805297,11.412212
04764,539998,9.622841,-0.409332,2.293989,0.009408,-0.041597,0.015436,-0.235281,0.292658,-0.436735,-11.850418,-76.827551,11.466118
04765,540098,9.622713,-0.390417,2.264083,0.006974,-0.031359,0.012804,-0.235754,0.291741,-0.438285,-11.889844,-76.844365,11.508399
04766,540198,9.601525,-0.432519,2.203673,0.007181,-0.015967,0.008318,-0.236300,0.290632,-0.435837,-11.910681,-76.853074,11.531712
04767,540298,9.551405,-0.469559,2.127192,0.008771,-0.004097,0.003809,-0.235264,0.292208,-0.437760,-11.913793,-76.855661,11.537756
04768,540398,9.523223,-0.488755,2.063413,0.007983,-0.001623,0.002798,-0.237849,0.291508,-0.432788,-11.913681,-76.856982,11.540022
04769,540498,9.489461,-0.486278,2.076406,0.001723,-0.012142,0.006898,-0.237849,0.291010,-0.432813,-11.932340,-76.863715,11.557878
04770,540598,9.497938,-0.462930,2.133293,0.001292,-0.024769,0.007163,-0.240407,0.289884,-0.429366,-11.958330,-76.877494,11.583006
04771,540698,9.533024,-0.467798,2.158951,-0.002112,-0.034056,0.006840,-0.239891,0.289426,-0.430391,-11.990294,-76.896513,11.612264
04772,540798,9.555495,-0.455796,2.210831,-0.005974,-0.035657,0.008080,-0.239940,0.287811,-0.427968,-12.028374,-76.916277,11.645527
04773,540898,9.568816,-0.456563,2.212141,-0.007513,-0.032201,0.007542,-0.237957,0.287755,-0.427468,-12.064360,-76.934164,11.675734
04774,540998,9.572889,-0.444780,2.200903,-0.001010,-0.024693,0.006082,-0.238518,0.288591,-0.423918,-12.089292,-76.948016,11.698416
04775,541098,9.576266,-0.455248,2.165413,0.004536,-0.019133,0.004880,-0.240013,0.288615,-0.423919,-12.105301,-76.958894,11.715200
04776,541198,9.584579,-0.493510,2.129272,0.005404,-0.012030,0.002478,-0.239529,0.285594,-0.423572,-12.111337,-76.966082,11.722256
04777,541298,9.553867,-0.511081,2.157031,0.003545,-0.011456,-0.000555,-0.237097,0.284413,-0.420623,-12.110808,-76.973313,11.721478
04778,541398,9.555228,-0.507379,2.146065,-0.001664,-0.017137,-0.000871,-0.239089,0.284445,-0.420623,-12.115454,-76.983765,11.722947
04779,541498,9.554256,-0.495373,2.135362,-0.005925,-0.023743,-0.003727,-0.239144,0.284799,-0.417599,-12.119064,-76.998260,11.720845
04780,541598,9.565763,-0.449007,2.114300,-0.015121,-0.031988,-0.002734,-0.242618,0.281415,-0.418777,-12.134662,-77.017256,11.725639
04781,541698,9.595753,-0.451672,2.148869,-0.024242,-0.035704,-0.004566,-0.239709,0.283641,-0.414151,-12.153009,-77.038553,11.727890
04782,541798,9.625789,-0.462920,2.142403,-0.021861,-0.021785,-0.003240,-0.242254,0.279076,-0.411882,-12.165947,-77.051894,11.725990
04783,541898,9.609691,-0.471336,2.094938,-0.011237,0.005302,-0.002197,-0.238821,0.279873,-0.408831,-12.161122,-77.049939,11.712107
04784,541998,9.550806,-0.530945,1.988460,-0.005367,0.022179,-0.003146,-0.242816,0.279414,-0.408358,-12.141789,-77.038646,11.686783
04785,542098,9.564491,-0.572212,1.988243,0.005092,0.029714,-0.001899,-0.243876,0.280258,-0.404809,-12.115612,-77.022981,11.660579
04786,542198,9.481526,-0.559104,2.146443,0.010415,0.017037,0.002613,-0.244473,0.276537,-0.399989,-12.104012,-77.013873,11.652461
04787,542298,9.480720,-0.522099,2.268451,-0.005150,-0.007649,0.003890,-0.244525,0.273427,-0.397642,-12.117308,-77.018439,11.660740
04788,542398,9.547891,-0.466510,2.311144,-0.011915,-0.017447,0.008895,-0.245012,0.274954,-0.398066,-12.151777,-77.027888,11.686774
04789,542498,9.603795,-0.423587,2.282117,-0.009635,-0.007183,0.012249,-0.248537,0.273916,-0.396118,-12.187748,-77.031178,11.715691
04790,542598,9.591161,-0.375785,2.122675,0.000429,0.009032,0.013054,-0.247601,0.271763,-0.393221,-12.211389,-77.025288,11.737874
04791,542698,9.552178,-0.397319,2.003686,0.006915,0.016517,0.011312,-0.249608,0.273740,-0.392120,-12.223122,-77.015417,11.751649
04792,542798,9.539215,-0.460014,2.028280,0.013187,0.014341,0.010121,-0.252219,0.268508,-0.386378,-12.229501,-77.006911,11.763615
04793,542898,9.489398,-0.511018,1.976420,0.014034,-0.002618,0.008405,-0.250246,0.267930,-0.385403,-12.240150,-77.008110,11.780456
04794,542998,9.469114,-0.526158,1.999772,0.011052,-0.031080,0.010099,-0.252328,0.264756,-0.381058,-12.271656,-77.025039,11.816943
04795,543098,9.514145,-0.517347,2.085718,0.008454,-0.059684,0.011059,-0.256831,0.264280,-0.380085,-12.322281,-77.057857,11.871516
04796,543198,9.573631,-0.461827,2.178269,0.008650,-0.068787,0.015499,-0.256860,0.263710,-0.378611,-12.388783,-77.095214,11.942486
04797,543298,9.587645,-0.348743,2.184688,0.009363,-0.060788,0.012383,-0.255882,0.263646,-0.377611,-12.443311,-77.128461,12.001585
04798,543398,9.529953,-0.309251,2.127823,0.004689,-0.046136,0.010143,-0.258431,0.261548,-0.374714,-12.487343,-77.153778,12.047167
04799,543498,9.517725,-0.311035,2.035490,0.001805,-0.039947,0.007281,-0.260406,0.261130,-0.375740,-12.522787,-77.175981,12.082244
04800,543598,9.539671,-0.370502,1.993412,0.001457,-0.042530,0.006176,-0.259482,0.262416,-0.371665,-12.557245,-77.199764,12.116099
04801,543698,9.561471,-0.459954,1.971834,0.003064,-0.044046,0.005670,-0.258448,0.262496,-0.373664,-12.590497,-77.224454,12.149656
04802,543798,9.566763,-0.565879,1.984520,0.003706,-0.046932,0.007717,-0.262429,0.259594,-0.374317,-12.630173,-77.250499,12.190170
04803,543898,9.585212,-0.623801,2.010041,0.004190,-0.050290,0.013625,-0.260442,0.261531,-0.373715,-12.686239,-77.277672,12.247761
04804,543998,9.605769,-0.608764,2.037944,0.004928,-0.058352,0.018006,-0.263980,0.259473,-0.371319,-12.757528,-77.308785,12.321380
04805,544098,9.605187,-0.529047,2.086149,0.004439,-0.066424,0.023469,-0.263973,0.263459,-0.371116,-12.847620,-77.343691,12.413972
04806,544198,9.588996,-0.434941,2.122001,0.006025,-0.073532,0.026079,-0.261981,0.262929,-0.371140,-12.947887,-77.382199,12.517911
04807,544298,9.602217,-0.380554,2.098650,0.003491,-0.077356,0.024160,-0.265967,0.262494,-0.371167,-13.047641,-77.423049,12.619824
04808,544398,9.584650,-0.351087,2.083714,0.004966,-0.075029,0.023288,-0.266980,0.263458,-0.370117,-13.143647,-77.462677,12.718749
04809,544498,9.594478,-0.363823,2.056801,0.004861,-0.067794,0.019234,-0.268951,0.265033,-0.371041,-13.225843,-77.498765,12.803453
04810,544598,9.596133,-0.429490,1.997082,0.009436,-0.045801,0.016307,-0.267532,0.264318,-0.367068,-13.285409,-77.522950,12.867652
04811,544698,9.548059,-0.532737,1.950939,0.005465,-0.038488,0.014528,-0.267496,0.263916,-0.369092,-13.338628,-77.543280,12.923012
04812,544798,9.526619,-0.577176,1.957468,0.006011,-0.045712,0.015767,-0.268541,0.262317,-0.366670,-13.399196,-77.567461,12.986210
04813,544898,9.566237,-0.571136,2.062553,0.006076,-0.060425,0.021713,-0.271054,0.265772,-0.364993,-13.483966,-77.599032,13.074220
04814,544998,9.600286,-0.535170,2.063751,0.007246,-0.067712,0.023748,-0.270076,0.265708,-0.363993,-13.578143,-77.634359,13.172535
04815,545098,9.618926,-0.433114,2.042062,0.006710,-0.066346,0.027141,-0.273152,0.263546,-0.359598,-13.680968,-77.668432,13.279375
04816,545198,9.671950,-0.441526,1.969268,0.009078,-0.054225,0.026231,-0.277141,0.261616,-0.359700,-13.773101,-77.695843,13.376649
04817,545298,9.624736,-0.492574,1.939367,0.017808,-0.038968,0.026043,-0.273705,0.258949,-0.357327,-13.850551,-77.714762,13.464002
04818,545398,9.582213,-0.515676,1.900118,0.024987,-0.025618,0.021631,-0.275780,0.259262,-0.352804,-13.904395,-77.726841,13.531398
04819,545498,9.549605,-0.563787,1.881962,0.021971,-0.029539,0.020898,-0.278292,0.257759,-0.351882,-13.960713,-77.741190,13.599549
04820,545598,9.534859,-0.609800,1.957590,0.017219,-0.040343,0.022467,-0.280314,0.256722,-0.350434,-14.030845,-77.761311,13.679042
04821,545698,9.555457,-0.640302,2.014052,0.022632,-0.050816,0.022961,-0.279888,0.252560,-0.347138,-14.106149,-77.787163,13.766992
04822,545798,9.569512,-0.636581,2.056632,0.028240,-0.052870,0.029072,-0.284343,0.252703,-0.348639,-14.195642,-77.813271,13.872735
04823,545898,9.600630,-0.605492,2.077934,0.035556,-0.050489,0.032876,-0.283897,0.249585,-0.346292,-14.289596,-77.837485,13.987320
04824,545998,9.637951,-0.500421,2.063365,0.039862,-0.045447,0.037689,-0.283978,0.251361,-0.341692,-14.390573,-77.858174,14.111605
04825,546098,9.639205,-0.375052,1.994754,0.043952,-0.041621,0.036722,-0.288410,0.248588,-0.344845,-14.484528,-77.876835,14.231097
04826,546198,9.629307,-0.315255,1.911639,0.043573,-0.039569,0.037132,-0.286989,0.248870,-0.340821,-14.578699,-77.894259,14.350581
04827,546298,9.589496,-0.321568,1.827265,0.042723,-0.036841,0.033898,-0.288504,0.247849,-0.339873,-14.663438,-77.910602,14.459913
04828,546398,9.579617,-0.389459,1.797454,0.036979,-0.034016,0.028388,-0.289514,0.245349,-0.339500,-14.735529,-77.926151,14.552937
04829,546498,9.595978,-0.492653,1.817837,0.032123,-0.036120,0.029616,-0.290488,0.247406,-0.340398,-14.815247,-77.942662,14.650905
04830,546598,9.660656,-0.564856,1.857362,0.027366,-0.042986,0.031570,-0.290484,0.249399,-0.340297,-14.907757,-77.962658,14.759157
04831,546698,9.690635,-0.587701,1.928472,0.022738,-0.048248,0.035262,-0.292498,0.247888,-0.339374,-15.016527,-77.984982,14.881311
04832,546798,9.671120,-0.574764,1.966704,0.021178,-0.050423,0.036535,-0.290502,0.249849,-0.339272,-15.131470,-78.008270,15.008851
04833,546898,9.668837,-0.507485,1.984843,0.019536,-0.049181,0.036052,-0.293470,0.251439,-0.340196,-15.245681,-78.030890,15.134671
04834,546998,9.655154,-0.423752,1.964337,0.014050,-0.045788,0.035053,-0.294517,0.248844,-0.337824,-15.358444,-78.051734,15.255788
04835,547098,9.604168,-0.383903,1.935241,0.013332,-0.033480,0.028899,-0.296494,0.246931,-0.338926,-15.447035,-78.066673,15.351773
04836,547198,9.560612,-0.399433,1.849822,0.010023,-0.016556,0.024603,-0.298521,0.248360,-0.336851,-15.514223,-78.072899,15.423941
04837,547298,9.509305,-0.476261,1.780251,0.007099,-0.005919,0.017912,-0.299492,0.246954,-0.338427,-15.557919,-78.074266,15.470384
04838,547398,9.484538,-0.575825,1.723376,-0.000555,-0.013233,0.014023,-0.302479,0.247998,-0.338377,-15.601191,-78.080264,15.511904
04839,547498,9.519679,-0.617838,1.795889,-0.012515,-0.032466,0.013045,-0.301984,0.246495,-0.338453,-15.662909,-78.097018,15.565267
04840,547598,9.582237,-0.608425,1.907000,-0.011566,-0.041375,0.019062,-0.305993,0.248479,-0.336854,-15.746591,-78.117738,15.641626
04841,547698,9.664130,-0.560262,1.991694,-0.010280,-0.039271,0.024817,-0.305926,0.249644,-0.340301,-15.843350,-78.136376,15.732095
04842,547798,9.672699,-0.560503,1.985878,-0.012564,-0.033047,0.024394,-0.307915,0.251668,-0.340200,-15.935933,-78.151619,15.816956
04843,547898,9.634701,-0.604067,1.926575,-0.012939,-0.033022,0.021240,-0.309439,0.250624,-0.338752,-16.020654,-78.167319,15.893557
04844,547998,9.548631,-0.637779,1.966378,-0.009319,-0.045262,0.015497,-0.309852,0.251845,-0.343200,-16.097699,-78.190645,15.964429
04845,548098,9.518907,-0.623762,2.034713,-0.014366,-0.060648,0.011572,-0.313343,0.254865,-0.342549,-16.179351,-78.223042,16.037047
04846,548198,9.578014,-0.549225,2.069797,-0.012554,-0.066835,0.013057,-0.311760,0.252093,-0.347699,-16.269087,-78.258582,16.118978
04847,548298,9.579574,-0.490369,1.999031,-0.009913,-0.048180,0.012155,-0.316274,0.255555,-0.345523,-16.340920,-78.283983,16.184163
04848,548398,9.555270,-0.436592,1.840718,-0.005285,-0.025806,0.012322,-0.316274,0.255555,-0.345523,-16.393350,-78.297044,16.232238
04849,548498,9.524845,-0.429838,1.734715,-0.002146,-0.020441,0.010854,-0.318721,0.254220,-0.348099,-16.435986,-78.307389,16.272144
04850,548598,9.564116,-0.467779,1.750347,0.006587,-0.039139,0.010595,-0.319789,0.250082,-0.344804,-16.487707,-78.328044,16.326432
04851,548698,9.575168,-0.487553,1.785101,0.014202,-0.068048,0.008348,-0.320807,0.248555,-0.343881,-16.552150,-78.364935,16.398160
04852,548798,9.586344,-0.568212,1.838310,0.013576,-0.098390,0.007108,-0.326850,0.248481,-0.340384,-16.638330,-78.418671,16.491697
04853,548898,9.637642,-0.604594,1.946931,0.011149,-0.116136,0.009933,-0.325808,0.248088,-0.342908,-16.748706,-78.481649,16.608493
04854,548998,9.720995,-0.592066,1.986159,0.003420,-0.118526,0.007230,-0.332325,0.245603,-0.341038,-16.859414,-78.546338,16.721084
04855,549098,9.788261,-0.583276,1.965712,-0.000571,-0.099253,0.008837,-0.331793,0.244197,-0.343113,-16.962056,-78.600151,16.823091
04856,549198,9.784001,-0.589053,1.880622,0.001988,-0.068223,0.005581,-0.337823,0.245642,-0.340040,-17.029363,-78.637478,16.890533
04857,549298,9.702682,-0.621787,1.800974,0.009171,-0.032012,0.004847,-0.336281,0.246237,-0.342513,-17.060592,-78.655080,16.925364
04858,549398,9.653683,-0.674995,1.693875,0.017619,-0.010495,0.002900,-0.336331,0.244123,-0.340116,-17.063703,-78.661223,16.936448
04859,549498,9.594454,-0.703903,1.665601,0.021810,-0.008862,0.001845,-0.342331,0.242177,-0.339220,-17.060175,-78.666650,16.943203
04860,549598,9.553085,-0.699850,1.700669,0.027467,-0.025867,0.001931,-0.341768,0.242338,-0.342718,-17.067934,-78.681378,16.964770
04861,549698,9.518541,-0.698629,1.791489,0.029786,-0.046653,0.006917,-0.344245,0.239436,-0.343871,-17.105602,-78.706648,17.018187
04862,549798,9.553471,-0.667523,1.873841,0.024583,-0.062323,0.011657,-0.345782,0.241332,-0.341271,-17.172796,-78.739686,17.098665
04863,549898,9.623706,-0.588357,1.939530,0.020207,-0.064270,0.015598,-0.346231,0.242955,-0.343694,-17.255464,-78.773100,17.192355
04864,549998,9.629716,-0.498052,1.879171,0.017123,-0.055277,0.016864,-0.346238,0.244426,-0.343118,-17.336158,-78.801352,17.282226
04865,550098,9.672305,-0.453507,1.819726,0.017354,-0.041803,0.016564,-0.348688,0.246555,-0.345016,-17.404618,-78.822266,17.359754
04866,550198,9.683767,-0.429688,1.749383,0.018622,-0.029292,0.015387,-0.347202,0.247005,-0.344491,-17.458449,-78.836527,17.423106
04867,550298,9.674984,-0.427733,1.765255,0.016224,-0.027873,0.017592,-0.349647,0.246667,-0.347016,-17.518670,-78.849622,17.491571
04868,550398,9.715089,-0.498279,1.750472,0.020783,-0.025301,0.016050,-0.350637,0.249672,-0.346864,-17.569885,-78.861566,17.553516
04869,550498,9.645236,-0.588025,1.782964,0.025102,-0.037537,0.016296,-0.352141,0.249672,-0.346364,-17.630231,-78.880139,17.627283
04870,550598,9.582832,-0.623896,1.811344,0.028934,-0.056737,0.017083,-0.354597,0.248313,-0.348441,-17.707856,-78.909039,17.720891
04871,550698,9.614844,-0.594153,1.883676,0.025099,-0.068575,0.018724,-0.355641,0.247710,-0.345967,-17.803317,-78.944083,17.830425
04872,550798,9.655837,-0.518289,1.886112,0.017377,-0.072786,0.017539,-0.358109,0.249790,-0.346866,-17.904348,-78.981595,17.941116
04873,550898,9.645773,-0.429793,1.847187,0.004080,-0.066117,0.017872,-0.360603,0.248335,-0.346943,-18.008569,-79.015375,18.047286
04874,550998,9.641110,-0.362651,1.794930,-0.004365,-0.052971,0.016226,-0.361120,0.247797,-0.345969,-18.101546,-79.042251,18.137068
04875,551098,9.617493,-0.362866,1.754462,-0.009519,-0.037827,0.013862,-0.365131,0.243826,-0.345174,-18.177238,-79.061279,18.206233
04876,551198,9.637858,-0.450218,1.705511,-0.006857,-0.012877,0.008199,-0.366147,0.243295,-0.344200,-18.212520,-79.067728,18.235792
04877,551298,9.620662,-0.623223,1.631045,0.000058,0.004192,0.003777,-0.368659,0.241792,-0.343277,-18.215579,-79.065679,18.236563
04878,551398,9.583206,-0.795524,1.643975,0.008912,-0.003562,0.002492,-0.370622,0.242394,-0.344752,-18.217151,-79.068080,18.240979
04879,551498,9.542385,-0.895937,1.748555,0.014110,-0.023965,0.006255,-0.372657,0.239340,-0.342906,-18.245323,-79.080908,18.275514
04880,551598,9.621631,-0.831324,1.848984,0.014026,-0.040987,0.012617,-0.373637,0.237910,-0.343982,-18.307490,-79.101846,18.344616
04881,551698,9.725491,-0.690562,1.925372,0.009852,-0.042884,0.018387,-0.375662,0.235378,-0.342610,-18.390419,-79.122757,18.432421
04882,551798,9.739114,-0.540787,1.908330,0.002237,-0.038359,0.024673,-0.377142,0.233457,-0.343712,-18.491556,-79.140042,18.534323
04883,551898,9.699078,-0.397050,1.832095,-0.008338,-0.031310,0.026687,-0.380652,0.230474,-0.342865,-18.598056,-79.153095,18.635515
04884,551998,9.649638,-0.313748,1.774583,-0.017271,-0.020743,0.027844,-0.380663,0.229454,-0.342417,-18.703048,-79.160165,18.729963
04885,552098,9.615850,-0.297512,1.737046,-0.026034,-0.020402,0.023351,-0.383149,0.232483,-0.342265,-18.800113,-79.167847,18.811232
04886,552198,9.591392,-0.349066,1.748591,-0.028639,-0.025197,0.018341,-0.381714,0.230322,-0.339367,-18.889230,-79.179033,18.882890
04887,552298,9.569648,-0.467030,1.745614,-0.026019,-0.024338,0.010660,-0.385149,0.228030,-0.342494,-18.954367,-79.191162,18.931663
04888,552398,9.588512,-0.616463,1.761839,-0.020649,-0.017384,0.002472,-0.387626,0.230585,-0.342867,-18.986494,-79.201040,18.949961
04889,552498,9.608094,-0.718665,1.772900,-0.013702,-0.013214,0.001563,-0.386132,0.225105,-0.343647,-19.008027,-79.208826,18.961524
04890,552598,9.662747,-0.731997,1.783643,-0.013799,-0.015772,0.004318,-0.389637,0.225610,-0.342623,-19.039989,-79.217481,18.983645
04891,552698,9.724263,-0.658841,1.818218,-0.013475,-0.020997,0.008035,-0.391620,0.225666,-0.343123,-19.087531,-79.228265,19.021815
04892,552798,9.752000,-0.580769,1.848324,-0.015397,-0.023979,0.014430,-0.395107,0.225721,-0.343124,-19.157417,-79.239456,19.081609
04893,552898,9.738739,-0.518248,1.842931,-0.016365,-0.025748,0.017528,-0.393086,0.225762,-0.344623,-19.238575,-79.251004,19.152313
04894,552998,9.702397,-0.485269,1.842240,-0.016358,-0.032170,0.021424,-0.398555,0.226870,-0.345074,-19.337412,-79.265266,19.241018
04895,553098,9.670341,-0.468589,1.806015,-0.018773,-0.035695,0.018334,-0.396583,0.225295,-0.344150,-19.432605,-79.281993,19.324605
04896,553198,9.612927,-0.497621,1.792529,-0.015324,-0.030651,0.011139,-0.397065,0.223856,-0.345226,-19.500423,-79.297347,19.382341
04897,553298,9.523243,-0.610866,1.787481,-0.008916,-0.019256,0.005382,-0.401539,0.223952,-0.345727,-19.536707,-79.307638,19.411723
04898,553398,9.539272,-0.734022,1.786628,0.000823,0.002125,0.004208,-0.401538,0.224948,-0.345676,-19.542394,-79.306606,19.415644
04899,553498,9.624011,-0.807314,1.751791,0.013139,0.033180,0.003119,-0.402010,0.223534,-0.347252,-19.506457,-79.289011,19.384383
04900,553598,9.719448,-0.760545,1.685251,0.021697,0.057819,0.005640,-0.403530,0.224980,-0.345676,-19.448113,-79.257620,19.335301
04901,553698,9.752481,-0.696845,1.602027,0.023311,0.064896,0.010448,-0.402474,0.221645,-0.349353,-19.395746,-79.221482,19.293232
04902,553798,9.733348,-0.656603,1.637245,0.020914,0.046374,0.017203,-0.405456,0.220720,-0.349904,-19.382623,-79.194065,19.289709
04903,553898,9.691568,-0.603026,1.788387,0.011427,0.018058,0.024851,-0.409947,0.221265,-0.349380,-19.424768,-79.180495,19.336919
04904,553998,9.739628,-0.620885,1.952799,0.002575,-0.001474,0.030784,-0.407959,0.218742,-0.349507,-19.508141,-79.176331,19.420946
04905,554098,9.781112,-0.612696,2.033600,0.005370,0.017036,0.034304,-0.412429,0.215872,-0.350660,-19.581192,-79.161474,19.496104
04906,554198,9.731497,-0.638802,1.915411,0.018170,0.055239,0.032021,-0.412415,0.218388,-0.351033,-19.601972,-79.126421,19.525515
04907,554298,9.556058,-0.683975,1.563799,0.040214,0.067355,0.026641,-0.412905,0.217921,-0.351558,-19.582840,-79.085863,19.527142
04908,554398,9.476558,-0.694352,1.470122,0.051231,0.044739,0.022764,-0.414381,0.217993,-0.352558,-19.569109,-79.058260,19.540691
04909,554498,9.499533,-0.614742,1.522904,0.051020,0.004719,0.015023,-0.416332,0.220114,-0.354457,-19.573605,-79.053750,19.572678
04910,554598,9.569851,-0.522584,1.591106,0.048140,-0.022517,0.008014,-0.415896,0.216474,-0.351635,-19.587240,-79.065289,19.612289
04911,554698,9.662720,-0.491234,1.689015,0.049997,-0.030336,0.003743,-0.417318,0.215694,-0.355685,-19.595708,-79.081870,19.647721
04912,554798,9.719453,-0.510977,1.777063,0.051239,-0.018789,0.005541,-0.413844,0.218580,-0.354532,-19.597033,-79.091871,19.676603
04913,554898,9.740368,-0.549540,1.798929,0.052818,0.001205,0.009937,-0.418826,0.218659,-0.354534,-19.589838,-79.090236,19.697731
04914,554998,9.678612,-0.617645,1.830502,0.051815,0.018039,0.016775,-0.416783,0.215782,-0.357684,-19.585576,-79.078200,19.721264
04915,555098,9.626904,-0.682788,1.863177,0.052287,0.027278,0.019001,-0.419328,0.216176,-0.354661,-19.578055,-79.060748,19.741755
04916,555198,9.564756,-0.690602,1.844394,0.046706,0.033008,0.019192,-0.420837,0.218642,-0.353535,-19.568559,-79.040166,19.756980
04917,555298,9.517895,-0.661364,1.814977,0.041622,0.032747,0.018767,-0.422271,0.215845,-0.357186,-19.561040,-79.019805,19.771254
04918,555398,9.501060,-0.601624,1.748490,0.039249,0.037403,0.019365,-0.422316,0.211763,-0.355390,-19.551930,-78.996816,19.782523
04919,555498,9.467319,-0.533385,1.683858,0.038476,0.046747,0.014404,-0.422278,0.211859,-0.357389,-19.520323,-78.969734,19.770423
04920,555598,9.518495,-0.478038,1.634758,0.034886,0.049200,0.015439,-0.425758,0.210942,-0.357941,-19.491330,-78.941129,19.758888
04921,555698,9.526128,-0.495392,1.594336,0.034740,0.040890,0.015068,-0.427761,0.209953,-0.357493,-19.469603,-78.917085,19.754670
04922,555798,9.555812,-0.549265,1.594757,0.040075,0.018014,0.018957,-0.429270,0.206964,-0.357146,-19.477852,-78.904657,19.784110
04923,555898,9.601639,-0.578377,1.669199,0.046036,-0.016284,0.022846,-0.432260,0.206513,-0.357172,-19.526821,-78.910007,19.858523
04924,555998,9.658498,-0.608732,1.759892,0.055781,-0.041304,0.027248,-0.431254,0.206521,-0.357671,-19.606965,-78.928005,19.970392
04925,556098,9.655927,-0.625582,1.900880,0.071411,-0.057120,0.033113,-0.432755,0.202559,-0.357875,-19.710306,-78.953369,20.115015
04926,556198,9.610810,-0.688416,1.954726,0.087008,-0.053162,0.032721,-0.431762,0.201049,-0.357951,-19.800236,-78.976627,20.255070
04927,556298,9.528839,-0.682704,1.893154,0.100086,-0.044139,0.033635,-0.437737,0.202638,-0.357877,-19.876628,-78.994803,20.388959
04928,556398,9.453631,-0.671994,1.810376,0.108483,-0.049105,0.029355,-0.438282,0.202027,-0.355403,-19.941690,-79.016456,20.516198
04929,556498,9.479583,-0.620729,1.813924,0.120317,-0.060454,0.026691,-0.438739,0.199166,-0.358055,-20.004444,-79.044715,20.647986
04930,556598,9.558636,-0.560689,1.780247,0.128756,-0.063808,0.024246,-0.440709,0.201239,-0.358954,-20.059462,-79.075233,20.776807
04931,556698,9.590629,-0.554918,1.758501,0.139909,-0.066086,0.025786,-0.439720,0.202694,-0.358377,-20.115230,-79.106650,20.912889
04932,556798,9.592329,-0.541323,1.708375,0.152302,-0.075360,0.031753,-0.441171,0.200845,-0.360978,-20.190736,-79.141848,21.076286
04933,556898,9.659893,-0.522706,1.746958,0.161468,-0.081935,0.039175,-0.440677,0.203802,-0.360326,-20.289456,-79.179064,21.268648
04934,556998,9.701814,-0.554502,1.793653,0.168799,-0.080412,0.044894,-0.441681,0.204791,-0.359776,-20.399484,-79.214256,21.476778
04935,557098,9.774137,-0.620654,1.840071,0.174676,-0.076977,0.051760,-0.443184,0.205288,-0.359251,-20.522931,-79.246148,21.701975
04936,557198,9.781996,-0.673998,1.849956,0.182809,-0.069367,0.053392,-0.441178,0.202316,-0.360402,-20.639228,-79.273540,21.924617
04937,557298,9.741681,-0.688398,1.897842,0.193714,-0.064452,0.056872,-0.439661,0.204831,-0.361274,-20.754704,-79.297508,22.152766
04938,557398,9.671031,-0.687824,1.909895,0.206568,-0.057679,0.055093,-0.440646,0.205369,-0.361749,-20.851181,-79.318129,22.369062
04939,557498,9.601275,-0.647796,1.890631,0.219209,-0.046170,0.054509,-0.442647,0.206373,-0.361199,-20.926802,-79.332647,22.571497
04940,557598,9.545981,-0.623122,1.813409,0.231425,-0.036772,0.052031,-0.444076,0.206565,-0.364698,-20.978470,-79.342600,22.756675
04941,557698,9.476672,-0.587031,1.742174,0.240299,-0.037352,0.052434,-0.446124,0.206453,-0.361700,-21.027050,-79.352751,22.943881
04942,557798,9.404045,-0.549900,1.695840,0.246989,-0.037799,0.051775,-0.443655,0.204870,-0.360776,-21.070632,-79.363248,23.129899
04943,557898,9.460727,-0.552254,1.722904,0.253665,-0.037703,0.053632,-0.442616,0.202982,-0.363376,-21.115792,-79.373284,23.321411
04944,557998,9.506207,-0.578579,1.712874,0.256155,-0.034328,0.052379,-0.443066,0.203609,-0.365850,-21.152439,-79.381750,23.505708
04945,558098,9.582641,-0.591339,1.691178,0.259004,-0.049743,0.054842,-0.442558,0.204123,-0.366324,-21.211767,-79.397914,23.714735
04946,558198,9.663815,-0.588730,1.770554,0.259837,-0.070626,0.058458,-0.444073,0.202604,-0.365401,-21.304685,-79.424426,23.958408
04947,558298,9.716951,-0.545717,1.790113,0.258434,-0.075713,0.063268,-0.444546,0.201688,-0.366952,-21.418748,-79.452566,24.222756
04948,558398,9.717728,-0.526121,1.742124,0.253393,-0.076649,0.065539,-0.444078,0.205071,-0.364774,-21.544284,-79.480628,24.495815
04949,558498,9.749097,-0.538493,1.689675,0.248046,-0.074644,0.066057,-0.444543,0.203182,-0.366875,-21.673138,-79.507402,24.769110
04950,558598,9.719987,-0.546983,1.629496,0.244619,-0.067446,0.067976,-0.442598,0.202532,-0.364401,-21.802185,-79.529827,25.040585
04951,558698,9.697786,-0.572034,1.566475,0.245268,-0.066571,0.068971,-0.443595,0.202049,-0.364427,-21.933564,-79.551464,25.314789
04952,558798,9.648751,-0.617239,1.544473,0.244575,-0.070028,0.071621,-0.446038,0.202708,-0.366901,-22.077880,-79.574249,25.601722
04953,558898,9.619871,-0.630786,1.553966,0.242955,-0.080556,0.073169,-0.444074,0.202106,-0.365427,-22.241011,-79.602148,25.906817
04954,558998,9.569357,-0.625837,1.609383,0.246131,-0.089104,0.075842,-0.443108,0.201021,-0.363978,-22.421549,-79.633830,26.231429
04955,559098,9.546541,-0.631396,1.605630,0.245817,-0.094267,0.080200,-0.443068,0.197155,-0.366680,-22.622699,-79.667094,26.576778
04956,559198,9.496423,-0.629651,1.633442,0.242580,-0.097891,0.081457,-0.443558,0.202146,-0.366426,-22.835563,-79.701770,26.932112
04957,559298,9.561428,-0.615332,1.655539,0.233626,-0.102352,0.085364,-0.443569,0.200627,-0.366003,-23.072388,-79.737677,27.306545
04958,559398,9.687373,-0.572487,1.661145,0.238610,-0.086811,0.090992,-0.443620,0.198514,-0.363605,-23.305300,-79.763855,27.679872
04959,559498,9.657241,-0.568750,1.565318,0.243958,-0.072872,0.091863,-0.443585,0.197115,-0.365681,-23.521475,-79.782246,28.039279
04960,559598,9.665528,-0.626700,1.432892,0.238868,-0.070412,0.088103,-0.443111,0.199028,-0.364079,-23.727486,-79.799976,28.385372
04961,559698,9.684010,-0.761053,1.483664,0.235051,-0.066742,0.087691,-0.443605,0.196569,-0.364707,-23.930685,-79.815659,28.726365
04962,559798,9.645378,-0.854284,1.588616,0.227974,-0.072626,0.082468,-0.441114,0.196530,-0.364706,-24.131273,-79.835427,29.060563
04963,559898,9.614305,-0.950460,1.622785,0.204884,-0.085558,0.081459,-0.443151,0.197437,-0.362156,-24.360331,-79.861965,29.410215
04964,559998,9.649860,-0.917023,1.637357,0.193563,-0.081373,0.087229,-0.443679,0.196376,-0.360708,-24.608636,-79.884692,29.772801
04965,560098,9.647884,-0.818183,1.584347,0.189914,-0.066060,0.094396,-0.443166,0.194424,-0.361809,-24.860561,-79.897453,30.136918
04966,560198,9.637485,-0.675678,1.455100,0.183178,-0.054448,0.098798,-0.440134,0.197960,-0.363629,-25.114043,-79.902838,30.498684
04967,560298,9.623344,-0.555472,1.499259,0.176051,-0.054354,0.099639,-0.443669,0.196898,-0.361182,-25.374237,-79.907685,30.863117
04968,560398,9.623013,-0.452184,1.525825,0.163911,-0.063415,0.097124,-0.440136,0.196465,-0.363706,-25.647023,-79.917543,31.233270
04969,560498,9.613086,-0.379111,1.489389,0.143886,-0.081154,0.089461,-0.441639,0.196963,-0.363181,-25.934734,-79.938147,31.606917
04970,560598,9.620858,-0.374046,1.452504,0.122560,-0.097081,0.081561,-0.439172,0.194385,-0.362308,-26.235894,-79.968605,31.981790
04971,560698,9.653532,-0.408992,1.474041,0.110325,-0.098876,0.068924,-0.441212,0.193299,-0.359860,-26.511983,-80.002872,32.324052
04972,560798,9.671549,-0.446223,1.483117,0.103270,-0.085157,0.057384,-0.443164,0.195420,-0.361758,-26.740462,-80.032815,32.613838
04973,560898,9.618820,-0.523333,1.405755,0.096490,-0.073467,0.049288,-0.443185,0.194376,-0.360809,-26.933444,-80.058694,32.863619
04974,560998,9.581561,-0.611003,1.409417,0.086288,-0.066967,0.043235,-0.441197,0.196811,-0.360182,-27.106053,-80.082693,33.086764
04975,561098,9.558483,-0.669672,1.468911,0.076053,-0.070873,0.039565,-0.445194,0.195355,-0.359759,-27.280660,-80.109528,33.305968
04976,561198,9.563097,-0.742515,1.537815,0.066422,-0.075273,0.038295,-0.443738,0.199695,-0.357032,-27.464835,-80.138818,33.529266
04977,561298,9.607647,-0.756582,1.612978,0.062804,-0.072589,0.037404,-0.444712,0.196794,-0.358684,-27.645562,-80.166857,33.746943
04978,561398,9.660546,-0.692261,1.626210,0.054479,-0.063903,0.037203,-0.442706,0.198779,-0.359081,-27.818160,-80.190429,33.951517
04979,561498,9.707423,-0.641212,1.603209,0.048733,-0.052735,0.034899,-0.443693,0.198819,-0.359581,-27.970781,-80.208863,34.132469
04980,561598,9.742621,-0.604614,1.559880,0.043496,-0.045954,0.034788,-0.445211,0.201262,-0.357955,-28.116059,-80.223818,34.302922
04981,561698,9.733169,-0.580505,1.524447,0.040109,-0.046637,0.030731,-0.442166,0.201857,-0.360928,-28.252926,-80.240146,34.462866
04982,561798,9.703322,-0.571351,1.550272,0.039154,-0.050643,0.026506,-0.444681,0.198361,-0.360107,-28.384779,-80.259579,34.617165
04983,561898,9.676734,-0.622171,1.569798,0.029950,-0.049295,0.016184,-0.444169,0.200868,-0.360479,-28.489980,-80.281095,34.739067
04984,561998,9.625779,-0.636844,1.643148,0.028247,-0.047374,0.010478,-0.444734,0.199711,-0.357032,-28.576764,-80.303170,34.841295
04985,562098,9.652487,-0.639208,1.620918,0.023813,-0.039124,0.001086,-0.445202,0.201286,-0.358455,-28.625519,-80.323649,34.902366
04986,562198,9.632690,-0.614630,1.549623,0.018062,-0.024473,-0.006649,-0.443202,0.200282,-0.359005,-28.631288,-80.338879,34.916491
04987,562298,9.559920,-0.601283,1.536196,0.004411,-0.028210,-0.011934,-0.448651,0.201936,-0.360430,-28.635304,-80.357439,34.920909
04988,562398,9.514918,-0.583963,1.574036,-0.007087,-0.040733,-0.017371,-0.444696,0.200306,-0.359006,-28.650081,-80.383788,34.929565
04989,562498,9.539166,-0.548168,1.572655,-0.014532,-0.048689,-0.022113,-0.447673,0.201872,-0.359430,-28.668006,-80.415439,34.937096
04990,562598,9.564419,-0.571005,1.549302,-0.021770,-0.053579,-0.023875,-0.446645,0.204419,-0.360802,-28.692884,-80.450032,34.947476
04991,562698,9.587852,-0.562270,1.479445,-0.023760,-0.055585,-0.028746,-0.446681,0.204821,-0.358778,-28.707704,-80.486973,34.946507
04992,562798,9.605531,-0.627202,1.457244,-0.024289,-0.057862,-0.030248,-0.448206,0.202780,-0.357380,-28.722108,-80.525472,34.944810
04993,562898,9.611069,-0.739186,1.393082,-0.020192,-0.062897,-0.030857,-0.447160,0.204877,-0.359777,-28.740715,-80.566669,34.949754
04994,562998,9.531916,-0.835003,1.353426,-0.015524,-0.072535,-0.030934,-0.451174,0.204370,-0.358305,-28.772578,-80.612727,34.970843
04995,563098,9.414362,-0.929143,1.377063,-0.008833,-0.089569,-0.032281,-0.451126,0.205487,-0.360753,-28.825361,-80.667706,35.017013
04996,563198,9.317208,-1.027714,1.407167,0.004817,-0.105277,-0.031922,-0.451142,0.206934,-0.359677,-28.898628,-80.730457,35.091852
04997,563298,9.273655,-1.088279,1.488530,0.019959,-0.116768,-0.027401,-0.452100,0.207544,-0.361651,-28.997881,-80.797695,35.201791
04998,563398,9.271531,-1.156947,1.527598,0.033130,-0.126366,-0.024158,-0.449628,0.207456,-0.360651,-29.117851,-80.868798,35.340334
04999,563498,9.241622,-1.209444,1.554784,0.045384,-0.136820,-0.017761,-0.448651,0.206894,-0.359676,-29.271236,-80.943285,35.519795
05000,563598,9.302688,-1.277268,1.542944,0.064295,-0.140953,-0.008525,-0.453168,0.208862,-0.357577,-29.453031,-81.017152,35.738950
05001,563698,9.381789,-1.344498,1.504293,0.084034,-0.143001,0.002622,-0.451673,0.208838,-0.357576,-29.665911,-81.088766,36.000971
05002,563798,9.481094,-1.412378,1.429024,0.103015,-0.139904,0.014017,-0.454635,0.208460,-0.359102,-29.902431,-81.155431,36.297867
05003,563898,9.563581,-1.480474,1.361573,0.125109,-0.143884,0.027508,-0.454643,0.208934,-0.358577,-30.181006,-81.219990,36.650065
05004,563998,9.668183,-1.506798,1.350123,0.151244,-0.158453,0.039658,-0.454134,0.209946,-0.359025,-30.516036,-81.287940,37.074456
05005,564098,9.796931,-1.537275,1.438004,0.182067,-0.174945,0.048464,-0.452166,0.211835,-0.357424,-30.899748,-81.361027,37.565867
05006,564198,9.907388,-1.522074,1.634102,0.217606,-0.189390,0.056908,-0.452179,0.209818,-0.357026,-31.326505,-81.438167,38.121301
05007,564298,9.954420,-1.458552,1.845997,0.249723,-0.193970,0.058589,-0.454150,0.211393,-0.357950,-31.758442,-81.516406,38.700466
05008,564398,9.988075,-1.374795,2.028586,0.270587,-0.185580,0.059550,-0.455185,0.210316,-0.356002,-32.173527,-81.589629,39.274573
05009,564498,10.020234,-1.223634,2.120364,0.279671,-0.162999,0.058670,-0.452715,0.209730,-0.355027,-32.541530,-81.651605,39.806262
05010,564598,10.077702,-1.016023,2.099594,0.283718,-0.128881,0.056879,-0.453719,0.210220,-0.354502,-32.835030,-81.697226,40.264939
05011,564698,10.064136,-0.812345,2.049546,0.279221,-0.101344,0.053836,-0.451760,0.207127,-0.353154,-33.065715,-81.730244,40.657508
05012,564798,10.013481,-0.692000,2.051911,0.274456,-0.085700,0.047066,-0.453205,0.208766,-0.355577,-33.245177,-81.757670,40.995548
05013,564898,9.871011,-0.657435,1.973454,0.263836,-0.099750,0.040662,-0.452239,0.207183,-0.354154,-33.442019,-81.793673,41.344993
05014,564998,9.602532,-0.698189,1.906457,0.269211,-0.144197,0.038387,-0.452763,0.208613,-0.352578,-33.729286,-81.851395,41.788881
05015,565098,9.358091,-0.758138,1.851292,0.282867,-0.205093,0.036696,-0.453762,0.207134,-0.352655,-34.146285,-81.938210,42.371649
05016,565198,9.214455,-0.806257,1.864976,0.297415,-0.256760,0.031246,-0.452738,0.207191,-0.354154,-34.667847,-82.050533,43.068298
05017,565298,9.150273,-0.864313,1.882896,0.317808,-0.279648,0.030963,-0.453301,0.207030,-0.350656,-35.249123,-82.172750,43.836845
05018,565398,9.049723,-0.969985,1.832880,0.329029,-0.288766,0.029718,-0.453342,0.204443,-0.348783,-35.863590,-82.298518,44.645163
05019,565498,8.940008,-1.110973,1.714234,0.337561,-0.308104,0.028535,-0.456352,0.202947,-0.347861,-36.542214,-82.432379,45.522906
05020,565598,8.910716,-1.222909,1.721548,0.338048,-0.326796,0.033271,-0.452886,0.201847,-0.346911,-37.314762,-82.571676,46.495393
05021,565698,9.002539,-1.273668,1.745601,0.323744,-0.351346,0.039950,-0.455445,0.200223,-0.343489,-38.220294,-82.717867,47.593396
05022,565798,8.882014,-1.297953,1.773465,0.303514,-0.371378,0.051205,-0.452422,0.203238,-0.344836,-39.276116,-82.866539,48.830848
05023,565898,9.063976,-1.270141,1.733191,0.317018,-0.387488,0.066568,-0.452494,0.199581,-0.341515,-40.475882,-83.013559,50.220751
05024,565998,9.217707,-1.179514,1.574802,0.326124,-0.391603,0.088274,-0.453049,0.198947,-0.338541,-41.815470,-83.150344,51.756340
05025,566098,9.211657,-1.043478,1.460727,0.331910,-0.424004,0.094047,-0.452034,0.198979,-0.339541,-43.337994,-83.293898,53.479050
05026,566198,9.343992,-0.959208,1.593227,0.328637,-0.472528,0.093588,-0.457582,0.196904,-0.336145,-45.101590,-83.451673,55.442047
05027,566298,9.574086,-0.917458,1.802675,0.340207,-0.507274,0.085160,-0.454618,0.193321,-0.335323,-47.049041,-83.619319,57.596125
05028,566398,9.709442,-0.900051,1.978003,0.354018,-0.527564,0.068010,-0.455697,0.193619,-0.330799,-49.117931,-83.793440,59.879647
05029,566498,9.877804,-0.990690,2.070966,0.363382,-0.513671,0.048805,-0.457739,0.192035,-0.328377,-51.179589,-83.961765,62.160577
05030,566598,10.039803,-1.078493,2.168456,0.359364,-0.462864,0.034216,-0.457785,0.191914,-0.325878,-53.089416,-84.110273,64.285897
05031,566698,10.110530,-1.143060,2.199308,0.357105,-0.382025,0.029123,-0.457833,0.185839,-0.324184,-54.709255,-84.226957,66.117943
05032,566798,10.038508,-1.128493,2.218041,0.352192,-0.300430,0.034750,-0.458355,0.188266,-0.322557,-56.027848,-84.309592,67.644107
05033,566898,9.930494,-1.086283,2.186036,0.342757,-0.247783,0.036697,-0.459348,0.184819,-0.323236,-57.140669,-84.371420,68.957899
05034,566998,9.793739,-1.040178,2.124313,0.321919,-0.215916,0.036792,-0.458413,0.186627,-0.319635,-58.132831,-84.421027,70.138360
05035,567098,9.632729,-0.944359,2.059854,0.293140,-0.193989,0.033167,-0.455968,0.182007,-0.317863,-59.038131,-84.463935,71.214921
05036,567198,9.475313,-0.803407,2.037055,0.258051,-0.172766,0.022429,-0.458477,0.181998,-0.316865,-59.837195,-84.504395,72.164510
05037,567298,9.373010,-0.677688,2.080860,0.228859,-0.142839,0.008196,-0.460990,0.179997,-0.315968,-60.467352,-84.542247,72.927590
05038,567398,9.367889,-0.604152,2.064367,0.207437,-0.116209,-0.004634,-0.456542,0.180826,-0.313916,-60.941094,-84.578335,73.521209
05039,567498,9.420564,-0.580833,1.985385,0.189853,-0.094839,-0.012886,-0.459005,0.180938,-0.315416,-61.293868,-84.612237,73.983203
05040,567598,9.473646,-0.600600,1.941795,0.176287,-0.078652,-0.021208,-0.456550,0.176342,-0.314145,-61.548172,-84.645655,74.338494
05041,567698,9.490124,-0.651437,1.895631,0.163350,-0.067383,-0.033552,-0.460050,0.179338,-0.312994,-61.716576,-84.682100,74.600081
05042,567798,9.494002,-0.765343,1.899833,0.157234,-0.047483,-0.048973,-0.457514,0.178921,-0.315517,-61.737437,-84.720880,74.709987
05043,567898,9.461702,-0.824444,1.968795,0.169011,-0.022852,-0.061249,-0.462043,0.179370,-0.312994,-61.580509,-84.759156,74.648153
05044,567998,9.441408,-0.890149,2.050582,0.173598,0.005856,-0.071372,-0.459604,0.176221,-0.310647,-61.230146,-84.794618,74.394752
05045,568098,9.395801,-0.924895,2.083080,0.171843,0.042625,-0.086329,-0.459594,0.176743,-0.311121,-60.627122,-84.827132,73.886685
05046,568198,9.420250,-0.966252,2.115170,0.160241,0.064428,-0.095644,-0.457585,0.175763,-0.312171,-59.873751,-84.857523,73.221042
05047,568298,9.531639,-0.980210,2.204843,0.140299,0.072340,-0.100797,-0.458086,0.173778,-0.312273,-59.062936,-84.887324,72.486315
05048,568398,9.655177,-0.925846,2.319749,0.121647,0.090170,-0.104002,-0.457536,0.171922,-0.315373,-58.145299,-84.912365,71.633680
05049,568498,9.789723,-0.875809,2.380625,0.104602,0.112432,-0.107159,-0.459538,0.171431,-0.314899,-57.096762,-84.930786,70.639889
05050,568598,9.811958,-0.816819,2.328769,0.090147,0.124095,-0.110770,-0.459050,0.171399,-0.314399,-55.973487,-84.945566,69.562814
05051,568698,9.770164,-0.789091,2.321157,0.074044,0.125563,-0.119512,-0.459507,0.168040,-0.317076,-54.812745,-84.962081,68.438928
05052,568798,9.725088,-0.781844,2.346665,0.057427,0.121613,-0.130237,-0.458539,0.167952,-0.315577,-53.633611,-84.982871,67.287089
05053,568898,9.722089,-0.827560,2.423880,0.052460,0.117575,-0.148106,-0.457509,0.166538,-0.317652,-52.397506,-85.011085,66.075283
05054,568998,9.769116,-0.875743,2.511228,0.057217,0.119323,-0.165878,-0.460035,0.166979,-0.315628,-51.062506,-85.044279,64.767039
05055,569098,9.920336,-0.812756,2.542995,0.056288,0.120282,-0.186758,-0.459461,0.162704,-0.320355,-49.615985,-85.083556,63.346434
05056,569198,10.358804,-0.785490,2.646176,0.049384,0.149924,-0.195538,-0.456434,0.163749,-0.322302,-47.963917,-85.112092,61.715668
05057,569298,10.519829,-0.903290,2.398112,0.027723,0.176676,-0.194954,-0.459435,0.161780,-0.321905,-46.179015,-85.125733,59.939211
05058,569398,10.607817,-1.258570,1.965971,0.013880,0.170858,-0.183983,-0.459931,0.157826,-0.322608,-44.473874,-85.132622,58.234885
05059,569498,10.726648,-1.633448,1.608530,0.049658,0.150401,-0.159390,-0.458934,0.158308,-0.322582,-42.959945,-85.134159,56.743045
05060,569598,11.064798,-1.978923,1.297827,0.121934,0.137943,-0.124724,-0.455432,0.156308,-0.323683,-41.634734,-85.124458,55.482145
05061,569698,11.521516,-2.235377,0.904796,0.194554,0.108138,-0.080527,-0.455387,0.155432,-0.326233,-40.628637,-85.108772,54.583228
05062,569798,12.063018,-2.384403,0.507468,0.234783,0.033700,-0.048356,-0.456376,0.149019,-0.327563,-40.090390,-85.112611,54.176956
05063,569898,12.481979,-2.298926,0.338388,0.242784,-0.045126,-0.036131,-0.455435,0.149357,-0.324538,-39.949687,-85.146322,54.174238
05064,569998,12.516782,-1.969162,0.384469,0.242356,-0.091480,-0.041693,-0.456435,0.147380,-0.324640,-39.982110,-85.202432,54.344983
05065,570098,12.284805,-1.485960,0.523681,0.239554,-0.104324,-0.063414,-0.453456,0.146810,-0.324165,-39.960810,-85.272174,54.460168
05066,570198,12.061794,-0.993114,0.812669,0.224452,-0.098593,-0.091671,-0.453932,0.143901,-0.325817,-39.771251,-85.349789,54.397829
05067,570298,11.894265,-0.444351,1.117983,0.191145,-0.060802,-0.120441,-0.455912,0.140493,-0.326995,-39.265611,-85.421158,53.999252
05068,570398,11.533941,0.003915,1.261874,0.131300,-0.011263,-0.149323,-0.453974,0.135857,-0.324724,-38.391945,-85.480400,53.197148
05069,570498,11.061198,0.348490,1.258211,0.055966,0.031446,-0.169835,-0.454960,0.136395,-0.325198,-37.229805,-85.526376,52.062468
05070,570598,10.464694,0.533890,1.033998,-0.034546,0.057959,-0.186335,-0.453483,0.131863,-0.324927,-35.882487,-85.563825,50.690122
05071,570698,9.792242,0.596603,0.553607,-0.127409,0.065339,-0.204306,-0.453971,0.132393,-0.325401,-34.424703,-85.601130,49.153701
05072,570798,9.042820,0.559535,0.034599,-0.213274,0.058103,-0.222014,-0.456466,0.129942,-0.325529,-32.909484,-85.644438,47.510423
05073,570898,8.385896,0.513138,-0.473767,-0.277754,0.028163,-0.229360,-0.455969,0.128937,-0.325580,-31.471686,-85.701272,45.907839
05074,570998,7.972955,0.402841,-0.836340,-0.300806,-0.017425,-0.225537,-0.457988,0.124935,-0.324784,-30.209717,-85.776559,44.468448
05075,571098,7.800130,0.356162,-0.995265,-0.293990,-0.069523,-0.215936,-0.458987,0.123456,-0.324861,-29.161771,-85.872898,43.247701
05076,571198,7.738311,0.319680,-0.989388,-0.281321,-0.128437,-0.207576,-0.460964,0.121543,-0.325962,-28.339310,-85.995078,42.260432
05077,571298,7.897343,0.293339,-0.759600,-0.274795,-0.178115,-0.190025,-0.464492,0.124467,-0.323312,-27.782413,-86.136805,41.543241
05078,571398,8.300693,0.366019,-0.472148,-0.256532,-0.204916,-0.166930,-0.464509,0.125416,-0.322262,-27.455572,-86.285630,41.067207
05079,571498,8.873812,0.498013,-0.227839,-0.218316,-0.209218,-0.148570,-0.465477,0.125504,-0.323761,-27.241058,-86.431672,40.725746
05080,571598,9.451101,0.598559,0.023364,-0.180250,-0.189060,-0.138359,-0.465485,0.126476,-0.323211,-26.980208,-86.564684,40.359767
05081,571698,10.017798,0.608920,0.312924,-0.161510,-0.140300,-0.131593,-0.467996,0.125471,-0.322263,-26.527304,-86.670870,39.812210
05082,571798,10.411408,0.483905,0.453817,-0.163833,-0.088739,-0.123377,-0.466988,0.126974,-0.322686,-25.889302,-86.748163,39.077977
05083,571898,10.614952,0.311085,0.424317,-0.155983,-0.038369,-0.109947,-0.469972,0.129513,-0.322560,-25.118559,-86.795575,38.215348
05084,571998,10.635357,0.105533,0.266121,-0.149936,0.004239,-0.096942,-0.469429,0.128628,-0.325109,-24.261616,-86.817003,37.269882
05085,572098,10.434661,-0.038836,0.095731,-0.157449,0.017533,-0.086249,-0.469924,0.130131,-0.325034,-23.444054,-86.828218,36.359554
05086,572198,10.100311,-0.071915,0.017865,-0.186298,-0.017126,-0.076200,-0.470425,0.134101,-0.324331,-22.872675,-86.854820,35.679236
05087,572298,9.820651,0.058361,0.242987,-0.222066,-0.063252,-0.066768,-0.470387,0.134695,-0.326304,-22.588672,-86.903432,35.266219
05088,572398,9.569466,0.290463,0.487019,-0.257887,-0.111033,-0.060637,-0.472370,0.139709,-0.326051,-22.571839,-86.975916,35.100229
05089,572498,9.335465,0.466903,0.695063,-0.280185,-0.151731,-0.061009,-0.472875,0.141188,-0.325475,-22.733679,-87.070013,35.100390
05090,572598,9.181072,0.526466,0.875078,-0.285401,-0.173748,-0.058953,-0.472807,0.142851,-0.328897,-23.024914,-87.175273,35.227137
05091,572698,9.068800,0.500179,0.975285,-0.277271,-0.174509,-0.058106,-0.474376,0.142682,-0.324899,-23.340390,-87.280706,35.382827
05092,572798,8.942618,0.468845,0.949893,-0.266311,-0.163039,-0.056577,-0.472377,0.146636,-0.324696,-23.628334,-87.379719,35.517250
05093,572898,8.844035,0.389781,0.889926,-0.262500,-0.148397,-0.053423,-0.475340,0.150219,-0.325519,-23.891085,-87.470292,35.628648
05094,572998,8.753156,0.315978,0.830040,-0.262521,-0.139973,-0.052835,-0.473847,0.154656,-0.324790,-24.128618,-87.556293,35.714802
05095,573098,8.719348,0.227683,0.753360,-0.253371,-0.132821,-0.050010,-0.473370,0.153603,-0.323841,-24.367371,-87.637876,35.807432
05096,573198,8.663635,0.162080,0.681255,-0.248348,-0.134011,-0.045722,-0.475819,0.156230,-0.325713,-24.678152,-87.719039,35.975036
05097,573298,8.696618,0.099760,0.605815,-0.253067,-0.140671,-0.043792,-0.476323,0.157709,-0.325138,-25.077311,-87.803153,36.228378
05098,573398,8.760048,0.129027,0.604642,-0.263519,-0.152999,-0.037538,-0.477848,0.156165,-0.323715,-25.678770,-87.892023,36.678164
05099,573498,8.864742,0.195117,0.595126,-0.272960,-0.172937,-0.031815,-0.478825,0.156728,-0.324690,-26.559544,-87.989482,37.402016
05100,573598,8.993412,0.324364,0.622379,-0.275034,-0.193795,-0.025326,-0.479861,0.160609,-0.321988,-27.787739,-88.095381,38.472271
05101,573698,9.151524,0.444029,0.698778,-0.264836,-0.211954,-0.022314,-0.482326,0.159226,-0.323564,-29.354245,-88.208674,39.886807
05102,573798,9.184823,0.513742,0.750582,-0.249425,-0.220094,-0.025699,-0.479342,0.156687,-0.323690,-31.136659,-88.325595,41.526114
05103,573898,9.214600,0.554052,0.834007,-0.224861,-0.225029,-0.030795,-0.480800,0.161267,-0.324961,-33.125649,-88.444772,43.386084
05104,573998,9.308310,0.545663,0.954354,-0.199241,-0.209807,-0.036838,-0.482821,0.160729,-0.323488,-35.102886,-88.556783,45.248903
05105,574098,9.396833,0.439705,0.953209,-0.163771,-0.165980,-0.041736,-0.481829,0.163678,-0.322835,-36.638512,-88.648534,46.690249
05106,574198,9.469929,0.299730,0.982050,-0.131492,-0.111070,-0.037146,-0.484321,0.163219,-0.322861,-37.593414,-88.712818,47.569192
05107,574298,9.574198,0.166518,1.062394,-0.093399,-0.049289,-0.029935,-0.485315,0.164232,-0.322811,-37.760153,-88.746351,47.681616
05108,574398,9.722395,0.094647,1.097552,-0.049046,0.000340,-0.018542,-0.484324,0.166683,-0.322184,-37.342618,-88.753362,47.235066
05109,574498,9.916252,0.058276,1.101133,0.001164,0.017983,-0.009010,-0.482280,0.169761,-0.324530,-36.813212,-88.748928,46.705415
05110,574598,10.025746,0.066020,1.122968,0.048243,0.014321,-0.007482,-0.485805,0.168724,-0.322582,-36.349307,-88.745551,46.268282
05111,574698,9.952658,0.078430,1.182766,0.080014,0.011317,-0.012578,-0.482296,0.171208,-0.323454,-35.807425,-88.745195,45.771384
05112,574798,9.760491,0.180965,1.280275,0.094340,0.029642,-0.016686,-0.483767,0.173770,-0.324327,-34.894893,-88.737493,44.911984
05113,574898,9.576883,0.291282,1.323152,0.092552,0.074762,-0.011637,-0.481776,0.172743,-0.324377,-33.459595,-88.706383,43.528685
05114,574998,9.470133,0.456304,1.302306,0.088664,0.133494,0.000050,-0.480243,0.173811,-0.326325,-31.577411,-88.642407,41.696159
05115,575098,9.387369,0.503862,1.200463,0.079313,0.177878,0.015430,-0.479246,0.174294,-0.326299,-29.669971,-88.550681,39.832979
05116,575198,9.334643,0.501037,1.052382,0.063658,0.200758,0.034062,-0.479183,0.178424,-0.329095,-28.117020,-88.440983,38.315380
05117,575298,9.375392,0.543290,0.956311,0.048594,0.199183,0.049178,-0.480679,0.177451,-0.329146,-27.053546,-88.327195,37.278762
05118,575398,9.449878,0.665914,0.868147,0.032779,0.185959,0.060533,-0.477117,0.183045,-0.332365,-26.427499,-88.216828,36.670667
05119,575498,9.611213,0.846714,0.841018,0.021417,0.166037,0.067971,-0.476629,0.182515,-0.331890,-26.147400,-88.114669,36.402174
05120,575598,9.744748,1.005038,0.845601,0.007012,0.140583,0.070527,-0.474632,0.184975,-0.331762,-26.126245,-88.024936,36.384526
05121,575698,9.928879,1.112713,1.015678,-0.007717,0.116730,0.067863,-0.476058,0.187160,-0.335160,-26.244369,-87.948142,36.497829
05122,575798,10.142352,1.190896,1.342548,-0.008094,0.126114,0.061790,-0.476088,0.186091,-0.333711,-26.206124,-87.868057,36.454487
05123,575898,10.413961,1.077146,1.670411,0.001108,0.186062,0.056818,-0.475056,0.185175,-0.335761,-25.713040,-87.758324,35.961294
05124,575998,10.776847,0.713813,1.757721,0.021806,0.278580,0.063822,-0.477519,0.185287,-0.337261,-24.801308,-87.598702,35.060974
05125,576098,11.236880,0.183052,1.665154,0.058318,0.372358,0.079839,-0.475474,0.183407,-0.340361,-23.687374,-87.385686,33.979106
05126,576198,11.740492,-0.364354,1.451895,0.087391,0.445064,0.108479,-0.478989,0.182892,-0.338888,-22.703813,-87.127077,33.044249
05127,576298,12.111236,-0.666438,1.286805,0.112968,0.481650,0.129483,-0.476383,0.185632,-0.344758,-21.925733,-86.843844,32.329619
05128,576398,12.326105,-0.608390,1.060396,0.109640,0.493207,0.145188,-0.474377,0.182660,-0.345909,-21.371854,-86.550717,31.837455
05129,576498,12.876798,-0.274048,0.730555,0.094954,0.500459,0.156447,-0.477778,0.178970,-0.351112,-20.977472,-86.251163,31.496515
05130,576598,13.525401,0.121830,0.231617,0.092234,0.486672,0.160634,-0.477280,0.178962,-0.351111,-20.710345,-85.958029,31.281436
05131,576698,13.513545,0.386697,-0.555054,0.090745,0.416430,0.143117,-0.478240,0.178078,-0.353162,-20.539284,-85.706062,31.161723
05132,576798,12.725615,0.505045,-1.165368,0.053122,0.298146,0.096784,-0.478660,0.175313,-0.357813,-20.389621,-85.526871,31.041779
05133,576898,11.611150,0.339317,-1.249742,-0.002690,0.162874,0.024935,-0.480650,0.176341,-0.357762,-20.134627,-85.434638,30.784032
05134,576998,10.649568,0.176274,-1.031689,-0.028916,0.018706,-0.035463,-0.480150,0.177828,-0.357686,-19.849278,-85.431787,30.480702
05135,577098,9.689445,0.159092,-0.735223,-0.027854,-0.113868,-0.076776,-0.481146,0.177844,-0.357686,-19.603404,-85.508330,30.217565
05136,577198,8.850105,0.111853,-0.474669,-0.009541,-0.213900,-0.106812,-0.479183,0.176744,-0.356237,-19.374041,-85.644572,29.981523
05137,577298,8.367649,-0.021349,-0.141909,0.006798,-0.248519,-0.130358,-0.482202,0.180680,-0.354036,-19.034942,-85.803899,29.644854
05138,577398,7.997760,-0.298436,0.146351,0.024883,-0.206985,-0.142140,-0.482150,0.184288,-0.356357,-18.461102,-85.942661,29.083271
05139,577498,7.710577,-0.661809,0.331420,0.036604,-0.158542,-0.140641,-0.481685,0.186177,-0.354256,-17.728860,-86.054303,28.369702
05140,577598,7.648986,-1.137148,0.346189,0.064301,-0.113567,-0.136593,-0.481172,0.189681,-0.354578,-16.860194,-86.139944,27.535360
05141,577698,8.019433,-1.529099,0.431526,0.125608,-0.036178,-0.120908,-0.481697,0.190115,-0.353053,-15.864693,-86.179569,26.609139
05142,577798,8.737697,-1.762768,0.478957,0.201497,0.086944,-0.089128,-0.478652,0.190212,-0.356051,-14.798565,-86.145217,25.655685
05143,577898,9.348779,-1.702156,0.248455,0.261253,0.203817,-0.058766,-0.480641,0.192236,-0.355950,-13.730249,-86.040494,24.734244
05144,577998,9.782717,-1.445547,0.047880,0.268883,0.259758,-0.023746,-0.481091,0.193361,-0.358398,-12.883380,-85.898932,24.039009
05145,578098,10.289339,-1.074105,0.045313,0.242113,0.262431,0.013923,-0.478561,0.194414,-0.360346,-12.382952,-85.750597,23.675599
05146,578198,10.733252,-0.608249,0.080280,0.182245,0.228676,0.047782,-0.478564,0.192920,-0.360422,-12.245544,-85.616882,23.641751
05147,578298,10.952317,-0.233554,0.020182,0.097341,0.162510,0.068131,-0.476018,0.192526,-0.363446,-12.408703,-85.517726,23.860550
05148,578398,10.844999,0.075960,0.011350,0.012591,0.089033,0.067826,-0.478993,0.195089,-0.363819,-12.725295,-85.459638,24.184556
05149,578498,10.415927,0.257261,0.108170,-0.043733,0.032202,0.043580,-0.479985,0.197596,-0.363693,-12.988438,-85.436269,24.422576
05150,578598,9.851396,0.297143,0.303832,-0.063818,-0.004512,0.007545,-0.480501,0.198054,-0.362668,-13.068993,-85.437999,24.465879
05151,578698,9.378623,0.155230,0.487934,-0.048609,-0.028921,-0.023038,-0.480951,0.199179,-0.365116,-12.966042,-85.457306,24.333831
05152,578798,8.994586,-0.060248,0.596909,-0.032035,-0.051498,-0.044559,-0.478502,0.201510,-0.362489,-12.736554,-85.491939,24.084378
05153,578898,8.698128,-0.254584,0.708919,-0.025380,-0.078488,-0.055516,-0.479012,0.205456,-0.361287,-12.463827,-85.542946,23.795388
05154,578998,8.483319,-0.392593,0.771435,-0.025878,-0.107235,-0.057717,-0.479451,0.207601,-0.364184,-12.214105,-85.610209,23.529205
05155,579098,8.303256,-0.509760,0.737306,-0.024186,-0.130965,-0.055635,-0.475980,0.208992,-0.363107,-12.008256,-85.690430,23.308015
05156,579198,8.249248,-0.608837,0.805901,-0.022089,-0.143074,-0.046700,-0.480926,0.213129,-0.364405,-11.880188,-85.776329,23.166044
05157,579298,8.260912,-0.661592,0.835932,-0.013303,-0.135145,-0.032125,-0.479986,0.212471,-0.361431,-11.841568,-85.856046,23.118819
05158,579398,8.323684,-0.762177,0.804931,0.008176,-0.118766,-0.009226,-0.478953,0.218008,-0.362651,-11.942218,-85.923876,23.223559
05159,579498,8.458547,-0.823075,0.705053,0.037742,-0.109205,0.010351,-0.482974,0.218473,-0.360627,-12.169308,-85.983983,23.472020
05160,579598,8.612477,-0.907173,0.587347,0.060962,-0.117217,0.023892,-0.482405,0.221623,-0.363973,-12.514221,-86.046828,23.851893
05161,579698,8.764649,-1.007922,0.541380,0.066912,-0.141604,0.025690,-0.482919,0.223077,-0.362898,-12.928297,-86.122900,24.304462
05162,579798,8.923748,-1.051068,0.662813,0.060714,-0.185939,0.026851,-0.482909,0.223599,-0.363372,-13.462237,-86.223293,24.873543
05163,579898,9.061220,-1.062498,0.866979,0.049775,-0.207937,0.031178,-0.481984,0.225384,-0.359272,-14.117979,-86.334934,25.558326
05164,579998,9.092164,-1.012493,1.011828,0.046427,-0.212391,0.039319,-0.482475,0.224419,-0.359823,-14.900893,-86.447305,26.368522
05165,580098,9.161466,-0.944580,1.135424,0.032479,-0.205502,0.047800,-0.482967,0.227417,-0.359670,-15.803694,-86.553817,27.290728
05166,580198,9.116999,-0.853393,1.194545,0.019248,-0.204168,0.054652,-0.485943,0.229481,-0.360070,-16.832747,-86.657522,28.331717
05167,580298,9.214541,-0.783982,1.320157,0.003985,-0.175046,0.059619,-0.484465,0.230904,-0.358993,-17.893849,-86.743303,29.395957
05168,580398,9.082701,-0.701338,1.392731,-0.005080,-0.131715,0.059721,-0.482488,0.232319,-0.357917,-18.873408,-86.804392,30.373256
05169,580498,9.073630,-0.603298,1.356793,-0.014178,-0.108357,0.047628,-0.481960,0.233380,-0.359365,-19.694643,-86.854256,31.186728
05170,580598,9.204089,-0.575921,1.358544,-0.010228,-0.087713,0.038053,-0.484402,0.235034,-0.361789,-20.368591,-86.894287,31.854939
05171,580698,9.260288,-0.613226,1.363923,-0.001098,-0.075977,0.026261,-0.484964,0.235372,-0.358265,-20.892105,-86.930013,32.377725
05172,580798,9.342055,-0.666419,1.329651,0.011199,-0.085086,0.016858,-0.480442,0.236393,-0.360212,-21.362045,-86.972296,32.853909
05173,580898,9.437234,-0.709469,1.319627,0.024331,-0.102054,0.005326,-0.483456,0.237863,-0.358637,-21.789381,-87.025841,33.294956
05174,580998,9.496079,-0.665385,1.425900,0.029490,-0.095296,-0.006221,-0.482939,0.237904,-0.359637,-22.080933,-87.078110,33.602992
05175,581098,9.579816,-0.607926,1.500156,0.020071,-0.067542,-0.016383,-0.481915,0.237960,-0.361136,-22.161575,-87.117777,33.694448
05176,581198,9.533333,-0.548612,1.477782,0.014264,-0.037498,-0.026697,-0.479429,0.240388,-0.360508,-22.007679,-87.143708,33.547754
05177,581298,9.609510,-0.439778,1.533891,-0.004938,-0.018232,-0.037188,-0.480866,0.241552,-0.363456,-21.666630,-87.161586,33.202684
05178,581398,9.600681,-0.481082,1.390639,-0.015456,0.030765,-0.044063,-0.481412,0.240942,-0.360983,-21.048083,-87.154599,32.573756
05179,581498,9.515754,-0.528736,1.164439,-0.024876,0.063960,-0.058258,-0.480886,0.241006,-0.362483,-20.153418,-87.132250,31.662966
05180,581598,9.418781,-0.690926,0.958771,-0.027834,0.067992,-0.068370,-0.480885,0.241504,-0.362457,-19.151322,-87.108919,30.642896
05181,581698,9.510462,-0.972744,0.850843,-0.010910,0.061624,-0.070380,-0.480347,0.243087,-0.364380,-18.157052,-87.088517,29.640349
05182,581798,9.853701,-1.286818,0.787617,0.038435,0.067821,-0.063208,-0.479306,0.242195,-0.366930,-17.205118,-87.062618,28.708472
05183,581898,10.375817,-1.488839,0.786961,0.095593,0.077500,-0.060939,-0.480789,0.243240,-0.367379,-16.231676,-87.030233,27.787817
05184,581998,11.120333,-1.586770,1.181212,0.150472,0.117908,-0.058177,-0.479810,0.243674,-0.366354,-15.161266,-86.974278,26.801506
05185,582098,11.628429,-1.395179,1.722638,0.151109,0.175653,-0.049754,-0.479757,0.242324,-0.369429,-14.065510,-86.884109,25.790122
05186,582198,11.958794,-0.946784,2.343279,0.082024,0.225420,-0.054155,-0.480222,0.240435,-0.371530,-12.910693,-86.765733,24.679870
05187,582298,12.108633,-0.346770,3.162266,-0.028797,0.289638,-0.065140,-0.476660,0.241071,-0.375501,-11.666525,-86.611454,23.416418
05188,582398,12.085456,0.410905,3.852307,-0.140397,0.398701,-0.093383,-0.473711,0.239432,-0.373578,-10.160017,-86.397130,21.825912
05189,582498,12.132887,1.021490,4.019580,-0.204859,0.559430,-0.128655,-0.472653,0.237592,-0.377177,-8.365220,-86.092409,19.909115
05190,582598,12.369233,1.236433,3.844788,-0.233326,0.723217,-0.164533,-0.475094,0.234288,-0.380355,-6.437502,-85.693306,17.841978
05191,582698,12.192135,0.818631,3.290959,-0.259017,0.834894,-0.208978,-0.471042,0.235390,-0.383802,-4.496207,-85.228124,15.745339
05192,582798,11.802116,-0.034838,2.496349,-0.264819,0.879642,-0.230968,-0.469924,0.230729,-0.391052,-2.768118,-84.733072,13.857947
05193,582898,12.242020,-0.681340,1.517028,-0.196869,0.871519,-0.205185,-0.467383,0.227845,-0.394203,-1.462137,-84.237949,12.432225
05194,582998,13.065713,-1.213556,0.401627,-0.054182,0.826890,-0.134543,-0.471253,0.224734,-0.400879,-0.666238,-83.765245,11.600334
05195,583098,13.140450,-1.897657,-1.374104,0.048247,0.651595,-0.078292,-0.472670,0.221486,-0.405556,-0.206116,-83.391843,11.164633
05196,583198,12.288876,-1.797671,-3.129402,-0.033481,0.343126,-0.044118,-0.473097,0.214736,-0.410410,0.000678,-83.194918,10.936475
05197,583298,11.316928,-0.731897,-3.384786,-0.207356,0.034780,-0.043103,-0.475591,0.212782,-0.410512,0.096141,-83.174644,10.719934
05198,583398,10.616140,0.624697,-2.627471,-0.318092,-0.156465,-0.080833,-0.478662,0.213111,-0.405990,0.313951,-83.263839,10.316221
05199,583498,9.833619,1.721387,-1.313022,-0.314344,-0.247363,-0.144137,-0.477640,0.212171,-0.407540,0.861038,-83.404448,9.583206
05200,583598,9.168827,2.461450,0.020165,-0.273676,-0.258504,-0.201330,-0.480595,0.215281,-0.408887,1.750915,-83.549628,8.528829
05201,583698,8.516948,2.743984,1.120516,-0.241835,-0.241574,-0.233915,-0.482137,0.214685,-0.406415,2.868095,-83.682240,7.264406
05202,583798,8.417235,2.587091,1.678883,-0.241038,-0.170506,-0.244687,-0.485132,0.216203,-0.405839,4.066075,-83.770954,5.919465
05203,583898,8.741519,1.926227,1.690525,-0.286684,-0.020861,-0.233369,-0.481112,0.220697,-0.407109,5.141321,-83.771775,4.671823
05204,583998,8.957851,1.090622,1.381154,-0.333544,0.150260,-0.203684,-0.480574,0.222280,-0.409032,5.940139,-83.674428,3.675166
05205,584098,9.089511,0.438417,0.893838,-0.350825,0.296905,-0.155835,-0.478589,0.228179,-0.407727,6.375532,-83.495319,3.033987
05206,584198,9.121014,-0.123388,0.245245,-0.356174,0.360842,-0.105332,-0.480509,0.232365,-0.411023,6.497685,-83.282716,2.704784
05207,584298,9.177262,-0.666181,-0.385073,-0.352607,0.308787,-0.050128,-0.480447,0.236495,-0.413818,6.376948,-83.103314,2.622075
05208,584398,9.450057,-0.985721,-0.770851,-0.360488,0.177491,0.009708,-0.480454,0.237468,-0.413268,6.042812,-83.002469,2.749711
05209,584498,9.643944,-0.892113,-0.709984,-0.382422,0.024640,0.060622,-0.480954,0.241437,-0.412565,5.538707,-82.991611,3.035893
05210,584598,9.759255,-0.456887,-0.187517,-0.384778,-0.104866,0.088209,-0.480921,0.244499,-0.413912,4.959802,-83.055779,3.396017
05211,584698,9.848545,0.188060,0.328529,-0.360199,-0.175369,0.083975,-0.482926,0.247970,-0.412735,4.432851,-83.159594,3.717908
05212,584798,9.805375,0.664150,0.730824,-0.297010,-0.179849,0.053339,-0.484902,0.247053,-0.413786,4.079177,-83.264372,3.901683
05213,584898,9.546745,0.949583,1.009620,-0.232539,-0.146773,0.017937,-0.486440,0.248451,-0.411211,3.917061,-83.348735,3.929744
05214,584998,9.137454,1.029834,1.065155,-0.178950,-0.111332,-0.017839,-0.485425,0.253940,-0.411431,3.948807,-83.411430,3.793554
05215,585098,8.677383,0.933197,1.037564,-0.135609,-0.088987,-0.043800,-0.486423,0.252461,-0.411508,4.128741,-83.460277,3.533214
05216,585198,8.234711,0.759258,0.977279,-0.094816,-0.092238,-0.055914,-0.488321,0.253730,-0.416456,4.397591,-83.510349,3.206935
05217,585298,7.933785,0.543532,0.911544,-0.076879,-0.105218,-0.053859,-0.489868,0.255602,-0.413356,4.676430,-83.567750,2.880983
05218,585398,7.695015,0.379319,0.866545,-0.090428,-0.113801,-0.036735,-0.489872,0.258567,-0.412703,4.869206,-83.630717,2.633858
05219,585498,7.603713,0.256423,0.810595,-0.121200,-0.122421,-0.009929,-0.488897,0.261967,-0.411026,4.914081,-83.699857,2.517835
05220,585598,7.751359,0.030337,0.688243,-0.145772,-0.123787,0.018886,-0.490351,0.264080,-0.412924,4.796531,-83.771187,2.551057
05221,585698,8.043313,-0.091066,0.667134,-0.148895,-0.123647,0.046915,-0.488866,0.264032,-0.412424,4.527000,-83.843732,2.735340
05222,585798,8.398689,-0.136483,0.804613,-0.149980,-0.133496,0.074701,-0.489827,0.268106,-0.413720,4.106295,-83.922985,3.071005
05223,585898,8.740787,-0.016090,0.969925,-0.143821,-0.142803,0.096420,-0.489854,0.268532,-0.412195,3.564174,-84.008090,3.532258
05224,585998,9.103663,0.310476,1.031424,-0.146007,-0.142905,0.110118,-0.488812,0.273595,-0.413940,2.930716,-84.093198,4.084013
05225,586098,9.339534,0.686323,1.026580,-0.144123,-0.145754,0.110221,-0.490379,0.274422,-0.409891,2.281247,-84.179295,4.652868
05226,586198,9.450795,1.051655,0.999748,-0.138927,-0.153282,0.096199,-0.488347,0.275483,-0.411839,1.697946,-84.268795,5.158126
05227,586298,9.456656,1.273430,1.030205,-0.111823,-0.168048,0.076243,-0.487847,0.276970,-0.411763,1.230824,-84.365991,5.562162
05228,586398,9.431910,1.288959,1.236859,-0.065741,-0.175150,0.049311,-0.492328,0.278038,-0.411713,0.935074,-84.466694,5.820484
05229,586498,9.452503,1.063519,1.531386,-0.005382,-0.154750,0.029542,-0.490339,0.276013,-0.411814,0.781504,-84.555435,5.970689
05230,586598,9.436911,0.675981,1.674525,0.050417,-0.116324,0.017961,-0.494837,0.278029,-0.410715,0.723096,-84.622042,6.057420
05231,586698,9.258738,0.276030,1.631442,0.094892,-0.086725,0.024334,-0.493836,0.280504,-0.410587,0.647306,-84.671717,6.187213
05232,586798,8.795169,-0.022192,1.386253,0.122446,-0.092926,0.039565,-0.493849,0.278986,-0.410164,0.491314,-84.725003,6.413406
05233,586898,8.285249,-0.185734,1.187971,0.140132,-0.137304,0.058574,-0.494333,0.281509,-0.410537,0.223331,-84.803703,6.762216
05234,586998,7.796235,-0.314421,1.119565,0.160253,-0.182173,0.078182,-0.496840,0.282497,-0.409487,-0.169029,-84.907930,7.247436
05235,587098,7.603859,-0.338848,1.194291,0.190182,-0.193305,0.101205,-0.496296,0.282609,-0.411986,-0.714461,-85.018071,7.903464
05236,587198,7.891391,-0.197878,1.402075,0.205398,-0.154321,0.123825,-0.495862,0.282931,-0.408462,-1.423322,-85.104996,8.732194
05237,587298,8.622849,0.113509,1.541429,0.172205,-0.077869,0.143968,-0.495854,0.287415,-0.408233,-2.294691,-85.146767,9.704873
05238,587398,9.195672,0.425417,1.544720,0.088364,-0.032680,0.156541,-0.494341,0.287439,-0.409232,-3.297540,-85.160965,10.761272
05239,587498,9.619067,0.745418,1.726127,0.016194,-0.026234,0.162994,-0.495317,0.288500,-0.410181,-4.387706,-85.169591,11.863807
05240,587598,9.953141,0.977572,2.026009,-0.006830,-0.004763,0.164691,-0.495333,0.289946,-0.409105,-5.491967,-85.164088,12.967278
05241,587698,10.198792,1.084671,2.143777,0.023845,0.043234,0.151047,-0.497294,0.286587,-0.411283,-6.447425,-85.130367,13.939115
05242,587798,10.261928,1.080224,1.953650,0.052631,0.100820,0.138309,-0.493285,0.289561,-0.412129,-7.239854,-85.063499,14.763980
05243,587898,10.025095,0.910820,1.632001,0.055010,0.134317,0.121633,-0.495814,0.289006,-0.410156,-7.870893,-84.977989,15.428327
05244,587998,9.643380,0.743166,1.334258,0.024904,0.127062,0.112642,-0.492302,0.287528,-0.411731,-8.447035,-84.896720,16.020342
05245,588098,9.350891,0.583041,1.212159,-0.026575,0.100778,0.110397,-0.495236,0.287222,-0.414756,-9.046101,-84.830000,16.605838
05246,588198,9.314561,0.462901,1.255043,-0.066080,0.074414,0.105153,-0.494770,0.290107,-0.412604,-9.647721,-84.778127,17.171233
05247,588298,9.464886,0.299966,1.289933,-0.078414,0.067990,0.105211,-0.493211,0.289754,-0.416128,-10.252252,-84.729336,17.732509
05248,588398,9.668940,0.114388,1.389864,-0.057815,0.087007,0.102775,-0.494698,0.288805,-0.416679,-10.797658,-84.669573,18.246318
05249,588498,9.973958,-0.135455,1.649972,-0.002500,0.145407,0.106849,-0.494225,0.290220,-0.415103,-11.254828,-84.576103,18.703412
05250,588598,10.310393,-0.389245,2.001385,0.068025,0.206087,0.115512,-0.494704,0.290276,-0.416103,-11.634078,-84.447253,19.122925
05251,588698,10.799257,-0.670942,2.561434,0.126444,0.264702,0.126485,-0.491135,0.289441,-0.420651,-11.953847,-84.283986,19.516436
05252,588798,11.267684,-0.940260,3.059271,0.180721,0.324959,0.142290,-0.489621,0.290462,-0.421599,-12.237772,-84.084843,19.905340
05253,588898,11.777188,-1.108908,3.498176,0.232551,0.373140,0.171117,-0.492592,0.290059,-0.422625,-12.564755,-83.854961,20.367602
05254,588998,12.544508,-1.201836,3.722412,0.278180,0.455222,0.208248,-0.490517,0.289248,-0.427173,-12.928467,-83.574202,20.893386
05255,589098,13.154098,-1.230911,3.397655,0.328077,0.548804,0.237643,-0.487458,0.287400,-0.431272,-13.261064,-83.237040,21.416985
05256,589198,13.393696,-0.884103,2.803914,0.341970,0.601856,0.246359,-0.486411,0.284539,-0.434423,-13.526778,-82.868832,21.881630
05257,589298,13.752991,-0.350220,1.881009,0.292048,0.624539,0.236635,-0.485861,0.282185,-0.437549,-13.719917,-82.489086,22.244646
05258,589398,14.383924,0.159874,0.654774,0.253751,0.578271,0.219787,-0.487255,0.281477,-0.443098,-13.886300,-82.137261,22.558798
05259,589498,14.508403,0.828435,-0.916199,0.220053,0.436351,0.176906,-0.487221,0.279580,-0.445199,-14.023039,-81.870201,22.823686
05260,589598,13.938738,1.287889,-2.182160,0.134089,0.228457,0.098669,-0.487169,0.277732,-0.448299,-14.098050,-81.729559,22.976487
05261,589698,13.140652,1.273787,-2.312695,0.032838,0.014083,-0.002519,-0.488137,0.277820,-0.449799,-14.048123,-81.722199,22.944345
05262,589798,12.222688,1.011496,-1.921020,-0.039169,-0.195117,-0.088931,-0.493129,0.276878,-0.449352,-13.907059,-81.843145,22.778357
05263,589898,11.118295,0.612113,-1.279118,-0.077136,-0.369805,-0.149514,-0.496148,0.275857,-0.447904,-13.712126,-82.069533,22.536001
05264,589998,9.879105,0.124922,-0.890641,-0.079047,-0.513924,-0.187065,-0.499715,0.272730,-0.444059,-13.492927,-82.381139,22.268150
05265,590098,8.729269,-0.300049,-0.520220,-0.057221,-0.641749,-0.211107,-0.502236,0.276161,-0.441883,-13.266499,-82.767056,22.005795
05266,590198,7.766037,-0.810744,-0.177496,0.019161,-0.748039,-0.230594,-0.504339,0.276402,-0.435860,-12.990988,-83.214674,21.738288
05267,590298,7.224307,-1.331996,0.306059,0.147644,-0.803912,-0.234860,-0.508369,0.272383,-0.434066,-12.642798,-83.693869,21.471957
05268,590398,7.039658,-1.792304,0.906870,0.296848,-0.721989,-0.226810,-0.511970,0.275613,-0.427391,-12.102355,-84.125973,21.098482
05269,590498,6.990948,-2.111743,1.158204,0.436226,-0.515362,-0.212605,-0.509917,0.273259,-0.431016,-11.245472,-84.439968,20.487492
05270,590598,7.182991,-2.322335,0.921097,0.523237,-0.289142,-0.188813,-0.515948,0.269248,-0.428722,-10.143793,-84.622977,19.680918
05271,590698,7.760596,-2.419640,0.455271,0.549267,-0.127998,-0.138815,-0.514917,0.267833,-0.430798,-9.107785,-84.708697,18.955437
05272,590798,8.564379,-2.198621,0.240094,0.539744,-0.035147,-0.073818,-0.513960,0.266725,-0.428849,-8.366383,-84.735122,18.520377
05273,590898,9.486646,-1.723436,0.195445,0.513998,0.016949,-0.003359,-0.516427,0.264345,-0.430476,-8.023602,-84.725874,18.470798
05274,590998,10.362000,-1.124147,0.187872,0.479031,0.057854,0.077599,-0.514412,0.261396,-0.432127,-8.161399,-84.686892,18.883707
05275,591098,11.014011,-0.414242,0.034329,0.428011,0.060035,0.154399,-0.516921,0.261388,-0.431129,-8.786311,-84.639948,19.756494
05276,591198,11.247194,0.174302,-0.243110,0.360515,0.044834,0.195871,-0.518388,0.256027,-0.433408,-9.699599,-84.596715,20.880124
05277,591298,10.949188,0.510116,-0.553636,0.281080,-0.003354,0.180998,-0.519908,0.257473,-0.431833,-10.607597,-84.580513,21.952743
05278,591398,10.568013,0.469613,-0.589932,0.192870,-0.088257,0.127811,-0.518869,0.255585,-0.434433,-11.347043,-84.616440,22.805237
05279,591498,10.246858,0.146383,-0.260814,0.133011,-0.174695,0.078130,-0.521370,0.254604,-0.433984,-11.943839,-84.705695,23.479898
05280,591598,9.845157,-0.133871,0.132437,0.118262,-0.220129,0.031809,-0.522451,0.253905,-0.429512,-12.347614,-84.825441,23.952109
05281,591698,9.439648,-0.317311,0.415299,0.135369,-0.248853,0.008079,-0.525470,0.252385,-0.428090,-12.653126,-84.963934,24.335397
05282,591798,9.131349,-0.445319,0.646482,0.149081,-0.270912,-0.003657,-0.526465,0.253398,-0.428039,-12.926769,-85.116070,24.694489
05283,591898,8.926940,-0.537811,0.873487,0.160338,-0.287084,-0.003573,-0.527995,0.254322,-0.425990,-13.240491,-85.277058,25.100186
05284,591998,8.744351,-0.601722,1.059668,0.165012,-0.275626,0.006263,-0.528504,0.253309,-0.425541,-13.626029,-85.430139,25.580534
05285,592098,8.590182,-0.571990,1.145250,0.170019,-0.240464,0.014605,-0.530046,0.252714,-0.423068,-14.035180,-85.562239,26.087354
05286,592198,8.400337,-0.590815,1.149061,0.184176,-0.196262,0.022942,-0.529060,0.252176,-0.422593,-14.441406,-85.668325,26.599298
05287,592298,8.354469,-0.629654,1.034164,0.203522,-0.169597,0.027352,-0.532598,0.249122,-0.420248,-14.839340,-85.758712,27.113977
05288,592398,8.474910,-0.713344,0.938655,0.215749,-0.165965,0.033894,-0.534061,0.251210,-0.421646,-15.292286,-85.845826,27.690780
05289,592498,8.658351,-0.851191,0.851873,0.221725,-0.175497,0.043297,-0.532107,0.250584,-0.419671,-15.857775,-85.936376,28.383779
05290,592598,8.805643,-1.026437,0.671930,0.213146,-0.202828,0.062095,-0.536073,0.250696,-0.420672,-16.670308,-86.038341,29.319409
05291,592698,8.978149,-1.164301,0.561681,0.193193,-0.239245,0.084760,-0.536638,0.250036,-0.417199,-17.818524,-86.155254,30.579906
05292,592798,9.187243,-1.203740,0.603392,0.165909,-0.256371,0.101990,-0.538115,0.249112,-0.418250,-19.250336,-86.276378,32.108765
05293,592898,9.249555,-1.195506,0.750937,0.145179,-0.254785,0.117269,-0.540147,0.247553,-0.416327,-20.917297,-86.390872,33.861141
05294,592998,9.352629,-1.162373,1.018787,0.123975,-0.205263,0.132349,-0.539708,0.245905,-0.413405,-22.658264,-86.472424,35.675303
05295,593098,9.169489,-1.027174,1.214554,0.102974,-0.138732,0.138511,-0.543189,0.248950,-0.413253,-24.286660,-86.514241,37.364510
05296,593198,9.053137,-0.785604,1.269644,0.068122,-0.091484,0.133024,-0.541212,0.245407,-0.412931,-25.731708,-86.530061,38.849980
05297,593298,8.990811,-0.668391,1.243454,0.039439,-0.065236,0.124439,-0.544202,0.244956,-0.412957,-27.019989,-86.532436,40.161922
05298,593398,9.071952,-0.654302,1.101542,0.028847,-0.054235,0.119364,-0.542231,0.248340,-0.411279,-28.223996,-86.528846,41.383356
05299,593498,9.300636,-0.728220,0.991543,0.046786,-0.030772,0.114714,-0.543708,0.247415,-0.412330,-29.268260,-86.513300,42.455062
05300,593598,9.494415,-0.824137,0.830440,0.071981,0.004916,0.098866,-0.541242,0.249296,-0.410728,-29.992981,-86.483468,43.221108
05301,593698,9.554088,-1.108783,0.361755,0.080053,-0.001233,0.088864,-0.545692,0.246973,-0.412856,-30.650083,-86.459011,43.924046
05302,593798,9.750796,-1.354769,0.399725,0.069042,-0.025376,0.077950,-0.545704,0.245952,-0.412407,-31.334054,-86.449130,44.647579
05303,593898,9.870188,-1.441304,0.409033,0.054585,-0.020233,0.078064,-0.548199,0.248459,-0.411781,-31.998273,-86.436182,45.343014
05304,593998,9.651537,-1.398750,0.290742,0.039707,-0.027689,0.065332,-0.548686,0.244529,-0.412984,-32.604732,-86.430268,45.972024
05305,594098,9.334892,-1.216382,0.127081,0.025637,-0.065444,0.038418,-0.548676,0.244553,-0.413484,-33.200432,-86.450487,46.582151
05306,594198,9.051949,-1.197348,0.276841,0.035952,-0.099024,0.014108,-0.551212,0.245469,-0.410935,-33.783038,-86.494051,47.185041
05307,594298,9.120179,-1.301578,0.471513,0.053441,-0.091459,-0.014413,-0.553183,0.241587,-0.412638,-34.106814,-86.542848,47.538618
05308,594398,9.270006,-1.453322,0.539743,0.103715,-0.041122,-0.037162,-0.554227,0.240984,-0.410165,-33.959278,-86.575005,47.448863
05309,594498,9.554355,-1.375537,0.871754,0.154202,0.060252,-0.050743,-0.554231,0.238493,-0.410292,-33.134577,-86.563004,46.709700
05310,594598,10.228336,-1.032424,1.375395,0.159045,0.233412,-0.063011,-0.554231,0.238991,-0.410266,-31.355713,-86.469824,45.017351
05311,594698,11.047583,-0.394209,1.756324,0.092050,0.426944,-0.075558,-0.551690,0.235608,-0.413442,-28.763379,-86.280377,42.471195
05312,594798,11.482308,0.475647,1.738757,-0.032871,0.573429,-0.094933,-0.551640,0.232763,-0.416593,-25.814066,-86.013827,39.494867
05313,594898,11.482849,1.209094,1.499405,-0.172994,0.644231,-0.127679,-0.553595,0.232891,-0.418593,-22.876210,-85.708119,36.448500
05314,594998,11.795953,1.637801,1.136809,-0.237271,0.676193,-0.161054,-0.549533,0.229059,-0.423293,-20.076764,-85.381759,33.502753
05315,595098,12.915033,1.666294,0.576317,-0.219201,0.706530,-0.151618,-0.550946,0.228303,-0.427843,-17.650455,-85.027143,30.940406
05316,595198,13.937514,0.740462,-0.411133,-0.139775,0.707992,-0.123415,-0.552856,0.227555,-0.432392,-15.679818,-84.659185,28.879820
05317,595298,13.817655,-0.274405,-1.892671,-0.108029,0.606854,-0.136135,-0.552782,0.227748,-0.436391,-14.022501,-84.343482,27.151048
05318,595398,13.054070,-0.863686,-2.873526,-0.159652,0.410455,-0.160073,-0.553257,0.225337,-0.438018,-12.681321,-84.136265,25.709415
05319,595498,11.914267,-0.839495,-2.883444,-0.247921,0.204241,-0.160216,-0.557246,0.222909,-0.438146,-11.708718,-84.041720,24.587006
05320,595598,10.617891,-0.301131,-1.764112,-0.323686,0.025153,-0.174855,-0.557745,0.222418,-0.438172,-10.916154,-84.047700,23.601813
05321,595698,9.758107,0.316662,-0.254272,-0.337850,-0.117219,-0.206451,-0.559257,0.222892,-0.437147,-10.094832,-84.135763,22.579603
05322,595798,9.359103,0.900534,0.938354,-0.269459,-0.176321,-0.239417,-0.563812,0.224265,-0.433074,-9.074030,-84.258666,21.396460
05323,595898,9.185823,1.284624,1.629497,-0.185075,-0.149528,-0.252374,-0.563315,0.223261,-0.433124,-7.860606,-84.365122,20.068575
05324,595998,9.022294,1.271128,1.934581,-0.152223,-0.047778,-0.251556,-0.565336,0.222722,-0.431651,-6.516864,-84.410707,18.628842
05325,596098,8.894888,0.883053,1.872742,-0.167776,0.077108,-0.230339,-0.569781,0.223886,-0.433601,-5.218319,-84.380600,17.225601
05326,596198,9.011751,0.263800,1.508816,-0.183908,0.192484,-0.190738,-0.567807,0.223806,-0.432600,-4.125403,-84.279901,16.019554
05327,596298,9.271699,-0.287355,1.073557,-0.157099,0.248568,-0.156111,-0.566829,0.223742,-0.431601,-3.234224,-84.143815,15.031462
05328,596398,9.615188,-0.628124,0.647742,-0.126739,0.253558,-0.129974,-0.567291,0.223348,-0.433625,-2.510129,-84.002738,14.228582
05329,596498,9.858114,-0.832381,0.310942,-0.113663,0.209083,-0.096340,-0.571304,0.223339,-0.432127,-2.001091,-83.885493,13.649289
05330,596598,9.860120,-0.842057,0.127918,-0.115261,0.114808,-0.054559,-0.571772,0.224416,-0.433576,-1.747445,-83.821058,13.325823
05331,596698,9.768686,-0.512809,0.322132,-0.131810,-0.011154,-0.017657,-0.571251,0.221491,-0.435228,-1.721787,-83.828045,13.222103
05332,596798,9.658559,-0.042874,0.690797,-0.168424,-0.100028,-0.002461,-0.571749,0.221499,-0.435228,-1.812038,-83.885673,13.213855
05333,596898,9.538334,0.343478,0.906803,-0.214624,-0.155173,-0.012766,-0.575795,0.223885,-0.431603,-1.883478,-83.975075,13.160064
05334,596998,9.403418,0.553589,0.968098,-0.244151,-0.194411,-0.034765,-0.578818,0.220372,-0.430283,-1.857744,-84.087364,12.991564
05335,597098,9.059509,0.851156,1.043271,-0.251254,-0.205470,-0.059399,-0.583240,0.223577,-0.433131,-1.695177,-84.206396,12.681453
05336,597198,8.628791,1.049957,1.014436,-0.227647,-0.187752,-0.090507,-0.583818,0.220403,-0.429285,-1.327390,-84.315605,12.178740
05337,597298,8.207004,1.091425,0.917835,-0.180016,-0.169258,-0.121718,-0.582824,0.219391,-0.429335,-0.730510,-84.414116,11.473331
05338,597398,7.841875,0.993402,0.848544,-0.122624,-0.154857,-0.146221,-0.586373,0.220772,-0.425761,0.068844,-84.503607,10.597641
05339,597498,7.657877,0.747691,0.839367,-0.076018,-0.144312,-0.151382,-0.587363,0.218819,-0.426363,0.952827,-84.585780,9.663884
05340,597598,7.734296,0.418505,0.825502,-0.046964,-0.143347,-0.147234,-0.586891,0.219736,-0.424813,1.855726,-84.666066,8.727967
05341,597698,7.987915,0.175830,0.779264,-0.033350,-0.158788,-0.128844,-0.585916,0.218675,-0.423863,2.684428,-84.754276,7.874522
05342,597798,8.130265,0.002797,0.679920,-0.037846,-0.188039,-0.101624,-0.587423,0.216682,-0.423466,3.377637,-84.858996,7.154669
05343,597898,8.169278,0.027455,0.695017,-0.055058,-0.232869,-0.076988,-0.584916,0.220652,-0.423762,3.950551,-84.989528,6.545810
05344,597998,8.254368,0.189915,0.738777,-0.075589,-0.277984,-0.062929,-0.588012,0.217943,-0.418392,4.472781,-85.145911,5.976144
05345,598098,8.472181,0.466319,0.803977,-0.090794,-0.316831,-0.056044,-0.589504,0.218964,-0.418342,4.998388,-85.324348,5.394486
05346,598198,8.752119,0.825802,0.798741,-0.104744,-0.341496,-0.053072,-0.591062,0.219815,-0.414792,5.555724,-85.516551,4.773128
05347,598298,9.056032,1.153955,0.829473,-0.119601,-0.339926,-0.056169,-0.590085,0.219253,-0.413818,6.179363,-85.707156,4.076890
05348,598398,9.260326,1.312506,0.906858,-0.112481,-0.313390,-0.057219,-0.593108,0.220699,-0.411743,6.851405,-85.881972,3.336373
05349,598498,9.445089,1.299448,0.976414,-0.086924,-0.272210,-0.055039,-0.595151,0.218617,-0.409347,7.537989,-86.032878,2.596104
05350,598598,9.578624,1.185568,1.056766,-0.052006,-0.225126,-0.048759,-0.595133,0.218167,-0.410372,8.190252,-86.156930,1.910410
05351,598698,9.662398,0.985061,1.131408,-0.011159,-0.188590,-0.041893,-0.597148,0.216157,-0.409474,8.801797,-86.260334,1.289069
05352,598798,9.748746,0.785534,1.152729,0.026906,-0.165642,-0.033097,-0.600117,0.216751,-0.410449,9.358630,-86.351122,0.744478
05353,598898,9.762369,0.581519,1.142092,0.054200,-0.157455,-0.026440,-0.600121,0.214758,-0.410551,9.886023,-86.437585,0.245112
05354,598998,9.707749,0.503165,1.095457,0.055548,-0.157857,-0.018521,-0.599191,0.213578,-0.407103,10.366913,-86.524790,-0.206844
05355,599098,9.565123,0.595661,1.109033,0.033224,-0.145267,-0.012630,-0.599135,0.214220,-0.410076,10.780082,-86.605302,-0.603728
05356,599198,9.408576,0.779515,1.185651,0.000256,-0.117541,-0.010971,-0.603614,0.211326,-0.410730,11.124805,-86.670236,-0.950938
05357,599298,9.353596,0.818968,1.354453,-0.026858,-0.080284,0.003756,-0.602650,0.213705,-0.408603,11.249511,-86.715777,-1.093302
05358,599398,9.439531,0.690733,1.490721,-0.020716,-0.036698,0.037160,-0.599180,0.214598,-0.407552,10.965514,-86.740507,-0.822760
05359,599498,9.586974,0.470582,1.531267,0.008839,0.016837,0.077820,-0.598629,0.213240,-0.410627,10.192588,-86.739214,-0.045531
05360,599598,9.629165,0.216596,1.437722,0.026378,0.074233,0.114503,-0.600611,0.213794,-0.411102,8.976322,-86.708222,1.185850
05361,599698,9.525565,0.036228,1.381116,0.020348,0.124821,0.142085,-0.600065,0.214903,-0.413550,7.445546,-86.649115,2.728869
05362,599798,9.545436,0.141466,1.317399,-0.025041,0.162445,0.156779,-0.598534,0.214477,-0.415574,5.766421,-86.567077,4.394563
05363,599898,9.616879,0.438882,1.231023,-0.090798,0.192069,0.168765,-0.596545,0.217909,-0.414896,3.998608,-86.465780,6.111525
05364,599998,9.790781,0.888020,1.160340,-0.154976,0.225063,0.180081,-0.595542,0.215925,-0.415497,2.179695,-86.342737,7.843052
05365,600098,9.922019,1.214077,1.080244,-0.186256,0.255330,0.182544,-0.592500,0.215025,-0.418545,0.436659,-86.199073,9.480833
05366,600198,9.946306,1.369008,1.185674,-0.178886,0.280293,0.176434,-0.594411,0.218737,-0.422367,-1.123192,-86.038117,10.939525
05367,600298,10.050451,1.243913,1.568410,-0.146606,0.305614,0.172730,-0.592909,0.218239,-0.422892,-2.508103,-85.860244,12.241682
05368,600398,10.505894,0.847202,1.949083,-0.104151,0.341512,0.180600,-0.589846,0.218385,-0.426889,-3.799550,-85.659481,13.474828
05369,600498,11.293412,0.311046,2.049855,-0.066038,0.402813,0.207530,-0.590264,0.216118,-0.431515,-5.111767,-85.420474,14.751078
05370,600598,12.255769,-0.198970,1.916245,-0.029981,0.489550,0.235709,-0.588722,0.217211,-0.433962,-6.399678,-85.128207,16.024149
05371,600698,13.149620,-0.510206,1.472518,0.014177,0.574031,0.257816,-0.585097,0.216521,-0.441509,-7.585850,-84.784156,17.221090
05372,600798,13.895545,-0.606912,0.776760,0.044269,0.599556,0.272233,-0.586022,0.214736,-0.445610,-8.668810,-84.422451,18.332341
05373,600898,14.184205,-0.463144,-0.217789,0.035715,0.534319,0.267798,-0.584467,0.212390,-0.449235,-9.659035,-84.096236,19.346091
05374,600998,13.777537,-0.177202,-1.384287,-0.026277,0.374074,0.233169,-0.588374,0.214639,-0.453133,-10.554121,-83.862293,20.228931
05375,601098,12.744680,-0.080438,-2.174322,-0.097844,0.144178,0.182437,-0.587863,0.211191,-0.454310,-11.401610,-83.761841,21.022877
05376,601198,11.684338,-0.003450,-2.091937,-0.117587,-0.105377,0.145448,-0.590878,0.212163,-0.452760,-12.321831,-83.804394,21.878604
05377,601298,10.784713,0.179261,-1.681672,-0.114781,-0.315232,0.119682,-0.594819,0.210852,-0.455337,-13.376730,-83.965877,22.871191
05378,601398,9.813958,0.256776,-1.283457,-0.121382,-0.489513,0.085031,-0.594905,0.209639,-0.450890,-14.547841,-84.226992,23.976384
05379,601498,8.938089,0.186914,-0.786381,-0.130360,-0.635052,0.046811,-0.598918,0.209630,-0.449392,-15.848585,-84.571825,25.206049
05380,601598,8.438231,-0.024297,-0.080440,-0.101992,-0.696953,0.008274,-0.600540,0.210811,-0.442318,-17.183806,-84.954096,26.485901
05381,601698,8.167942,-0.315339,0.526787,-0.022481,-0.642671,-0.029224,-0.600596,0.210168,-0.439345,-18.315421,-85.310687,27.606400
05382,601798,7.958468,-0.626954,0.794753,0.110539,-0.508473,-0.063770,-0.598689,0.209422,-0.434871,-18.975264,-85.599208,28.329581
05383,601898,7.891118,-1.034015,0.676834,0.251860,-0.359611,-0.079502,-0.597229,0.205838,-0.433549,-19.139659,-85.809630,28.636880
05384,601998,8.097081,-1.300766,0.445618,0.352619,-0.207920,-0.072540,-0.598263,0.205259,-0.431576,-18.917056,-85.936597,28.613992
05385,602098,8.457895,-1.378238,0.217932,0.393316,-0.048964,-0.053044,-0.599274,0.202262,-0.431229,-18.396794,-85.973688,28.316081
05386,602198,8.907273,-1.353655,0.102647,0.390055,0.079247,-0.021967,-0.598250,0.196862,-0.433507,-17.790162,-85.935215,27.929710
05387,602298,9.526171,-1.183325,-0.047109,0.340443,0.137236,0.024011,-0.597757,0.193864,-0.433660,-17.431941,-85.856878,27.763857
05388,602398,10.428298,-0.902688,0.010609,0.239890,0.148241,0.087998,-0.601204,0.190552,-0.436337,-17.588003,-85.761479,28.055876
05389,602498,10.882005,-0.559131,0.110647,0.113478,0.137669,0.153657,-0.598681,0.193077,-0.437709,-18.302242,-85.660094,28.835036
05390,602598,11.380198,-0.380566,0.328525,0.019180,0.142394,0.217730,-0.597158,0.188167,-0.439962,-19.469662,-85.543320,30.014634
05391,602698,11.509894,-0.165159,0.341449,-0.075814,0.133035,0.250609,-0.600149,0.186719,-0.440039,-20.874336,-85.423084,31.377811
05392,602798,11.021628,-0.051037,0.249259,-0.133609,0.093387,0.234715,-0.598626,0.187266,-0.441513,-22.242043,-85.324765,32.670875
05393,602898,10.590101,-0.045355,0.226615,-0.158146,0.036345,0.187234,-0.597613,0.186302,-0.442563,-23.424600,-85.264835,33.764196
05394,602998,10.092539,-0.183987,0.338896,-0.154106,0.000524,0.131583,-0.597656,0.188175,-0.439962,-24.330266,-85.234959,34.582057
05395,603098,9.689566,-0.323270,0.569356,-0.133934,-0.015622,0.082021,-0.595185,0.187589,-0.438987,-24.952987,-85.224433,35.127610
05396,603198,9.340770,-0.487090,0.809674,-0.101326,-0.024756,0.043415,-0.596674,0.190602,-0.438835,-25.342358,-85.227642,35.457752
