SampleTimeFine,Gyr_X,Gyr_Y,Gyr_Z,Roll,Pitch,Yaw
329799,-0.000258,0.000582,0.002346,-0.175207,-0.537998,0.0
329899,0.002524,0.002623,0.0014,-0.174328,-0.536947,0.001004
329999,0.000986,0.001922,0.002176,-0.174381,-0.536444,0.002081
330099,0.001288,0.000712,0.002103,-0.17432,-0.536341,0.001924
330199,0.00275,0.000731,0.002135,-0.173383,-0.536085,0.002913
330299,0.001151,-0.000165,0.001285,-0.173543,-0.536955,0.003678
330399,-0.000329,0.000709,0.002084,-0.174387,-0.537145,0.004352
330499,0.000767,-0.000299,0.000735,-0.174582,-0.537717,0.003644
330599,0.002856,-0.000103,0.002901,-0.173632,-0.538078,0.004724
330699,-1.8e-05,0.00065,0.000363,-0.174242,-0.53818,0.004433
330799,0.000736,0.000743,0.001578,-0.174663,-0.538398,0.004008
330899,0.000339,0.001085,0.002639,-0.175343,-0.538273,0.003219
330999,0.001112,0.000459,0.002365,-0.175488,-0.538916,0.004049
331099,0.001026,0.003003,0.001672,-0.175577,-0.537599,0.004331
331199,0.000982,-0.000465,0.002474,-0.175689,-0.538215,0.004341
331299,0.002653,0.002039,0.002446,-0.174895,-0.537665,0.004203
331399,0.000976,0.001259,0.002641,-0.175062,-0.537443,0.004646
331499,0.001928,0.001984,0.002205,-0.174632,-0.536616,0.004515
331599,0.001238,0.000498,0.001561,-0.174916,-0.536955,0.00324
331699,0.002475,0.000513,0.002074,-0.174131,-0.536924,0.003352
331799,0.001185,0.001425,0.001234,-0.173918,-0.536779,0.005351
331899,0.001646,0.002372,0.002121,-0.173662,-0.535831,0.005851
331999,0.001343,0.000389,0.001114,-0.173934,-0.536359,0.00508
332099,0.002004,0.001069,0.00227,-0.173597,-0.536348,0.005375
332199,0.000538,5.9e-05,0.000631,-0.174337,-0.537345,0.004129
332299,0.002356,0.001456,0.001459,-0.173776,-0.536897,0.002992
332399,0.000625,-0.000303,0.00296,-0.174063,-0.537452,0.003908
332499,0.001997,1.5e-05,0.002653,-0.173734,-0.538203,0.003975
332599,0.000426,0.001073,0.003335,-0.174481,-0.538561,0.005624
332699,0.001924,3.9e-05,0.002168,-0.174239,-0.539391,0.006486
332799,0.000689,0.003202,0.003036,-0.174606,-0.537959,0.006877
332899,0.002465,0.000457,0.003767,-0.174083,-0.538312,0.007025
332999,0.000217,0.000972,0.0003,-0.174685,-0.538468,0.006355
333099,-0.000433,0.001443,0.0028,-0.175604,-0.537971,0.005461
333199,0.001916,0.003678,0.000806,-0.175346,-0.536581,0.004241
333299,0.001067,0.001854,0.00196,-0.175571,-0.53612,0.00339
333399,0.00057,0.001589,0.002203,-0.176027,-0.535996,0.004534
333499,-0.000348,-0.000105,0.001776,-0.176946,-0.536513,0.005101
333599,0.001301,0.000218,0.002126,-0.17689,-0.536937,0.006159
333699,0.001186,0.001363,0.002799,-0.177102,-0.536938,0.006768
333799,0.001694,-6e-06,0.002788,-0.177159,-0.537584,0.006241
333899,0.000471,0.000749,0.003233,-0.177733,-0.537769,0.00708
333999,0.001412,-8.9e-05,0.00085,-0.177444,-0.538179,0.007898
334099,0.00014,0.001554,0.000625,-0.17798,-0.537996,0.008949
334199,0.000468,0.00126,0.002898,-0.178362,-0.537838,0.009684
334299,0.00065,-0.000587,0.002399,-0.17879,-0.538876,0.009609
334399,0.000756,0.000283,0.000647,-0.179071,-0.539279,0.009883
334499,0.001539,0.00034,0.001693,-0.178873,-0.539669,0.010693
334599,0.003063,0.002514,0.002078,-0.177777,-0.538426,0.010142
334699,0.001485,0.000393,0.002681,-0.177807,-0.538952,0.01032
334799,-0.000367,0.000823,0.001645,-0.178539,-0.538813,0.01131
334899,0.003124,0.002414,0.001192,-0.177652,-0.538074,0.010783
334999,0.001689,0.000836,0.003716,-0.177573,-0.538347,0.012273
335099,0.001968,-0.00056,0.000708,-0.177145,-0.539009,0.012031
335199,0.00062,0.001059,0.001451,-0.177468,-0.538903,0.012759
335299,0.00076,0.001076,0.002484,-0.177835,-0.539129,0.01252
335399,0.001197,0.000445,0.001785,-0.177799,-0.539531,0.013223
335499,0.001342,0.00038,0.002687,-0.177898,-0.539993,0.013052
335599,0.001222,0.001612,0.001798,-0.178085,-0.539615,0.011447
335699,0.000605,-0.000147,0.001035,-0.178526,-0.540379,0.010943
335799,0.000565,0.001792,0.001387,-0.179184,-0.540306,0.009788
335899,0.00215,0.002565,0.00195,-0.178556,-0.539288,0.011298
335999,0.002012,0.000295,0.000873,-0.178087,-0.539417,0.009702
336099,0.001293,0.002953,0.001152,-0.178145,-0.538547,0.009904
336199,0.00239,0.000673,-1e-05,-0.177589,-0.538784,0.008912
336299,0.001982,0.001836,0.001225,-0.177398,-0.538648,0.007993
336399,0.000784,0.002701,0.002438,-0.177767,-0.538078,0.009223
336499,0.000694,0.00146,0.00049,-0.178055,-0.537529,0.008483
336599,0.000707,0.000221,0.000689,-0.178434,-0.538138,0.007787
336699,0.000885,0.000555,0.001359,-0.178814,-0.538511,0.006657
336799,0.000828,0.00102,0.00119,-0.179135,-0.538815,0.006562
336899,0.00135,0.001199,0.001868,-0.179241,-0.538751,0.005418
336999,0.001102,0.001452,0.000604,-0.179237,-0.538517,0.005207
337099,0.001066,0.000527,0.001972,-0.179404,-0.538901,0.00465
337199,0.001756,0.002716,0.001874,-0.179109,-0.538011,0.00493
337299,0.001486,0.000432,0.0027,-0.179079,-0.538451,0.00516
337399,0.001739,0.000434,0.002535,-0.178665,-0.538904,0.006927
337499,0.001491,0.001637,0.000475,-0.178729,-0.538705,0.005669
337599,0.000306,0.001846,0.002787,-0.179252,-0.538068,0.006153
337699,-0.00099,0.001492,0.003526,-0.180779,-0.538207,0.007906
337799,0.001587,-0.000199,0.001531,-0.180456,-0.538758,0.008185
337899,0.002844,0.004038,0.001815,-0.179408,-0.537149,0.009503
337999,0.001046,0.001566,0.002147,-0.179625,-0.536899,0.009388
338099,0.001491,0.002613,0.001316,-0.179748,-0.536409,0.008923
338199,0.000443,0.002591,0.002383,-0.180391,-0.535708,0.009024
338299,0.001555,0.00049,0.000884,-0.180105,-0.536094,0.009548
338399,0.001992,0.00173,0.002147,-0.179424,-0.535155,0.009783
338499,0.000598,0.002489,0.002571,-0.179939,-0.534038,0.008785
338599,0.001823,0.000145,0.001448,-0.179786,-0.534744,0.008364
338699,0.001922,0.001782,0.002113,-0.179751,-0.534905,0.008462
338799,0.000252,0.002442,0.003185,-0.180494,-0.534506,0.009927
338899,0.000871,0.001312,0.001688,-0.180701,-0.534341,0.010074
338999,0.001359,0.003586,0.001517,-0.18078,-0.5331,0.009627
339099,0.002687,0.000403,0.002306,-0.179864,-0.53324,0.010056
339199,0.002231,0.00233,0.000543,-0.179299,-0.53261,0.009852
339299,0.001194,0.002589,0.00087,-0.179554,-0.532165,0.009099
339399,0.002623,0.000794,0.001193,-0.178914,-0.532614,0.008467
339499,0.000932,0.001532,0.000641,-0.179137,-0.532275,0.007145
339599,0.001616,0.001519,0.001473,-0.178896,-0.532153,0.007777
339699,0.001622,0.001932,0.001708,-0.178842,-0.532037,0.0081
339799,0.001503,0.000436,0.002241,-0.178977,-0.532654,0.007612
339899,0.000814,0.000996,0.002712,-0.179447,-0.533007,0.007645
339999,0.00185,0.002165,0.002647,-0.179185,-0.532535,0.009042
340099,0.003093,0.000309,0.002494,-0.178181,-0.532873,0.009082
340199,0.00144,-0.000403,0.001543,-0.17786,-0.533667,0.009855
340299,0.002231,0.001226,0.002416,-0.17729,-0.533603,0.009753
340399,0.001636,0.001399,0.002032,-0.177308,-0.533622,0.008765
340499,-0.000195,0.003144,0.002485,-0.178508,-0.532939,0.008527
340599,0.001722,0.001818,0.000674,-0.178433,-0.532947,0.008343
340699,0.002835,0.000303,0.00247,-0.177572,-0.533269,0.008028
340799,0.001607,0.000953,0.000874,-0.177355,-0.5333,0.007972
340899,0.001954,0.002313,0.002892,-0.177215,-0.532961,0.008177
340999,0.000938,0.000614,0.002393,-0.177642,-0.53347,0.008054
341099,0.000353,0.001481,0.001681,-0.178415,-0.533605,0.008165
341199,0.000375,-0.001115,0.001454,-0.17903,-0.534907,0.00681
341299,0.002948,-0.000601,0.002204,-0.177846,-0.535519,0.007003
341399,0.000442,0.001073,0.001201,-0.178328,-0.535519,0.00686
341499,0.000882,0.000763,0.002655,-0.178565,-0.535712,0.007291
341599,0.002391,0.003889,0.003622,-0.178172,-0.534176,0.006941
341699,0.001258,0.002337,0.002888,-0.178501,-0.533881,0.007016
341799,0.000337,0.001997,0.002134,-0.179148,-0.533382,0.006858
341899,0.001696,0.000408,0.002391,-0.179089,-0.53406,0.008087
341999,0.001862,0.00203,0.001692,-0.178645,-0.533146,0.006852
342099,0.001531,0.002036,0.002003,-0.178577,-0.532646,0.00666
342199,-0.000735,0.000337,0.003127,-0.179603,-0.53272,0.007251
342299,0.001604,-0.000551,0.003281,-0.179785,-0.534217,0.007756
342399,0.001176,0.000971,0.002082,-0.179739,-0.534128,0.008427
342499,0.000598,0.000974,0.002,-0.180145,-0.534266,0.008785
342599,0.000853,0.000201,0.001566,-0.180362,-0.534565,0.008098
342699,0.001544,0.000588,0.001576,-0.180086,-0.534615,0.007919
342799,0.000315,0.0018,0.001995,-0.180621,-0.534494,0.009283
342899,0.001356,0.001853,0.00363,-0.180555,-0.53422,0.011423
342999,0.001683,0.000736,0.001588,-0.180356,-0.534157,0.010442
343099,0.002055,0.001907,0.002305,-0.179854,-0.533854,0.012062
343199,0.000198,0.000317,0.001946,-0.180435,-0.534186,0.012211
343299,0.00247,0.001517,0.002164,-0.179693,-0.533651,0.012078
343399,0.002744,0.000874,0.001228,-0.178844,-0.533712,0.01107
343499,0.000997,0.001776,0.002526,-0.179121,-0.533421,0.011199
343599,0.0022,0.000709,0.001612,-0.178578,-0.533733,0.011331
343699,0.000832,0.000323,0.002615,-0.178725,-0.53392,0.01245
343799,0.002067,0.001758,0.002454,-0.178407,-0.533779,0.012896
343899,0.001531,-0.000101,0.002868,-0.17823,-0.534353,0.013541
343999,0.00095,0.002736,0.002317,-0.178574,-0.533594,0.013344
344099,0.000574,0.001448,0.002252,-0.179255,-0.533777,0.013547
344199,0.002225,0.001997,0.002168,-0.178472,-0.53292,0.014827
344299,0.001615,0.003727,0.002816,-0.178405,-0.531595,0.014635
344399,0.000883,0.001916,0.002128,-0.178641,-0.531338,0.015136
344499,0.001418,0.000692,0.001187,-0.178751,-0.531778,0.014817
344599,0.000756,0.001116,0.001573,-0.17914,-0.531713,0.013738
344699,0.000956,0.000961,0.003064,-0.179628,-0.531906,0.013154
344799,0.001257,0.001906,0.002273,-0.179588,-0.531202,0.01303
344899,0.001517,-0.000622,0.001155,-0.179407,-0.532064,0.012409
344999,0.000712,-0.001863,0.002095,-0.179766,-0.533904,0.013314
345099,0.002536,0.001168,0.002683,-0.178856,-0.53349,0.013792
345199,0.004051,0.001034,0.002105,-0.177308,-0.533713,0.014723
345299,0.001392,0.000394,0.002282,-0.177363,-0.534213,0.015164
345399,0.000155,-2.9e-05,0.001069,-0.178013,-0.534869,0.015087
345499,0.001414,0.000115,0.001854,-0.177815,-0.535391,0.015421
345599,0.0036,0.001417,0.002687,-0.176396,-0.535093,0.016392
345699,0.001716,0.001735,0.001973,-0.17619,-0.534952,0.017252
345799,0.00086,-0.000982,0.000901,-0.176408,-0.536381,0.017745
345899,-0.000168,0.002271,0.002651,-0.177151,-0.535459,0.017597
345999,0.001411,0.002411,0.001222,-0.1771,-0.534644,0.016799
346099,0.00226,0.001745,0.000733,-0.176501,-0.534189,0.016452
346199,0.00234,0.001735,0.001679,-0.175963,-0.533865,0.016007
346299,-0.000245,0.001527,0.00069,-0.176779,-0.533403,0.015287
346399,0.000986,0.000386,0.002697,-0.176948,-0.533728,0.015832
346499,0.001055,0.001458,0.00293,-0.177258,-0.533663,0.016233
346599,0.00052,-0.000758,0.003181,-0.177704,-0.534736,0.016865
346699,0.002015,0.001754,0.002568,-0.177266,-0.534181,0.016991
346799,0.001808,0.002474,0.00067,-0.176933,-0.533182,0.016005
346899,0.003251,0.000371,0.003085,-0.175735,-0.533436,0.016657
346999,0.00069,0.000577,0.002066,-0.176217,-0.533875,0.016308
347099,0.00075,0.001096,0.001138,-0.176525,-0.534079,0.016648
347199,0.001248,0.00092,0.002515,-0.176603,-0.533936,0.015989
347299,0.001298,0.002076,0.002437,-0.176644,-0.53343,0.016934
347399,0.00207,0.001663,0.001813,-0.17613,-0.533062,0.016942
347499,0.001462,0.001262,0.002845,-0.176052,-0.533041,0.018133
347599,0.001466,-5e-06,0.001158,-0.175901,-0.533742,0.01833
347699,-0.000605,0.001206,0.00273,-0.177013,-0.533619,0.018911
347799,0.000137,0.000904,0.002138,-0.177653,-0.533612,0.018592
347899,0.001202,0.000851,0.001006,-0.177881,-0.533821,0.017643
347999,0.001159,0.000761,0.00211,-0.177886,-0.53378,0.016966
348099,0.002285,0.002168,0.001735,-0.177386,-0.533283,0.016645
348199,0.003306,0.001729,0.001524,-0.176237,-0.532978,0.016818
348299,0.001937,0.001693,0.001582,-0.17598,-0.532796,0.017153
348399,0.001966,0.000762,0.002893,-0.175701,-0.532923,0.016903
348499,0.001061,0.000934,0.001644,-0.175798,-0.533035,0.016407
348599,0.002289,0.00141,0.002407,-0.175303,-0.53281,0.01587
348699,0.001812,0.00083,0.002957,-0.175017,-0.532856,0.015796
348799,0.000949,0.000308,0.001414,-0.17548,-0.533716,0.016068
348899,0.00277,0.002781,0.002486,-0.174778,-0.533075,0.017278
348999,0.002434,0.0016,0.001107,-0.17408,-0.532897,0.017452
349099,0.002576,0.004453,0.002688,-0.173369,-0.531113,0.017889
349199,0.001661,0.002133,0.001972,-0.173179,-0.530316,0.016918
349299,0.000293,-0.001222,0.003683,-0.173735,-0.531665,0.018039
349399,0.000698,0.000797,0.003167,-0.174378,-0.53198,0.016835
349499,-0.000257,0.000674,0.001221,-0.175282,-0.532194,0.016252
349599,0.001039,0.001516,-0.000115,-0.175441,-0.532127,0.015613
349699,0.001453,0.001402,0.002003,-0.175207,-0.531533,0.014176
349799,0.000553,0.001736,0.001164,-0.175738,-0.531206,0.013227
349899,-1e-05,0.00114,0.001488,-0.176434,-0.531114,0.013135
349999,0.002773,0.000496,0.001285,-0.175505,-0.531408,0.012645
350099,0.002853,0.001666,0.002649,-0.174616,-0.530985,0.012404
350199,0.002456,0.001562,0.001772,-0.174028,-0.53074,0.011805
350299,0.001547,0.001422,0.00209,-0.173899,-0.530516,0.011827
350399,0.001727,0.001418,0.001675,-0.173655,-0.530261,0.011232
350499,0.000273,0.002147,0.000827,-0.174388,-0.529904,0.010973
350599,0.000971,0.003099,0.001755,-0.174603,-0.528813,0.010846
350699,9.3e-05,0.001858,0.001418,-0.175649,-0.528835,0.010659
350799,0.000636,0.001115,0.001106,-0.176188,-0.529017,0.010127
350899,0.002257,0.002146,0.000621,-0.175558,-0.528377,0.009603
350999,0.002371,0.002714,0.002342,-0.174866,-0.527376,0.009685
351099,0.000504,0.002013,0.002005,-0.175038,-0.526566,0.010154
351199,0.001497,0.002524,0.001018,-0.175104,-0.526039,0.009612
351299,0.002898,0.002463,0.002108,-0.17428,-0.525346,0.009522
351399,0.000742,0.000824,0.001314,-0.174458,-0.525396,0.00963
351499,0.001667,0.000365,0.001932,-0.174248,-0.525861,0.009937
351599,0.001515,0.001439,0.000508,-0.174113,-0.525696,0.009244
351699,-0.000434,0.002362,0.001752,-0.174822,-0.524713,0.009153
351799,0.002009,-0.00088,0.002771,-0.174388,-0.52575,0.009353
351899,0.001598,0.001123,0.001246,-0.174424,-0.525909,0.008485
351999,0.001005,0.000128,-9.5e-05,-0.174536,-0.526441,0.007666
352099,0.000844,0.000563,-0.000503,-0.174845,-0.526872,0.006365
352199,-0.00015,-0.002067,0.002207,-0.175675,-0.52864,0.006327
352299,0.002211,0.001795,0.002378,-0.175147,-0.528299,0.006773
352399,0.001874,0.001046,0.00133,-0.175223,-0.528606,0.005032
352499,0.002011,0.00016,0.001709,-0.174973,-0.529355,0.005069
352599,0.001591,0.0009,0.002423,-0.174744,-0.529281,0.004443
352699,-8.9e-05,0.001337,0.001282,-0.175238,-0.528983,0.004753
352799,0.002993,0.001189,0.002138,-0.174099,-0.528735,0.004938
352899,0.00113,0.000698,0.000549,-0.174091,-0.528744,0.00335
352999,0.000731,0.00027,0.003152,-0.174646,-0.529602,0.004701
353099,0.002342,0.003904,0.002524,-0.174012,-0.527899,0.004993
353199,0.002387,0.002017,0.003008,-0.173296,-0.527372,0.006054
353299,0.001421,0.001753,0.000672,-0.173115,-0.526733,0.004562
353399,0.000945,0.000132,0.00187,-0.17315,-0.527098,0.004567
353499,1.7e-05,0.000182,0.001759,-0.17381,-0.527512,0.004418
353599,0.002352,0.002116,0.001041,-0.173354,-0.527131,0.00368
353699,0.001747,-0.000736,0.001574,-0.173251,-0.528515,0.004216
353799,0.001837,4.8e-05,0.001482,-0.172927,-0.528946,0.003014
353899,0.000332,-0.000389,0.000349,-0.173261,-0.529688,0.002313
353999,4.3e-05,0.001074,0.002469,-0.174052,-0.529786,0.002476
354099,0.002152,0.000463,0.001659,-0.17352,-0.530206,0.002662
354199,0.000863,0.001521,0.001853,-0.173925,-0.530324,0.003203
354299,0.000958,0.001878,0.002182,-0.174224,-0.530114,0.00368
354399,0.003174,0.001145,0.001069,-0.173175,-0.530236,0.003523
354499,0.001332,0.000113,0.001399,-0.173082,-0.53072,0.003253
354599,0.001628,0.000355,0.001877,-0.17287,-0.531169,0.00332
354699,0.001123,0.00158,0.001713,-0.172977,-0.530838,0.002382
354799,0.001959,0.001871,0.00115,-0.172737,-0.530589,0.001706
354899,0.000234,-0.000233,0.001754,-0.173515,-0.531546,0.001454
354999,0.001118,0.002724,0.001801,-0.173738,-0.530721,0.00083
355099,0.001487,-0.000774,0.00273,-0.173431,-0.531594,0.001224
355199,0.00087,0.001478,0.002655,-0.173496,-0.53105,0.00067
355299,-7.9e-05,0.002596,0.001643,-0.17439,-0.530232,-0.000197
355399,0.00218,0.001789,0.001911,-0.174159,-0.53035,0.000715
355499,0.001278,0.002332,0.001643,-0.174533,-0.530122,0.000764
355599,0.002575,-0.000257,0.003293,-0.173913,-0.531031,0.001474
355699,0.002041,0.000547,0.003048,-0.173318,-0.531345,0.003152
355799,0.002638,0.000641,0.000406,-0.17262,-0.531627,0.001782
355899,-0.000236,0.001734,0.003054,-0.173682,-0.53139,0.001932
355999,0.001985,0.00363,-0.000412,-0.173378,-0.530064,0.000382
356099,0.00323,0.00376,0.002649,-0.172395,-0.528712,0.001029
356199,0.000648,0.001941,0.000813,-0.172871,-0.528373,0.000344
356299,0.001282,0.000351,0.001038,-0.172821,-0.528777,5.7e-05
356399,0.000872,-0.000452,0.001136,-0.172877,-0.529431,-0.000656
356499,0.002188,0.003028,0.00264,-0.172181,-0.528155,-0.000185
356599,0.00248,0.00358,0.000752,-0.171632,-0.526869,-0.000984
356699,0.001164,0.002948,0.001573,-0.171924,-0.525894,-0.002285
356799,0.000699,0.00018,0.001928,-0.172382,-0.526583,-0.002333
356899,0.000866,0.002305,0.002701,-0.172735,-0.526005,-0.002177
356999,0.003081,0.001409,0.000844,-0.171491,-0.525744,-0.002116
357099,-0.000465,0.001504,0.002527,-0.172632,-0.525818,-0.00115
357199,0.000933,0.000837,0.000522,-0.173067,-0.52623,-0.002297
357299,0.002756,0.001546,0.000531,-0.172408,-0.526325,-0.002498
357399,0.002809,0.000178,0.001145,-0.171406,-0.526827,-0.002632
357499,0.000863,1.4e-05,0.004744,-0.17148,-0.527188,-0.001376
357599,0.002433,8e-06,0.001443,-0.17062,-0.527679,-0.001704
357699,0.002261,0.002689,0.002169,-0.170144,-0.526883,-0.001546
357799,0.002837,-0.000571,0.003154,-0.169393,-0.527958,-0.001133
357899,0.000234,0.001668,0.001602,-0.170106,-0.527858,-0.000873
357999,0.001632,0.001129,0.002827,-0.169707,-0.527675,-0.000155
358099,0.000349,0.002263,0.002487,-0.17022,-0.526981,6.8e-05
358199,0.002584,0.000938,0.001025,-0.169263,-0.526804,-0.000824
358299,0.002123,0.001896,0.00239,-0.168765,-0.52634,-0.000698
358399,0.002882,0.001483,0.000689,-0.168011,-0.526284,-0.001556
358499,0.000894,0.001919,0.002501,-0.168297,-0.525837,-0.001494
358599,0.00318,0.001489,0.002784,-0.167334,-0.525677,-0.001458
358699,-0.000347,-0.000167,0.001318,-0.168152,-0.526398,-0.001261
358799,0.000606,0.000132,0.001158,-0.168468,-0.527031,-0.000971
358899,0.002509,0.0029,0.002452,-0.167999,-0.526231,-0.001074
358999,0.002042,0.00229,0.000829,-0.167755,-0.525993,-0.000532
359099,0.002295,0.00098,0.00194,-0.167177,-0.52597,-0.001408
359199,0.00188,0.001001,0.001617,-0.166867,-0.525972,-0.002333
359299,0.001358,0.002231,0.001135,-0.166861,-0.525456,-0.00235
359399,0.001046,0.0014,0.001816,-0.166827,-0.525154,-0.002259
359499,0.00199,0.001176,0.001271,-0.166304,-0.524931,-0.003079
359599,0.001856,0.001824,0.002872,-0.165942,-0.524604,-0.001954
359699,-0.000828,0.000499,0.001316,-0.167341,-0.525135,-0.002577
359799,-0.000184,0.004093,0.001782,-0.168421,-0.523782,-0.002171
359899,0.001297,0.002957,0.00145,-0.168502,-0.523041,-0.001611
359999,-1.5e-05,0.001476,0.002785,-0.169217,-0.522944,-0.000602
360099,0.002174,0.002516,0.00229,-0.168687,-0.522122,-0.00045
360199,0.000894,0.000779,0.002641,-0.168728,-0.52219,0.000237
360299,0.001621,0.001977,0.002532,-0.168532,-0.521649,0.000304
360399,0.002981,0.000693,0.00082,-0.16764,-0.521938,-0.000715
360499,0.002135,0.002245,0.004182,-0.167415,-0.521601,0.000703
360599,0.00209,0.001242,0.001753,-0.166809,-0.521312,5.6e-05
360699,0.001296,-0.000161,0.002428,-0.166883,-0.522293,0.000977
360799,0.002121,0.002137,0.002425,-0.166509,-0.52189,0.001482
360899,0.002238,0.002166,0.000888,-0.166151,-0.521638,0.001259
360999,0.001147,0.000699,0.002168,-0.166182,-0.521604,3.6e-05
361099,0.002242,-0.000159,0.001742,-0.165563,-0.522222,-0.000286
361199,0.002516,-0.000169,0.001097,-0.164734,-0.523056,0.000278
361299,2.8e-05,0.00296,0.001764,-0.165384,-0.521887,-0.000197
361399,0.002143,0.000343,0.002648,-0.165213,-0.522873,0.001271
361499,0.002359,0.001337,0.003137,-0.164583,-0.522801,0.002134
361599,0.002095,0.000821,0.001146,-0.164215,-0.523227,0.00214
361699,0.001098,0.001608,0.002414,-0.164283,-0.522924,0.002489
361799,0.001629,0.000562,0.000531,-0.163901,-0.523052,0.001499
361899,0.000825,0.002823,0.002657,-0.16424,-0.522149,0.001741
361999,0.000828,-0.000484,-6.1e-05,-0.164558,-0.523216,0.000673
362099,0.002197,0.001053,0.001745,-0.164302,-0.523642,0.000989
362199,0.001391,0.001864,0.001431,-0.164273,-0.523255,0.000376
362299,0.001165,0.003359,0.002551,-0.164453,-0.522185,0.00103
362399,0.001285,0.000665,0.00126,-0.1643,-0.522204,0.000238
362499,0.002241,0.000226,0.002556,-0.163677,-0.522717,0.000825
362599,0.001125,0.002746,0.001006,-0.163624,-0.52165,0.000195
362699,0.001732,0.001887,0.001,-0.163732,-0.521668,-0.000218
362799,0.002199,0.000504,0.001549,-0.163217,-0.521973,-0.000986
362899,-0.000962,0.001441,0.00244,-0.164443,-0.521768,-0.000486
362999,0.000686,0.001557,0.000679,-0.164769,-0.521538,-0.001172
363099,0.001534,0.002305,0.002226,-0.164462,-0.520776,-0.00067
363199,0.001726,0.00254,0.002469,-0.164387,-0.52005,-0.001321
363299,0.000975,0.000471,0.00114,-0.16485,-0.520817,-0.001618
363399,0.002078,0.002494,0.000765,-0.16459,-0.520339,-0.001857
363499,0.002811,0.001306,0.000405,-0.163668,-0.520224,-0.002634
363599,0.00131,0.001495,0.000114,-0.163309,-0.51977,-0.002993
363699,0.001494,0.000964,0.002263,-0.163208,-0.519975,-0.002514
363799,0.001859,0.000726,0.00248,-0.163003,-0.520466,-0.001866
363899,0.001838,0.002497,0.001665,-0.162808,-0.51982,-0.002205
363999,0.002713,0.000527,0.002361,-0.162018,-0.520167,-0.002042
364099,0.000191,0.000541,0.001517,-0.162696,-0.520736,-0.001479
364199,0.002322,0.001959,0.001957,-0.162026,-0.520323,-0.000722
364299,0.002174,0.001883,0.000402,-0.161483,-0.519928,-0.001246
364399,0.000491,-0.000574,0.000467,-0.162057,-0.521182,-0.001402
364499,0.000173,0.002616,0.002212,-0.16276,-0.520466,-0.000838
364599,0.000778,0.001223,0.00105,-0.163282,-0.520744,-0.0013
364699,0.001434,0.002318,0.001358,-0.163146,-0.520021,-0.001526
364799,0.000844,-0.000267,0.002431,-0.163411,-0.521039,-0.000196
364899,0.001221,0.0006,0.002317,-0.16338,-0.521095,-0.000804
364999,0.001954,0.001913,0.002936,-0.163051,-0.520874,0.000248
365099,0.001561,0.002687,0.002598,-0.163106,-0.520345,0.001162
365199,-0.000203,0.001365,0.001189,-0.164055,-0.520285,0.000461
365299,0.001728,-0.001822,0.001791,-0.163779,-0.522086,0.001076
365399,0.002065,0.002442,0.003058,-0.163423,-0.521484,0.001877
365499,0.002575,0.001158,0.002698,-0.162688,-0.52146,0.0022
365599,0.001501,0.002509,0.002707,-0.162606,-0.520675,0.001931
365699,0.000377,0.000986,0.003039,-0.163253,-0.520835,0.002141
365799,0.000896,0.000591,0.00205,-0.163657,-0.521429,0.002172
365899,0.001501,0.001715,0.00152,-0.163559,-0.521122,0.00172
365999,0.00103,0.002802,0.002298,-0.163574,-0.520084,0.002399
366099,0.002276,0.000807,0.002981,-0.163175,-0.52048,0.002969
366199,0.00189,0.000311,0.001446,-0.162906,-0.520966,0.002006
366299,0.000499,0.000735,0.002877,-0.163666,-0.521734,0.003442
366399,0.001228,0.001138,0.002947,-0.163765,-0.521804,0.003888
366499,0.000391,0.001653,0.002627,-0.164291,-0.521525,0.004493
366599,0.002384,0.001541,0.000175,-0.163508,-0.521181,0.003613
366699,0.001245,0.003467,0.001292,-0.163605,-0.519916,0.00281
366799,0.002388,0.002917,0.001177,-0.163184,-0.51927,0.003092
366899,0.000864,0.001542,0.001904,-0.163581,-0.519288,0.003421
366999,0.000832,0.001661,0.002631,-0.164052,-0.519223,0.004013
367099,0.001561,-0.000186,0.000796,-0.163836,-0.519937,0.003173
367199,0.001836,0.00211,0.001768,-0.163336,-0.519193,0.003081
367299,0.003691,0.000962,0.000404,-0.161869,-0.519257,0.002475
367399,0.002521,0.000765,0.00122,-0.161276,-0.519675,0.002014
367499,0.001555,0.000433,0.001854,-0.161297,-0.520283,0.001949
367599,0.000586,0.001619,0.001856,-0.161761,-0.520139,0.002348
367699,-0.0001,0.000442,0.002215,-0.162444,-0.520461,0.002876
367799,0.003217,0.002135,0.002992,-0.161297,-0.519914,0.003696
367899,-6.1e-05,0.000434,0.001958,-0.162223,-0.52053,0.003688
367999,0.001113,0.001933,0.001893,-0.162279,-0.520165,0.004286
368099,0.001631,-0.00011,0.002361,-0.1622,-0.521027,0.004566
368199,0.000743,0.000989,0.001722,-0.162695,-0.521424,0.004719
368299,0.002306,0.001216,0.002555,-0.162058,-0.521407,0.005962
368399,0.000497,0.002525,-0.000222,-0.162514,-0.520618,0.004509
368499,0.000842,0.001486,0.002402,-0.162735,-0.520345,0.003699
368599,0.001364,-0.000522,0.002998,-0.162898,-0.52161,0.004454
368699,0.002173,-0.000658,0.002608,-0.162545,-0.523051,0.006017
368799,0.000574,-0.000665,0.003236,-0.163003,-0.524228,0.007027
368899,0.000851,-0.000242,0.001675,-0.163261,-0.52501,0.006633
368999,0.001042,-0.000706,0.000747,-0.163341,-0.52596,0.005896
369099,0.002672,0.000752,0.00387,-0.162628,-0.526267,0.006565
369199,0.002186,-0.001368,0.001229,-0.162196,-0.527884,0.006524
369299,-0.000945,0.001143,0.001028,-0.163575,-0.528132,0.006271
369399,0.001358,0.00131,0.001062,-0.163599,-0.528068,0.005492
369499,0.001241,0.001048,0.002425,-0.163715,-0.52831,0.005974
369599,0.001023,0.002682,0.002413,-0.163761,-0.52731,0.006438
369699,0.002001,0.001011,0.002151,-0.163318,-0.52736,0.006223
369799,0.001165,0.001414,0.000576,-0.163478,-0.527375,0.005477
369899,0.00044,0.001401,0.002492,-0.164055,-0.527415,0.006003
369999,0.001893,0.003179,0.001574,-0.163901,-0.526478,0.005147
370099,0.003726,0.000609,0.002684,-0.162594,-0.526925,0.005219
370199,0.000263,0.000938,0.00237,-0.16304,-0.526896,0.005046
370299,0.002376,0.001744,0.001888,-0.162393,-0.526608,0.004967
370399,0.00071,0.002084,0.000781,-0.162926,-0.526312,0.004213
370499,0.001499,0.001677,0.001008,-0.162851,-0.526088,0.003408
370599,0.002079,0.001587,0.001811,-0.16236,-0.525886,0.003765
370699,-0.000225,0.002828,0.001002,-0.163066,-0.524827,0.003526
370799,0.000637,0.001382,0.00171,-0.16333,-0.52472,0.004385
370899,0.00144,0.001722,0.001918,-0.163246,-0.524434,0.004342
370999,0.002437,0.001448,0.001579,-0.162677,-0.524387,0.003614
371099,0.001946,0.001253,0.002015,-0.162319,-0.524363,0.003632
371199,0.001661,-0.000745,0.001726,-0.162086,-0.52547,0.003762
371299,0.000525,-0.000443,0.001006,-0.162531,-0.526451,0.003574
371399,0.001934,0.001916,0.001868,-0.162152,-0.526024,0.003458
371499,0.002302,0.002266,0.001462,-0.161599,-0.52541,0.003183
371599,0.001705,0.00176,0.002594,-0.161371,-0.525236,0.004662
371699,0.001558,0.001277,0.00184,-0.161284,-0.525266,0.004382
371799,0.002447,0.000167,0.004184,-0.16081,-0.526146,0.005956
371899,0.001584,0.001341,0.004561,-0.160598,-0.525942,0.00722
371999,0.00022,0.001461,0.003664,-0.161057,-0.525549,0.00786
372099,0.001526,0.000669,0.00252,-0.160911,-0.525858,0.008277
372199,0.00109,0.001572,0.001325,-0.161212,-0.525914,0.008394
372299,0.000738,0.000546,0.002453,-0.16161,-0.526286,0.008457
372399,0.00016,0.001287,0.003046,-0.16242,-0.526418,0.009107
372499,-0.000902,0.001083,0.002795,-0.163893,-0.526746,0.009601
372599,0.00152,0.002721,0.001757,-0.163649,-0.525833,0.009696
372699,0.001761,0.001418,0.003349,-0.163369,-0.525694,0.010753
372799,0.001144,0.000174,0.002889,-0.163412,-0.526299,0.011303
372899,0.001461,0.001968,0.002112,-0.163318,-0.525966,0.011736
372999,0.000654,0.00147,0.001444,-0.163727,-0.525757,0.010395
373099,0.000884,0.000643,0.003685,-0.164082,-0.526292,0.011167
373199,0.001297,0.002172,0.002936,-0.163976,-0.525641,0.012082
373299,0.001079,0.001391,0.002833,-0.164182,-0.525673,0.012939
373399,0.001035,0.000136,0.002219,-0.164611,-0.526733,0.013681
373499,0.001994,0.002405,0.002405,-0.164219,-0.526145,0.014649
373599,0.002271,-0.000182,0.002202,-0.163612,-0.526903,0.014589
373699,0.002809,0.000617,0.001907,-0.162676,-0.527101,0.014098
373799,0.00297,0.002552,0.002905,-0.161601,-0.526208,0.014597
373899,0.002005,0.002878,0.001659,-0.161209,-0.525251,0.014381
373999,0.002067,0.002974,0.001404,-0.160771,-0.524181,0.013619
374099,0.001284,0.002129,0.001759,-0.160835,-0.523698,0.013229
374199,0.001213,0.00117,0.002653,-0.160836,-0.523679,0.013255
374299,0.000147,0.000845,0.001723,-0.161563,-0.523924,0.01286
374399,0.002058,0.001275,0.001157,-0.161139,-0.523975,0.01293
374499,0.000218,0.000837,0.000368,-0.161707,-0.524109,0.011306
374599,0.002652,0.000159,0.002318,-0.160932,-0.524755,0.011814
374699,0.001189,0.001512,0.001877,-0.16108,-0.524739,0.012314
374799,0.000348,0.000419,0.000696,-0.161388,-0.524817,0.011159
374899,0.00209,0.002866,0.003343,-0.160901,-0.523854,0.011967
374999,0.001455,0.000502,0.002098,-0.160606,-0.524002,0.011731
375099,0.001287,0.000364,0.000239,-0.160733,-0.524702,0.010934
375199,0.00239,0.000514,0.001799,-0.160174,-0.525301,0.011401
375299,0.001082,0.000915,0.000285,-0.160434,-0.52582,0.010933
375399,0.0011,0.000686,0.002187,-0.160472,-0.525945,0.010388
375499,0.000587,0.003181,0.002924,-0.160812,-0.524837,0.011437
375599,0.000479,0.002229,0.003131,-0.161386,-0.524417,0.012517
375699,-0.000759,0.001107,0.001244,-0.162634,-0.52459,0.012103
375799,0.000617,5.4e-05,0.000561,-0.163113,-0.525432,0.011566
375899,0.000454,0.001744,0.00275,-0.163808,-0.525545,0.01317
375999,0.000477,0.002715,0.001754,-0.164285,-0.524716,0.012676
376099,0.001197,0.000398,0.000956,-0.164382,-0.525339,0.01241
376199,0.001006,0.002592,0.000121,-0.164593,-0.524622,0.011115
376299,0.001688,0.001226,0.002011,-0.164406,-0.524678,0.011047
376399,0.001344,0.00141,0.002511,-0.164541,-0.524814,0.011278
376499,0.000888,0.001351,0.002676,-0.164889,-0.524995,0.012037
376599,0.000571,0.003046,0.002492,-0.165269,-0.523956,0.012398
376699,0.001975,0.000652,0.003715,-0.164957,-0.524352,0.013007
376799,0.001585,0.002787,0.001146,-0.164761,-0.523589,0.013418
376899,0.002163,0.001053,0.001216,-0.164403,-0.523865,0.013361
376999,0.00259,0.000444,0.002042,-0.163713,-0.524444,0.013535
377099,0.001668,0.000775,0.003589,-0.163798,-0.52504,0.014159
377199,0.00203,0.000562,0.002643,-0.163419,-0.525508,0.014811
377299,0.002302,0.000671,0.000536,-0.162751,-0.525733,0.014264
377399,0.002343,0.002153,0.001677,-0.162087,-0.525176,0.014252
377499,0.002377,0.001252,0.002229,-0.161263,-0.524981,0.015057
377599,0.000521,-0.000281,0.002257,-0.161702,-0.525878,0.014774
377699,-0.000159,0.002348,0.002259,-0.162629,-0.525307,0.01442
377799,0.002245,-0.000132,0.002427,-0.16236,-0.526481,0.014913
377899,0.002502,0.000405,0.002922,-0.161534,-0.526822,0.015557
377999,0.00091,0.002202,0.002137,-0.161797,-0.526301,0.015348
378099,0.001756,0.000252,0.00074,-0.161644,-0.52706,0.014776
378199,0.002231,2.3e-05,0.001674,-0.16124,-0.527986,0.014976
378299,0.000759,0.000423,0.001667,-0.16158,-0.52845,0.014106
378399,0.002825,0.000137,0.001086,-0.160708,-0.529095,0.01358
378499,0.000849,0.000185,0.002324,-0.161029,-0.529901,0.0147
378599,0.00111,-0.001644,0.00271,-0.161098,-0.531492,0.01533
378699,0.00241,0.001673,0.000315,-0.160525,-0.53134,0.014192
378799,0.001639,-0.000536,0.001095,-0.160347,-0.532401,0.013156
378899,0.001085,0.002277,0.002195,-0.1605,-0.531764,0.01258
378999,0.002439,0.002533,0.001585,-0.159692,-0.530826,0.012386
379099,0.001047,0.000618,0.001422,-0.159775,-0.531165,0.012243
379199,0.00145,0.001207,0.000942,-0.159565,-0.531109,0.012008
379299,0.001691,0.001627,0.001912,-0.159265,-0.530785,0.011349
379399,0.000601,0.002158,0.001063,-0.159652,-0.530279,0.010788
379499,0.00151,-9.8e-05,0.001705,-0.159659,-0.531236,0.011005
379599,0.002191,0.002757,0.002312,-0.159137,-0.530358,0.011481
379699,0.000874,0.001154,0.001534,-0.159481,-0.530535,0.011338
379799,0.000289,0.00068,0.001908,-0.16004,-0.530896,0.011774
379899,0.000326,-0.000939,0.001117,-0.160566,-0.532139,0.011554
379999,0.001115,0.002504,0.002027,-0.160983,-0.531806,0.011451
380099,0.002727,0.00101,0.002285,-0.160468,-0.532446,0.012382
380199,0.000436,-8.8e-05,0.001956,-0.161029,-0.533359,0.012567
380299,0.000107,0.000186,0.001245,-0.161682,-0.534076,0.01317
380399,0.002013,0.002017,0.002315,-0.161163,-0.533478,0.01341
380499,0.00326,0.002047,0.001425,-0.159981,-0.532994,0.013672
380599,0.000868,0.001969,0.001235,-0.160234,-0.532561,0.012706
380699,0.001427,-0.000181,0.000878,-0.160315,-0.533616,0.011996
380799,0.002351,0.000329,0.001052,-0.159765,-0.534296,0.011602
380899,0.002856,0.002186,0.001802,-0.158753,-0.53361,0.011501
380999,0.003736,0.002372,0.004349,-0.157296,-0.532856,0.013
381099,0.0002,0.000991,0.001446,-0.157926,-0.532959,0.012136
381199,0.002852,0.001921,0.00206,-0.157149,-0.532732,0.012137
381299,0.001,0.000994,0.001192,-0.157334,-0.532903,0.011345
381399,0.001962,0.001833,0.000574,-0.157049,-0.532783,0.01102
381499,0.001237,0.002184,0.002052,-0.156998,-0.532166,0.011327
381599,0.001943,0.000858,0.001465,-0.156629,-0.532428,0.011012
381699,0.002715,0.001116,0.00215,-0.155792,-0.532496,0.010991
381799,0.000573,-0.000399,0.002499,-0.156282,-0.533528,0.01112
381899,0.00272,-9.4e-05,0.002195,-0.155732,-0.534709,0.012435
381999,0.002308,0.000255,0.002686,-0.155271,-0.535493,0.013131
382099,0.000843,-0.000184,0.001909,-0.155477,-0.536298,0.013037
382199,0.001655,0.00138,0.00187,-0.155119,-0.536096,0.013181
382299,0.001976,0.001474,0.00124,-0.154825,-0.536128,0.012625
382399,0.000867,0.000662,0.001399,-0.155111,-0.536563,0.01237
382499,0.000813,0.001771,0.001675,-0.155624,-0.536653,0.012881
382599,7.4e-05,0.001377,0.002256,-0.15654,-0.536884,0.012877
382699,0.001122,0.00346,0.00247,-0.156667,-0.53571,0.013764
382799,0.003875,0.000135,0.00373,-0.155141,-0.536349,0.015275
382899,0.00219,0.001722,0.001944,-0.1549,-0.536492,0.015423
382999,0.001261,-0.000369,0.002657,-0.155005,-0.537504,0.015017
383099,0.001851,0.001599,0.001273,-0.154644,-0.537202,0.014486
383199,0.002762,0.001304,0.002295,-0.153941,-0.537414,0.014807
383299,-0.000228,0.002014,0.001791,-0.154622,-0.536765,0.015821
383399,4.2e-05,0.001149,0.002703,-0.155169,-0.53652,0.015279
383499,0.002269,-6e-05,0.003348,-0.154622,-0.537248,0.01585
383599,0.00014,0.002005,0.00143,-0.155404,-0.536971,0.014896
383699,0.001125,0.000547,0.002741,-0.15565,-0.537576,0.015557
383799,0.000357,0.000651,0.001385,-0.156138,-0.537879,0.015407
383899,0.00226,0.002722,0.002715,-0.155514,-0.536952,0.015917
383999,0.002752,-0.000122,0.001311,-0.154631,-0.53767,0.015749
384099,0.000845,0.001467,0.000449,-0.154942,-0.537646,0.014828
384199,0.00127,0.000301,0.001234,-0.15512,-0.538423,0.014123
384299,0.000974,-1.6e-05,0.002583,-0.155353,-0.539202,0.013795
384399,0.002344,0.002508,0.002065,-0.154843,-0.53862,0.013904
384499,0.000428,0.003065,0.001468,-0.15531,-0.537562,0.013866
384599,0.00356,0.000885,0.00161,-0.153896,-0.537684,0.01437
384699,0.001122,-9.4e-05,0.00193,-0.153876,-0.538332,0.013482
384799,0.000823,0.001705,0.002371,-0.154348,-0.538376,0.01354
384899,-0.000146,0.001521,0.001486,-0.155215,-0.538342,0.01374
384999,0.002505,0.000411,0.001555,-0.154412,-0.538745,0.014437
385099,0.000796,0.001074,0.001725,-0.154765,-0.538954,0.015266
385199,0.001816,0.002361,0.003082,-0.154319,-0.538173,0.016298
385299,0.000103,0.000901,0.001439,-0.154996,-0.538383,0.015733
385399,-6.3e-05,-0.00051,0.001203,-0.155961,-0.539664,0.01508
385499,-0.000266,0.001593,0.002217,-0.156896,-0.539554,0.015699
385599,0.001733,0.002068,0.002225,-0.156577,-0.539054,0.015916
385699,0.002242,0.000395,0.002905,-0.155952,-0.539414,0.016343
385799,0.001184,0.000796,0.002698,-0.155972,-0.539673,0.016694
385899,0.001526,0.001247,0.002457,-0.155814,-0.53971,0.017166
385999,0.000973,0.004121,0.002244,-0.156086,-0.538171,0.016547
386099,0.000218,0.001512,0.002634,-0.156721,-0.538078,0.0171
386199,0.00175,-0.000395,9e-06,-0.156251,-0.538736,0.015687
386299,0.000495,0.002277,0.00214,-0.156586,-0.53797,0.016118
386399,0.000576,0.002045,0.001891,-0.156944,-0.537508,0.016601
386499,0.002675,0.001192,0.000907,-0.156137,-0.537589,0.016468
386599,0.001768,0.00106,0.002803,-0.15601,-0.537925,0.016729
386699,0.001851,0.001252,0.001763,-0.155718,-0.53796,0.01627
386799,0.003061,0.000262,0.001765,-0.154736,-0.538624,0.01657
386899,0.001222,0.000152,0.002511,-0.154776,-0.53923,0.016642
386999,0.001498,0.000655,0.001452,-0.154648,-0.539553,0.016483
387099,0.002323,0.000447,0.001926,-0.154067,-0.540057,0.016013
387199,0.001968,0.002305,0.002117,-0.153704,-0.539537,0.016287
387299,0.002659,0.00152,0.001709,-0.152905,-0.539401,0.016203
387399,0.002425,0.001735,0.003039,-0.15239,-0.539328,0.016961
387499,0.000639,0.002431,0.002099,-0.152638,-0.538497,0.017131
387599,0.001175,0.001983,0.001972,-0.152673,-0.538019,0.017167
387699,0.000334,0.002106,0.00335,-0.153139,-0.53735,0.016644
387799,0.001066,0.003179,0.001681,-0.153162,-0.536022,0.015513
387899,0.002752,0.001496,0.002631,-0.152348,-0.535933,0.015524
387999,0.001804,0.001135,0.000874,-0.151978,-0.535927,0.014952
388099,9.7e-05,0.000832,0.003488,-0.152772,-0.536364,0.016288
388199,0.00167,0.002653,0.00127,-0.152534,-0.535576,0.01577
388299,0.00011,0.000415,0.000454,-0.153467,-0.536445,0.01535
388399,0.001666,0.002342,6.4e-05,-0.153184,-0.53577,0.014011
388499,-0.000601,-0.001257,0.000603,-0.154405,-0.537421,0.012934
388599,0.002455,0.001406,0.001873,-0.153742,-0.537372,0.012323
388699,0.002507,0.000328,0.004224,-0.152987,-0.537846,0.013367
388799,0.000294,0.000986,0.002775,-0.153486,-0.537933,0.013394
388899,0.000678,0.000623,0.003482,-0.15373,-0.538116,0.013751
388999,0.00238,0.002432,0.002817,-0.153172,-0.537476,0.013735
389099,0.000441,0.000539,0.002675,-0.15377,-0.538027,0.014372
389199,0.0012,0.00016,0.001921,-0.15383,-0.538674,0.01429
389299,0.002277,0.000319,0.0018,-0.153148,-0.539063,0.014058
389399,0.002413,0.002681,0.001468,-0.152413,-0.53813,0.013234
389499,0.002452,0.001375,0.002028,-0.151777,-0.538103,0.013253
389599,0.002818,-0.000695,0.00368,-0.15093,-0.539308,0.014824
389699,0.000854,0.001165,0.001639,-0.151217,-0.539451,0.014444
389799,0.00168,0.000752,0.00244,-0.150936,-0.539651,0.014385
389899,0.002099,0.002314,0.000229,-0.150312,-0.538807,0.012677
389999,0.001589,0.000999,0.002891,-0.150139,-0.538939,0.012909
390099,0.000995,0.001574,0.003033,-0.150244,-0.538662,0.013318
390199,0.000881,0.0013,0.002227,-0.150609,-0.538794,0.012885
390299,0.002303,0.001281,0.001562,-0.15011,-0.538908,0.012618
390399,0.001488,0.002844,0.00283,-0.149974,-0.537969,0.013075
390499,0.00217,0.000553,0.002559,-0.149264,-0.538094,0.01277
390599,-0.000456,-0.000372,0.00198,-0.150168,-0.538903,0.01238
390699,0.000797,0.000927,0.001252,-0.150431,-0.539087,0.012216
390799,0.001488,0.001202,0.001301,-0.150443,-0.539367,0.01278
390899,0.003678,0.001,0.001459,-0.149172,-0.539661,0.012479
390999,0.00123,0.001695,0.002697,-0.149239,-0.539479,0.013024
391099,-2e-06,0.001366,0.000449,-0.149891,-0.539315,0.01178
391199,0.002984,0.000829,0.000899,-0.148991,-0.539648,0.010801
391299,0.000502,0.001102,0.002705,-0.149349,-0.539613,0.011047
391399,0.002442,0.000627,0.001204,-0.148724,-0.540023,0.010428
391499,0.00147,0.001315,0.001744,-0.148611,-0.539963,0.009788
391599,0.001357,0.002888,0.001806,-0.148644,-0.539135,0.009829
391699,0.00054,-0.00061,0.001871,-0.148956,-0.540079,0.009779
391799,0.001365,-0.000118,0.000541,-0.148734,-0.540656,0.008697
391899,0.001041,0.002198,0.003213,-0.149061,-0.54036,0.009667
391999,0.002976,0.000203,0.001728,-0.148174,-0.541108,0.010414
392099,0.000412,6.5e-05,0.000552,-0.148806,-0.541999,0.009792
392199,0.002964,0.001166,0.000888,-0.147743,-0.541913,0.008797
392299,0.002207,0.000885,0.001552,-0.146998,-0.541869,0.008599
392399,0.002572,0.000731,0.001964,-0.146201,-0.542086,0.008247
392499,0.003239,0.00078,0.002178,-0.145121,-0.542395,0.008258
392599,0.00114,0.002583,0.000736,-0.145304,-0.541839,0.008333
392699,0.002071,0.000843,0.001681,-0.144726,-0.541945,0.008082
392799,0.001804,0.000571,0.002806,-0.144478,-0.542445,0.009404
392899,0.001495,0.00232,0.001777,-0.144413,-0.541983,0.010414
392999,0.001887,0.001843,0.002843,-0.143968,-0.541534,0.01084
393099,0.000808,0.00187,0.002949,-0.144212,-0.541176,0.011592
393199,-0.000181,0.002589,0.001901,-0.145178,-0.540621,0.012107
393299,0.001075,0.001095,0.002128,-0.14544,-0.540957,0.013263
393399,0.00207,0.000857,0.001208,-0.144912,-0.541072,0.012272
393499,0.001102,0.001629,0.002157,-0.144929,-0.540769,0.012638
393599,0.002059,0.001662,0.001634,-0.144439,-0.540541,0.012951
393699,0.000741,0.001146,0.000792,-0.144837,-0.540747,0.012631
393799,0.000603,-6.7e-05,0.001015,-0.145343,-0.541656,0.01216
393899,0.001639,0.003244,0.001946,-0.145323,-0.540778,0.012488
393999,0.001644,0.001366,0.002282,-0.145112,-0.540723,0.012874
394099,0.002426,0.001599,0.002842,-0.144434,-0.54049,0.013475
394199,0.001253,0.001398,0.001612,-0.144331,-0.540282,0.013149
394299,0.000619,0.001268,0.000394,-0.144781,-0.540382,0.01207
394399,0.000699,-0.000496,0.002576,-0.145331,-0.541668,0.012054
394499,-0.000197,0.001485,0.001479,-0.146062,-0.541358,0.011075
394599,0.003357,0.001649,0.002074,-0.144897,-0.541138,0.010858
394699,0.001591,6.7e-05,-0.000476,-0.144645,-0.541733,0.009545
394799,0.000207,0.003262,0.000505,-0.145097,-0.540377,0.007967
394899,0.000974,0.000562,0.002904,-0.145203,-0.540664,0.008254
394999,0.001366,0.002678,0.001412,-0.145264,-0.540009,0.008339
395099,0.000548,0.000419,0.002729,-0.145796,-0.540663,0.009652
395199,0.002742,0.003221,0.001459,-0.144861,-0.539417,0.009385
395299,0.002584,-0.000608,0.001473,-0.143899,-0.540202,0.009299
395399,0.001357,0.000342,0.002301,-0.14388,-0.540763,0.009336
395499,0.002478,0.000494,0.001634,-0.143262,-0.541267,0.008768
395599,0.002035,0.000452,0.002609,-0.143021,-0.541969,0.009331
395699,0.001886,0.000474,0.002094,-0.142691,-0.542428,0.00946
395799,0.001284,0.001501,0.001459,-0.142494,-0.541975,0.008294
395899,0.001577,0.00257,0.002839,-0.142356,-0.541257,0.008904
395999,-0.000425,0.001806,0.002012,-0.143342,-0.541004,0.009539
396099,0.000747,0.001744,0.001366,-0.143766,-0.540861,0.008866
396199,0.001574,0.000375,0.002881,-0.143761,-0.541536,0.009143
396299,0.002012,0.002654,0.003454,-0.143395,-0.54077,0.009427
396399,0.001856,0.000314,0.000915,-0.143005,-0.541265,0.009151
396499,0.00071,0.001729,0.001807,-0.143183,-0.540787,0.008578
396599,0.002775,0.000528,0.001614,-0.142199,-0.54106,0.0087
396699,0.001509,0.001284,0.002601,-0.142002,-0.540951,0.008991
396799,0.000566,-0.000813,0.004,-0.142662,-0.542456,0.010593
396899,0.000562,0.000705,0.002668,-0.143228,-0.543003,0.011991
396999,-0.000171,-8.9e-05,0.001395,-0.144024,-0.543664,0.010887
397099,0.003529,0.001,0.001501,-0.142629,-0.543688,0.010358
397199,0.002314,0.003674,0.001705,-0.141889,-0.542081,0.00954
397299,0.000647,0.001796,0.000948,-0.142333,-0.541888,0.009256
397399,-0.000329,0.001057,0.002881,-0.143466,-0.542254,0.009528
397499,0.000665,0.000363,0.00265,-0.14399,-0.542968,0.009923
397599,0.002466,0.002362,0.000754,-0.143371,-0.54243,0.00949
397699,0.001927,0.002768,0.002423,-0.142933,-0.541455,0.009499
397799,0.002065,0.001841,-0.001054,-0.142449,-0.541173,0.008625
397899,0.001424,0.000696,0.001944,-0.142424,-0.541536,0.00795
397999,0.00136,-0.00107,0.002668,-0.142428,-0.542959,0.008521
398099,0.001527,0.000416,0.001047,-0.142497,-0.543731,0.008484
398199,0.001382,0.001033,0.001514,-0.142498,-0.54394,0.008587
398299,0.002084,0.000762,0.002265,-0.142,-0.544176,0.008686
398399,0.00303,0.000869,-0.00037,-0.140844,-0.544188,0.006855
398499,0.002319,0.001159,0.002071,-0.140367,-0.544417,0.006883
398599,0.001555,0.001735,0.002697,-0.140375,-0.544377,0.007674
398699,-0.000271,-0.000917,0.001287,-0.14127,-0.545603,0.007255
398799,0.001291,-0.001238,0.002277,-0.141191,-0.546886,0.006832
398899,0.001382,0.000634,0.001505,-0.141018,-0.547107,0.006673
398999,0.00194,0.00275,0.001257,-0.14066,-0.546265,0.00619
399099,0.001836,0.001959,0.001439,-0.140338,-0.545834,0.005454
399199,0.001528,0.002074,0.003392,-0.140353,-0.54553,0.006071
399299,0.001506,-0.000177,0.000761,-0.140298,-0.546488,0.005801
399399,0.002061,0.003534,0.002701,-0.139848,-0.545161,0.006311
399499,4e-05,0.000237,0.001027,-0.140362,-0.545491,0.005562
399599,0.000505,0.001773,0.001941,-0.140767,-0.545133,0.005306
399699,0.002217,0.000702,0.000413,-0.140191,-0.545414,0.004018
399799,0.001177,0.001709,0.001091,-0.140423,-0.545391,0.003788
399899,0.001374,0.000785,0.001586,-0.140476,-0.545809,0.003748
399999,0.002136,0.000398,0.001126,-0.13987,-0.54617,0.003378
400099,0.002378,0.002111,0.001725,-0.139027,-0.54537,0.002239
400199,0.000651,-1e-05,0.001284,-0.139429,-0.546168,0.001888
400299,0.001569,0.003023,0.002277,-0.139374,-0.545305,0.002057
400399,0.000848,0.001237,0.0016,-0.139763,-0.545501,0.001892
400499,0.00167,0.00165,0.002897,-0.139543,-0.545278,0.002606
400599,0.000163,0.000366,0.002145,-0.140114,-0.54566,0.002009
400699,0.003363,0.001277,0.001304,-0.138951,-0.545689,0.001853
400799,0.002219,0.000339,0.002117,-0.138334,-0.546107,0.001519
400899,0.001758,4.4e-05,0.001072,-0.138121,-0.546934,0.001642
400999,0.002293,0.000623,0.002914,-0.137699,-0.547427,0.001117
401099,0.002893,0.001336,0.001959,-0.136937,-0.547582,0.001364
401199,0.001327,-0.000258,0.001253,-0.136977,-0.548533,0.000728
401299,0.000194,0.001383,0.002048,-0.137402,-0.548168,-0.000238
401399,0.003484,0.000236,0.002214,-0.136103,-0.548674,-0.000768
401499,0.001742,0.002207,0.00163,-0.135885,-0.548201,-0.000724
401599,0.000817,0.001273,0.002497,-0.136259,-0.548267,-0.001166
401699,0.002051,0.002264,0.001561,-0.135921,-0.547826,-0.001151
401799,0.000913,0.001862,0.001225,-0.136032,-0.54733,-0.002074
401899,0.002412,0.00059,0.001376,-0.13538,-0.547704,-0.002321
401999,-0.000701,0.000855,0.001081,-0.136385,-0.547758,-0.003368
402099,0.001864,0.001151,0.001789,-0.136123,-0.547861,-0.00407
402199,0.002743,0.001305,0.002431,-0.13537,-0.547938,-0.003749
402299,0.002076,0.00018,0.002726,-0.135088,-0.548748,-0.003247
402399,0.001819,0.001727,0.001858,-0.134579,-0.548194,-0.004147
402499,0.002898,0.002404,0.001732,-0.133459,-0.547293,-0.004737
402599,0.001124,0.000726,0.001837,-0.133436,-0.547432,-0.005445
402699,0.001017,0.001199,0.000632,-0.13353,-0.547418,-0.006042
402799,0.001221,0.000347,0.00104,-0.133665,-0.548078,-0.006193
402899,0.00155,0.002309,0.001784,-0.133619,-0.547596,-0.006299
402999,0.001947,0.002236,0.001356,-0.133259,-0.547112,-0.005772
403099,0.001794,0.002049,0.001319,-0.132898,-0.546551,-0.006665
403199,0.001739,0.000727,0.002159,-0.132712,-0.54697,-0.005964
403299,0.002751,0.001345,-2.4e-05,-0.131973,-0.547129,-0.005735
403399,-0.000107,0.000744,0.002063,-0.132854,-0.547503,-0.005803
403499,0.000759,5.1e-05,0.003158,-0.133074,-0.548066,-0.005551
403599,0.002845,0.000427,0.002122,-0.132394,-0.548792,-0.00552
403699,0.001735,0.000587,0.002649,-0.131924,-0.54886,-0.00615
403799,0.00221,0.00149,0.003069,-0.131338,-0.548627,-0.005856
403899,0.001068,-0.000685,0.002458,-0.131543,-0.549848,-0.00511
403999,0.002356,0.003451,0.002137,-0.130969,-0.548642,-0.00468
404099,0.002203,0.001512,0.002698,-0.130535,-0.548631,-0.003515
404199,0.002459,0.002288,0.001029,-0.129816,-0.547948,-0.004788
404299,0.00302,0.002828,0.002829,-0.128742,-0.546917,-0.004556
404399,0.000922,0.002518,0.000938,-0.128919,-0.546168,-0.004974
404499,0.002682,0.001583,0.001377,-0.1282,-0.546086,-0.00504
404599,0.000642,0.000918,0.003062,-0.128737,-0.546442,-0.004738
404699,0.002397,0.003093,0.003918,-0.1281,-0.545356,-0.003743
404799,0.003274,0.002082,0.002222,-0.12684,-0.544683,-0.004412
404899,0.002323,0.000623,0.002764,-0.126148,-0.544891,-0.004385
404999,0.002174,0.001694,0.001229,-0.125449,-0.544387,-0.005324
405099,0.001662,0.001222,0.002241,-0.125367,-0.544543,-0.005232
405199,0.00268,-0.000201,0.000569,-0.124729,-0.545577,-0.005725
405299,0.001451,0.000538,0.001173,-0.124524,-0.54584,-0.006408
405399,0.001374,-0.000805,0.001919,-0.124425,-0.546916,-0.007085
405499,0.00325,0.000228,0.001347,-0.1231,-0.547257,-0.007654
405599,0.001249,0.000835,0.001069,-0.123104,-0.547472,-0.008126
405699,0.002589,0.003006,0.00079,-0.122511,-0.546659,-0.008385
405799,0.003889,0.000161,0.002115,-0.120941,-0.547178,-0.008339
405899,0.00204,0.002412,0.002322,-0.120636,-0.546643,-0.008102
405999,0.002179,0.000264,0.003076,-0.120127,-0.547195,-0.007369
406099,0.001764,0.000307,0.0021,-0.119658,-0.547438,-0.008328
406199,0.00216,0.000264,0.002643,-0.119181,-0.547975,-0.008553
406299,0.001477,0.000111,0.003291,-0.11912,-0.548697,-0.00707
406399,0.002321,-8.9e-05,0.001574,-0.118541,-0.549492,-0.006816
406499,0.003392,0.002068,0.001145,-0.117458,-0.549153,-0.007257
406599,-0.001405,0.001525,0.001162,-0.118989,-0.548984,-0.007477
406699,0.002321,0.001358,0.001772,-0.118424,-0.548917,-0.007947
406799,0.002417,-0.00075,0.002208,-0.117839,-0.550132,-0.007471
406899,0.001783,0.001917,0.000722,-0.117728,-0.549957,-0.007815
406999,0.001655,0.001588,0.003073,-0.117571,-0.549785,-0.007376
407099,0.001564,0.000435,0.002775,-0.117574,-0.550427,-0.006587
407199,0.000915,0.002276,0.000861,-0.117702,-0.549708,-0.007523
407299,0.002067,0.001808,0.002431,-0.117306,-0.549483,-0.00615
407399,0.003598,0.000154,0.002301,-0.115907,-0.549949,-0.006791
407499,0.001813,0.002106,0.000823,-0.115761,-0.549651,-0.006922
407599,0.001145,0.001925,0.000423,-0.115881,-0.549294,-0.007837
407699,0.001652,0.001237,0.002288,-0.115611,-0.549163,-0.008337
407799,0.001915,0.000526,0.001888,-0.115241,-0.549559,-0.008064
407899,0.002162,0.002293,0.002682,-0.114751,-0.54896,-0.007357
407999,0.001779,0.001499,0.002057,-0.114464,-0.548825,-0.00662
408099,0.001208,0.001347,0.001955,-0.1147,-0.548987,-0.006211
408199,0.001386,0.001364,0.001513,-0.114806,-0.549073,-0.006633
408299,0.001372,0.001997,0.002056,-0.114788,-0.548616,-0.00716
408399,0.002659,0.000394,0.002641,-0.113886,-0.548937,-0.006782
408499,-0.000346,-0.001127,0.002392,-0.114764,-0.550185,-0.006714
408599,0.001735,0.000352,0.001202,-0.114526,-0.550685,-0.007293
408699,0.001476,0.000656,0.001503,-0.114661,-0.551327,-0.006657
408799,0.00196,0.001926,0.002079,-0.114383,-0.551037,-0.006491
408899,0.001637,0.003477,0.002125,-0.114356,-0.549931,-0.006354
408999,0.002319,0.001543,0.000282,-0.1136,-0.549507,-0.00802
409099,0.000969,0.001781,0.002367,-0.113744,-0.549108,-0.008022
409199,0.002716,-0.000291,0.002134,-0.113085,-0.550143,-0.007851
409299,0.000891,0.001605,0.001065,-0.113604,-0.550295,-0.007541
409399,0.001361,0.001347,0.001273,-0.113717,-0.550405,-0.007687
409499,0.000993,0.002237,0.001107,-0.113912,-0.549809,-0.008752
409599,0.003309,0.001691,0.000727,-0.112755,-0.549532,-0.009393
409699,0.003664,0.001188,0.001677,-0.11126,-0.549341,-0.010113
409799,0.00123,0.000745,0.00108,-0.111312,-0.54961,-0.010783
409899,0.000892,0.002924,0.002305,-0.111627,-0.548701,-0.010721
409999,0.001965,0.001075,0.001232,-0.111493,-0.54913,-0.009836
410099,0.002111,0.001419,0.002313,-0.111006,-0.548957,-0.00988
410199,0.001547,0.001282,0.002533,-0.110807,-0.548831,-0.009562
410299,0.001365,0.001998,0.001528,-0.110838,-0.548461,-0.009688
410399,0.00162,0.002636,0.002461,-0.110522,-0.547459,-0.009588
410499,0.003294,0.002315,0.001902,-0.109335,-0.546738,-0.010056
410599,0.002664,0.001677,0.002179,-0.10879,-0.546784,-0.009002
410699,0.001456,0.000856,0.00248,-0.108723,-0.546968,-0.009254
410799,-0.000389,0.00072,0.001158,-0.109676,-0.54718,-0.010536
410899,0.001346,0.001497,0.003297,-0.10948,-0.54675,-0.010566
410999,0.001622,-0.000412,0.000799,-0.109365,-0.547791,-0.010547
411099,0.001162,0.001106,0.00183,-0.109578,-0.54803,-0.00992
411199,0.001151,0.000335,0.002365,-0.109702,-0.548553,-0.009747
411299,0.000554,0.001247,0.001544,-0.110095,-0.548459,-0.010318
411399,0.003499,0.000501,0.001855,-0.108865,-0.548878,-0.01048
411499,0.001588,0.000603,0.000951,-0.108699,-0.549243,-0.010505
411599,0.000953,0.001032,0.002976,-0.109027,-0.549487,-0.009696
411699,0.002634,0.001382,0.001126,-0.108423,-0.549574,-0.010094
411799,0.000777,0.001201,0.000798,-0.108747,-0.549619,-0.010337
411899,0.001383,0.003109,0.001433,-0.108843,-0.548677,-0.010902
411999,0.001124,0.002013,0.001866,-0.108747,-0.547939,-0.01135
412099,0.001924,-0.000123,0.000262,-0.108349,-0.548621,-0.012812
412199,0.001645,0.001525,0.001997,-0.10809,-0.548324,-0.013222
412299,0.002384,0.001886,0.002387,-0.107554,-0.54803,-0.012621
412399,-0.000301,0.001824,0.00161,-0.108633,-0.547854,-0.012759
412499,0.001795,0.001204,0.001413,-0.10828,-0.54776,-0.013023
412599,0.001984,0.002442,0.001595,-0.108077,-0.54731,-0.012222
412699,0.000922,0.001126,0.001397,-0.108261,-0.547292,-0.012693
412799,0.000701,0.000755,0.002307,-0.108669,-0.547614,-0.012325
412899,0.00212,-9.9e-05,0.002037,-0.108277,-0.548431,-0.012315
412999,0.000402,0.001127,0.002917,-0.108985,-0.548676,-0.011839
413099,0.001992,0.001155,0.002077,-0.108599,-0.548721,-0.011203
413199,0.002304,0.00205,0.001921,-0.108053,-0.548283,-0.010487
413299,0.001617,0.001167,-5.6e-05,-0.107899,-0.548307,-0.012035
413399,0.00299,0.002116,0.001537,-0.106948,-0.547799,-0.011985
413499,0.000792,0.001406,0.003271,-0.107382,-0.547811,-0.01151
413599,0.002643,0.000568,0.001547,-0.106656,-0.548199,-0.011925
413699,0.002963,0.000129,0.002089,-0.105768,-0.548868,-0.011862
413799,0.000713,0.001408,0.001748,-0.106082,-0.548683,-0.012219
413899,0.001028,0.000238,0.002092,-0.106195,-0.549181,-0.011601
413999,0.00177,0.000527,0.002277,-0.106069,-0.549746,-0.010774
414099,0.000854,0.001192,0.002345,-0.10638,-0.549769,-0.010975
414199,0.002041,0.000195,0.001253,-0.106025,-0.550406,-0.01145
414299,0.001991,0.001825,0.002818,-0.105653,-0.550034,-0.011179
414399,0.001892,0.0023,0.002108,-0.105229,-0.549256,-0.011427
414499,0.001334,0.001188,0.002242,-0.105085,-0.549089,-0.011128
414599,0.00097,0.000332,0.002163,-0.105267,-0.54955,-0.011024
414699,-0.000207,0.001942,0.000775,-0.106341,-0.549365,-0.011737
414799,0.002169,0.00305,0.002265,-0.105955,-0.548398,-0.011868
414899,0.000245,0.001518,0.002619,-0.106753,-0.548433,-0.011256
414999,0.000651,-0.000388,0.002551,-0.107134,-0.549337,-0.010613
415099,0.002596,0.001505,0.001582,-0.106302,-0.549016,-0.011031
415199,0.001852,-0.000194,0.00254,-0.106102,-0.549929,-0.01066
415299,0.002096,0.000695,0.002182,-0.105819,-0.550444,-0.00963
415399,0.001843,-2.1e-05,0.000958,-0.105593,-0.551245,-0.009853
415499,0.000657,0.000732,0.000988,-0.105976,-0.551482,-0.010988
415599,0.001467,-0.000484,0.00148,-0.105805,-0.552325,-0.011333
415699,0.001986,0.000427,0.00308,-0.105437,-0.552733,-0.01132
415799,0.002633,0.000175,-4.3e-05,-0.104706,-0.55334,-0.012532
415899,0.000958,0.001616,0.00241,-0.10495,-0.553117,-0.012494
415999,0.00161,0.002537,0.002026,-0.104946,-0.552515,-0.012911
416099,-0.000831,0.001903,0.001736,-0.106165,-0.552066,-0.013325
416199,0.000408,0.000894,0.001524,-0.10671,-0.552265,-0.013332
416299,0.003202,0.000416,0.002229,-0.105611,-0.552658,-0.01337
416399,0.003454,0.001304,0.002425,-0.104463,-0.552673,-0.012977
416499,0.001133,0.001653,0.002282,-0.10464,-0.552477,-0.012872
416599,0.000338,0.002041,0.001625,-0.105429,-0.552294,-0.012377
416699,0.001287,-0.000581,0.001287,-0.105501,-0.553384,-0.012404
416799,0.002235,0.002098,0.002066,-0.104966,-0.552848,-0.012089
416899,0.000885,0.002631,0.00283,-0.105179,-0.551973,-0.011264
416999,0.001431,0.000973,0.00368,-0.105166,-0.552156,-0.009756
417099,0.004088,0.000699,0.002101,-0.103988,-0.552946,-0.009573
417199,0.000341,0.000104,0.00172,-0.10458,-0.553577,-0.010137
417299,0.000319,0.002671,0.001251,-0.10518,-0.552741,-0.010832
417399,0.002219,-8.8e-05,0.00267,-0.104648,-0.553451,-0.009907
417499,0.002006,0.001117,0.002996,-0.104209,-0.553395,-0.009638
417599,0.001577,-0.000201,0.001976,-0.104168,-0.554328,-0.009222
417699,0.003443,0.000934,0.002595,-0.103077,-0.554613,-0.008869
417799,0.003705,0.000917,0.002447,-0.101892,-0.554993,-0.008273
417899,0.000914,0.002146,0.002532,-0.102108,-0.554397,-0.008013
417999,0.001975,0.001063,0.003201,-0.101654,-0.554329,-0.007599
418099,0.001257,0.000961,0.001397,-0.101705,-0.554496,-0.007132
418199,0.001633,5.9e-05,0.001301,-0.101475,-0.555046,-0.007977
418299,0.002184,0.002445,0.001139,-0.101144,-0.554547,-0.007898
418399,0.001547,0.001514,0.000693,-0.101112,-0.554478,-0.008602
418499,0.00053,0.001087,0.002373,-0.101629,-0.55461,-0.00808
418599,0.001323,0.000805,0.001991,-0.101575,-0.554736,-0.008259
418699,0.002052,-0.00012,0.002225,-0.101117,-0.555425,-0.007819
418799,0.001479,-0.000265,0.002487,-0.101061,-0.556267,-0.007801
418899,0.003901,-0.000634,0.001851,-0.099781,-0.557561,-0.007599
418999,-0.000517,0.000389,0.002345,-0.100958,-0.55814,-0.007729
419099,0.001898,0.001094,0.001746,-0.1007,-0.558296,-0.007199
419199,0.002312,0.001659,0.000979,-0.100002,-0.557828,-0.008259
419299,0.001768,0.00124,0.001351,-0.099606,-0.557599,-0.008595
419399,0.00176,0.001465,0.002281,-0.099337,-0.557419,-0.007733
419499,0.003397,-2.6e-05,0.000155,-0.09831,-0.558314,-0.008962
419599,0.00143,0.001183,-7e-06,-0.098258,-0.558322,-0.010175
419699,0.000676,0.002517,0.002197,-0.098605,-0.557516,-0.009747
419799,0.000703,0.001863,0.00124,-0.099001,-0.557173,-0.010004
419899,0.002739,0.000112,0.001027,-0.098151,-0.557683,-0.011604
419999,0.003324,0.001368,0.001239,-0.097063,-0.557638,-0.012089
420099,0.002473,0.001539,0.000865,-0.096499,-0.557552,-0.012601
420199,0.000701,0.002289,0.001747,-0.096936,-0.557011,-0.012575
420299,-0.000358,-0.000344,0.000985,-0.097856,-0.557798,-0.013687
420399,0.000299,0.000966,0.000337,-0.09832,-0.557739,-0.015134
420499,4.7e-05,-4.6e-05,0.001528,-0.099089,-0.558476,-0.015408
420599,0.002638,0.001244,0.002315,-0.098306,-0.558375,-0.015347
420699,0.000708,0.001386,0.002352,-0.098713,-0.558296,-0.015407
420799,0.001797,-0.00015,0.002855,-0.098435,-0.559006,-0.015411
420899,0.002978,0.000485,0.00229,-0.097462,-0.559363,-0.014957
420999,0.00188,-5.2e-05,0.001814,-0.096999,-0.559866,-0.015154
421099,0.002003,0.001758,0.001106,-0.096509,-0.559394,-0.015619
421199,0.001612,0.003391,0.002317,-0.096287,-0.558032,-0.01548
421299,0.000603,0.003072,0.001737,-0.096904,-0.557213,-0.015089
421399,0.000938,0.00126,0.001787,-0.097244,-0.557314,-0.014884
421499,0.002009,0.001966,0.001626,-0.096846,-0.556842,-0.014997
421599,0.000704,0.00156,-6e-06,-0.097192,-0.5566,-0.016355
421699,-0.000178,0.001003,0.002589,-0.097936,-0.556516,-0.016248
421799,0.001187,0.000686,0.001131,-0.098152,-0.556985,-0.016021
421899,0.002783,0.001062,0.000743,-0.097471,-0.557225,-0.01713
421999,0.001636,0.000115,0.000242,-0.097456,-0.558053,-0.017674
422099,0.0005,0.002447,0.003097,-0.098101,-0.557505,-0.017389
422199,0.0008,0.002864,0.002529,-0.098388,-0.556499,-0.016927
422299,0.000217,0.001984,0.001951,-0.099034,-0.556018,-0.017257
422399,0.000745,0.001353,0.000774,-0.099421,-0.555987,-0.01764
422499,-0.000368,0.001491,0.002846,-0.100495,-0.555901,-0.017397
422599,0.002116,0.001465,0.001271,-0.100185,-0.555919,-0.017418
422699,0.00093,0.002004,0.002296,-0.10039,-0.55537,-0.017857
422799,0.001592,0.001245,0.001878,-0.100166,-0.555223,-0.01773
422899,0.001408,0.001947,0.0014,-0.10012,-0.55477,-0.017898
422999,0.000405,0.001472,0.001167,-0.100725,-0.554696,-0.018016
423099,0.001815,0.00291,0.001959,-0.100587,-0.553879,-0.017708
423199,0.002074,0.000343,0.001765,-0.100207,-0.554383,-0.018342
423299,0.002581,0.001252,0.001191,-0.099368,-0.554159,-0.019158
423399,0.002219,0.001202,0.001272,-0.098851,-0.554127,-0.019429
423499,0.002283,0.003081,0.002456,-0.098312,-0.553043,-0.018655
423599,0.002887,0.00219,0.003212,-0.097553,-0.552613,-0.017778
423699,0.000785,-0.00025,0.002205,-0.098017,-0.553603,-0.017793
423799,0.000434,0.000825,0.002159,-0.098583,-0.553855,-0.017603
423899,0.001881,0.000148,0.001116,-0.09836,-0.554531,-0.0187
423999,0.00256,0.000635,0.00204,-0.097498,-0.554611,-0.018903
424099,0.002684,0.001063,0.002584,-0.096598,-0.554478,-0.018835
424199,0.003913,0.001184,0.001149,-0.095024,-0.554334,-0.019486
424299,0.000454,0.001807,0.00262,-0.095578,-0.554029,-0.018715
424399,0.002615,0.00024,0.002422,-0.094892,-0.554624,-0.018181
424499,0.003791,-0.001415,0.002763,-0.093563,-0.556199,-0.017529
424599,0.00134,0.001862,0.001028,-0.093515,-0.55575,-0.017794
424699,-0.000414,0.001837,0.000717,-0.094338,-0.555128,-0.018698
424799,0.003928,0.004165,0.003113,-0.092922,-0.553478,-0.018089
424899,0.001606,0.000398,0.002438,-0.093011,-0.554237,-0.017386
424999,-0.001503,0.001011,0.001622,-0.094726,-0.55444,-0.017441
425099,0.001859,0.000567,0.001326,-0.094475,-0.554857,-0.017459
425199,0.000598,0.001142,0.002194,-0.094811,-0.554748,-0.017336
425299,0.000856,0.000794,0.000784,-0.09496,-0.554781,-0.018442
425399,-0.000514,0.000271,0.002071,-0.095913,-0.555115,-0.018971
425499,0.000862,0.001884,0.000297,-0.09629,-0.554852,-0.019691
425599,0.002299,0.000284,0.001922,-0.095815,-0.555421,-0.020214
425699,0.002223,0.002556,0.002011,-0.095354,-0.554673,-0.02016
425799,0.000856,0.000506,0.002893,-0.095656,-0.555063,-0.019718
425899,-0.000219,0.00063,0.001569,-0.096514,-0.555297,-0.020407
425999,0.0026,0.001883,0.001791,-0.095927,-0.555071,-0.020138
426099,0.001594,9.1e-05,0.001894,-0.095852,-0.555767,-0.02011
426199,0.001561,0.000606,0.001588,-0.095815,-0.556221,-0.019844
426299,0.000358,0.000912,0.00228,-0.096457,-0.556442,-0.020102
426399,0.000709,0.000972,0.000187,-0.096805,-0.556525,-0.021266
426499,0.001479,-0.000729,0.001624,-0.096728,-0.557615,-0.021392
426599,0.00082,0.000986,0.001749,-0.096963,-0.557608,-0.022091
426699,0.001039,0.001021,0.000773,-0.097265,-0.557854,-0.022766
426799,0.000348,1.9e-05,0.001837,-0.097828,-0.558505,-0.022617
426899,0.00164,0.000793,0.001313,-0.097721,-0.558807,-0.022831
426999,0.000902,0.001054,0.00145,-0.097973,-0.558857,-0.023241
427099,0.001021,0.001666,0.002019,-0.098112,-0.558498,-0.023317
427199,0.000843,0.000866,0.001803,-0.098473,-0.558777,-0.02297
427299,0.002646,0.003648,0.001151,-0.097779,-0.557413,-0.023641
427399,0.000556,0.000445,0.000908,-0.098445,-0.558085,-0.024718
427499,0.00034,0.002075,0.001271,-0.09907,-0.557609,-0.025495
427599,0.000741,0.001085,0.002921,-0.099364,-0.557591,-0.024748
427699,0.001488,0.001105,0.002318,-0.099422,-0.557808,-0.024165
427799,0.002099,0.00091,0.002327,-0.098942,-0.557872,-0.024242
427899,0.002557,0.002475,0.003104,-0.098279,-0.557133,-0.023832
427999,0.001939,0.000867,0.001873,-0.098035,-0.557439,-0.023714
428099,0.001019,0.001852,0.002068,-0.098173,-0.556941,-0.024652
428199,0.00186,0.003134,0.001047,-0.097796,-0.555704,-0.025474
428299,0.001882,0.001335,0.001912,-0.097461,-0.555542,-0.026124
428399,-0.000594,0.000693,0.000628,-0.098646,-0.55591,-0.02686
428499,0.000192,0.002876,0.00109,-0.099391,-0.555034,-0.027385
428599,0.001064,0.001207,0.001076,-0.099651,-0.555157,-0.027616
428699,-0.000193,0.001367,0.002059,-0.100478,-0.554954,-0.028199
428799,0.002227,-0.000283,0.001896,-0.099844,-0.555631,-0.028281
428899,0.002938,0.002546,0.001351,-0.098841,-0.554713,-0.028909
428999,0.001709,0.001766,0.00177,-0.098632,-0.554379,-0.028489
429099,0.001061,0.000813,0.001591,-0.098879,-0.554675,-0.029063
429199,0.000684,0.001402,0.001765,-0.09938,-0.554687,-0.029774
429299,0.001744,-0.000763,0.001114,-0.099314,-0.556024,-0.03023
429399,0.002082,0.001528,0.00161,-0.098818,-0.555717,-0.030638
429499,0.001361,0.001358,0.001303,-0.098601,-0.555338,-0.031188
429599,0.001328,0.001097,0.001983,-0.098681,-0.555496,-0.030781
429699,0.001892,0.000872,0.002672,-0.098623,-0.555994,-0.03027
429799,0.001835,0.001044,0.002321,-0.09847,-0.556231,-0.030385
429899,0.001912,0.001339,0.001623,-0.098049,-0.556011,-0.030894
429999,0.001596,0.001946,0.001174,-0.097823,-0.555485,-0.031241
430099,0.000522,0.002276,0.000966,-0.098132,-0.554657,-0.0322
430199,0.001847,-0.000306,0.001491,-0.097819,-0.555474,-0.032672
430299,0.000908,0.001761,0.001025,-0.098299,-0.55549,-0.032223
430399,0.001154,0.000967,0.00129,-0.098442,-0.55564,-0.033339
430499,0.002825,0.002235,0.002859,-0.097579,-0.555014,-0.033374
430599,0.002012,0.001466,0.001028,-0.097073,-0.55473,-0.034241
430699,0.001884,0.001764,0.001851,-0.096692,-0.554335,-0.034558
430799,0.000733,0.00103,0.00094,-0.097105,-0.554484,-0.035656
430899,0.001991,0.003345,0.001557,-0.096788,-0.553318,-0.036892
430999,0.002953,0.001746,0.002067,-0.096005,-0.553208,-0.036934
431099,0.001595,0.001036,0.002687,-0.09587,-0.553324,-0.037281
431199,0.002447,0.001514,0.001114,-0.095079,-0.552967,-0.03864
431299,0.001359,0.000425,0.001966,-0.095148,-0.553538,-0.03898
431399,0.001631,0.003099,0.001415,-0.09499,-0.552473,-0.039598
431499,0.001074,0.000684,0.001595,-0.095228,-0.552892,-0.04035
431599,0.002027,0.001496,0.001636,-0.094859,-0.552786,-0.041525
431699,0.00122,0.001347,0.001882,-0.094827,-0.552594,-0.043377
431799,0.001091,0.001899,0.001369,-0.094848,-0.55206,-0.045407
431899,0.000813,0.001737,0.002022,-0.095044,-0.551611,-0.04706
431999,0.002006,0.001211,0.002019,-0.094734,-0.551742,-0.047528
432099,-5.8e-05,0.000717,0.000881,-0.095692,-0.552286,-0.048327
432199,0.004824,0.001684,0.000375,-0.093844,-0.552243,-0.050214
432299,0.001105,0.000832,0.00134,-0.094166,-0.552753,-0.051228
432399,0.001641,0.001357,0.001483,-0.093916,-0.552694,-0.053167
432499,0.001176,0.002804,0.002609,-0.093836,-0.551646,-0.0559
432599,0.001225,0.002241,0.001357,-0.093862,-0.551044,-0.058382
432699,0.002035,0.000603,0.001636,-0.093617,-0.551647,-0.059905
432799,0.001761,0.001571,0.000426,-0.09337,-0.551492,-0.064301
432899,0.002586,0.00184,0.001923,-0.092619,-0.551172,-0.067516
432999,0.000391,0.000281,0.001291,-0.09309,-0.551752,-0.072735
433099,0.000829,0.000981,0.001193,-0.093287,-0.551882,-0.076864
433199,0.000135,0.002829,0.002201,-0.094053,-0.551182,-0.081603
433299,-0.000328,-0.000167,0.002061,-0.095289,-0.552347,-0.084647
433399,0.001265,0.001018,0.003481,-0.095304,-0.55251,-0.087649
433499,0.00116,-9.2e-05,0.002038,-0.095392,-0.553369,-0.093845
433599,0.001398,0.001996,0.000311,-0.095131,-0.552857,-0.102916
433699,0.002245,0.00022,0.001566,-0.094514,-0.553491,-0.11086
433799,0.000214,0.000237,0.001062,-0.095226,-0.554223,-0.115732
433899,0.001288,-0.000177,-0.000216,-0.095534,-0.555428,-0.121625
433999,0.000915,-0.000205,0.000688,-0.095924,-0.556541,-0.130378
434099,0.001102,-0.000479,0.001734,-0.096084,-0.557692,-0.138015
434199,0.000792,0.002135,0.001316,-0.09628,-0.557247,-0.148837
434299,0.001,0.001745,0.001974,-0.0965,-0.557101,-0.156989
434399,0.001328,0.000578,0.001691,-0.096623,-0.5577,-0.164822
434499,0.001341,0.000799,0.002212,-0.096884,-0.558232,-0.168787
434599,0.00207,0.001507,0.001607,-0.096533,-0.558236,-0.177473
434699,0.00337,0.000284,0.001578,-0.095382,-0.558925,-0.187364
434799,0.002247,0.000528,0.002428,-0.094844,-0.559416,-0.195653
434899,0.001419,0.000677,0.001925,-0.094719,-0.559734,-0.201351
434999,0.001336,0.001235,0.002208,-0.094831,-0.559799,-0.201429
435099,0.002384,0.00107,0.000527,-0.094258,-0.559959,-0.207032
435199,0.001052,0.002151,0.00088,-0.094551,-0.559533,-0.210458
435299,0.001598,0.000799,0.001334,-0.094363,-0.559768,-0.214509
435399,0.003191,0.001606,0.000824,-0.093325,-0.559554,-0.216291
435499,0.002306,0.000152,0.00225,-0.092809,-0.560172,-0.217018
435599,0.002245,0.001922,0.001918,-0.092372,-0.559787,-0.216831
435699,0.002033,0.000726,0.003213,-0.092043,-0.560071,-0.215875
435799,-9.9e-05,0.002486,0.00113,-0.092931,-0.559351,-0.215984
435899,0.00198,0.001402,0.001629,-0.092599,-0.559239,-0.21624
435999,0.001079,0.00107,0.002,-0.092778,-0.559314,-0.216628
436099,0.001614,-4.1e-05,0.002272,-0.092658,-0.560023,-0.216402
436199,0.001994,0.001624,0.000582,-0.092319,-0.559783,-0.217166
436299,0.001924,0.000251,0.002211,-0.09203,-0.560327,-0.216845
436399,-0.000198,0.003417,0.002771,-0.092955,-0.559055,-0.216287
436499,0.002545,0.001829,0.002089,-0.092306,-0.558694,-0.216124
436599,0.00195,0.000889,0.002925,-0.091999,-0.55887,-0.215501
436699,0.002026,0.002379,0.001947,-0.091644,-0.558193,-0.215427
436799,0.001444,-0.000194,0.002513,-0.091628,-0.558991,-0.215025
436899,0.002336,0.003084,0.001996,-0.091097,-0.55791,-0.214923
436999,0.000965,0.000981,0.002371,-0.091354,-0.558034,-0.214602
437099,0.002515,0.002017,0.002007,-0.09072,-0.557564,-0.214491
437199,0.001362,-0.001025,0.000614,-0.090739,-0.558839,-0.215174
437299,0.001905,0.000826,0.002119,-0.090458,-0.559051,-0.214997
437399,0.000953,0.000848,0.003261,-0.090727,-0.55925,-0.214167
437499,0.001952,0.000773,0.002317,-0.09042,-0.559492,-0.213877
437599,0.001472,0.000875,0.001962,-0.090384,-0.559677,-0.21379
437699,0.002095,0.000861,0.001398,-0.089989,-0.55987,-0.214027
437799,0.001129,0.001016,0.002802,-0.090156,-0.559972,-0.213458
437899,0.001461,0.000735,0.000536,-0.09012,-0.560238,-0.214188
437999,0.000837,0.000328,0.000767,-0.090443,-0.560737,-0.214784
438099,0.003768,0.001908,0.001414,-0.089089,-0.56033,-0.215013
438199,0.002624,0.001756,0.001919,-0.088394,-0.56001,-0.214951
438299,0.002498,0.00324,0.001247,-0.087767,-0.55884,-0.215276
438399,0.000695,0.001926,0.000763,-0.088171,-0.558423,-0.215876
438499,0.001629,0.003624,0.001834,-0.088046,-0.557033,-0.215865
438599,0.002273,0.0022,0.002032,-0.087554,-0.556458,-0.215739
438699,0.000796,0.002001,0.00148,-0.087905,-0.555997,-0.215928
438799,-0.000557,-0.000362,0.001973,-0.089033,-0.556891,-0.215833
438899,0.000724,0.000557,0.001572,-0.089427,-0.557257,-0.215968
438999,0.001693,0.001123,0.002317,-0.089269,-0.557299,-0.215676
439099,0.001753,0.000603,0.001877,-0.089075,-0.557639,-0.215636
439199,0.001833,0.001375,0.001779,-0.088834,-0.557537,-0.215653
439299,0.003294,0.001419,0.002317,-0.087759,-0.557409,-0.215362
439399,0.002153,0.00026,-0.000378,-0.087322,-0.557948,-0.216614
439499,0.001018,0.003337,0.000786,-0.087544,-0.556722,-0.217201
439599,0.002152,0.001229,0.001525,-0.08712,-0.556704,-0.217362
439699,0.001716,0.000772,0.000805,-0.086942,-0.556948,-0.217935
439799,0.002046,0.000721,0.00175,-0.08658,-0.557219,-0.217966
439899,0.001896,0.002315,0.002061,-0.086307,-0.556578,-0.217821
439999,0.000997,0.000867,0.000481,-0.08654,-0.556768,-0.21858
440099,0.000732,0.001506,0.001347,-0.086929,-0.55659,-0.218843
440199,0.002548,0.001879,0.002055,-0.086282,-0.556199,-0.2187
440299,0.00152,0.000843,0.002311,-0.086225,-0.5564,-0.21841
440399,0.000693,0.000237,0.001818,-0.08664,-0.556949,-0.218401
440499,0.002064,0.000415,0.001681,-0.086269,-0.557396,-0.218471
440599,0.000733,0.002444,0.00356,-0.086672,-0.556679,-0.217466
440699,0.001118,0.0004,0.002201,-0.086846,-0.557134,-0.217237
440799,0.001878,0.00081,0.000524,-0.086576,-0.557355,-0.217969
440899,0.002154,0.000718,0.002896,-0.086161,-0.557627,-0.217341
440999,0.000303,0.00238,0.001373,-0.086798,-0.556949,-0.217589
441099,0.000118,0.000784,0.001802,-0.087544,-0.557184,-0.217588
441199,0.002076,0.001057,0.000793,-0.087163,-0.557263,-0.218166
441299,0.00036,-3e-06,0.001213,-0.087767,-0.557949,-0.218501
441399,0.002273,0.001925,0.002521,-0.087283,-0.557529,-0.218089
441499,0.0018,0.000315,0.00178,-0.087066,-0.558033,-0.2181
441599,0.001553,0.001458,0.001684,-0.08699,-0.557881,-0.218167
441699,0.00204,0.001274,0.002379,-0.086641,-0.557834,-0.217834
441799,0.001903,0.000258,0.002527,-0.08637,-0.558369,-0.217415
441899,0.000352,0.001919,0.0022,-0.086987,-0.557952,-0.217185
441999,0.001689,-0.000124,0.001243,-0.086833,-0.558705,-0.217501
442099,0.000575,-0.000315,0.001851,-0.087321,-0.559568,-0.217468
442199,0.001507,0.001906,0.001857,-0.087275,-0.559159,-0.217434
442299,0.001682,0.00034,0.001935,-0.087129,-0.559646,-0.217353
442399,0.001259,-0.000631,0.00116,-0.087221,-0.560691,-0.217716
442499,0.000826,0.000104,0.002396,-0.087568,-0.561313,-0.217371
442599,0.002428,0.002399,0.001428,-0.086992,-0.560622,-0.217584
442699,0.001649,0.002036,0.002865,-0.08687,-0.560137,-0.216972
442799,0.001669,0.000853,0.003949,-0.086743,-0.560329,-0.215739
442899,0.001056,0.001332,0.002256,-0.086959,-0.560248,-0.215475
442999,0.000589,0.000976,0.002621,-0.087443,-0.560371,-0.215002
443099,0.000254,-0.000308,0.001934,-0.088115,-0.56123,-0.214922
443199,0.001595,0.000357,0.001225,-0.088016,-0.56171,-0.215248
443299,0.000917,0.001155,0.001685,-0.088307,-0.561731,-0.215311
443399,0.002206,0.001691,0.001138,-0.087857,-0.561446,-0.215688
443499,0.000673,0.002548,0.001275,-0.088287,-0.560669,-0.215988
443599,-0.000363,-0.000273,0.00216,-0.089314,-0.561508,-0.215778
443699,0.002279,-0.001884,0.002847,-0.088833,-0.563268,-0.215171
443799,0.001194,0.000801,0.001975,-0.088969,-0.563491,-0.215067
443899,0.000945,0.001175,0.002679,-0.089252,-0.563499,-0.214559
443999,0.000874,-0.001085,-0.000351,-0.089558,-0.564804,-0.215785
444099,0.001499,0.000281,0.001053,-0.089515,-0.565326,-0.216207
444199,0.001726,0.00184,0.003088,-0.089354,-0.564952,-0.215464
444299,0.001441,0.001026,0.00361,-0.089359,-0.565044,-0.214422
444399,0.000689,0.002685,0.001522,-0.089783,-0.564187,-0.214577
444499,0.001497,0.000965,0.001474,-0.089745,-0.564315,-0.214757
444599,-0.000807,0.001434,0.00291,-0.091035,-0.564174,-0.214115
444699,0.001582,0.00063,0.003187,-0.09096,-0.564493,-0.213313
444799,0.000774,0.001843,0.002697,-0.091344,-0.564116,-0.212792
444899,0.000689,0.002648,0.002177,-0.091773,-0.563279,-0.212571
444999,0.00257,0.000685,0.002539,-0.091128,-0.563567,-0.21214
445099,0.001113,0.001939,0.000459,-0.091305,-0.563138,-0.212902
445199,0.002139,0.000947,0.001961,-0.090903,-0.563275,-0.212802
445299,0.001341,0.000416,0.001337,-0.090955,-0.563718,-0.213059
445399,0.001415,0.001401,0.000697,-0.090962,-0.563597,-0.213683
445499,0.00273,0.00223,6.9e-05,-0.090211,-0.563001,-0.214668
445599,0.000908,0.001425,0.002697,-0.090519,-0.562863,-0.214146
445699,0.000603,0.00065,0.001841,-0.090997,-0.56317,-0.214114
445799,0.002926,0.001006,0.002295,-0.090146,-0.563273,-0.213822
445899,0.001203,0.00202,0.001772,-0.09028,-0.562796,-0.213831
445999,0.000906,0.002536,0.002219,-0.090587,-0.562022,-0.213583
446099,0.000399,0.001894,0.003219,-0.091191,-0.561615,-0.212762
446199,0.00095,0.001401,0.001806,-0.09147,-0.561492,-0.21275
446299,6.4e-05,0.002008,0.000465,-0.092248,-0.561023,-0.213508
446399,0.002229,0.000844,0.002654,-0.091799,-0.561219,-0.213011
446499,0.000343,0.002122,0.000762,-0.092419,-0.560685,-0.213599
446599,0.001292,0.001771,0.002432,-0.092505,-0.56035,-0.21323
446699,0.000659,0.000356,0.002872,-0.092957,-0.560825,-0.212607
446799,0.002257,0.00252,0.000882,-0.092481,-0.560063,-0.213127
446899,0.001272,0.001665,0.002716,-0.09258,-0.559789,-0.212596
446999,0.002217,0.000157,0.00164,-0.092131,-0.560381,-0.21268
447099,0.001068,0.001539,0.002501,-0.092344,-0.56018,-0.212273
447199,-0.000276,0.001403,0.00297,-0.09333,-0.560056,-0.211597
447299,0.001095,0.000909,0.000107,-0.093514,-0.560219,-0.212561
447399,0.00212,0.000449,0.002494,-0.093124,-0.560643,-0.212157
447499,0.001307,0.000675,0.001355,-0.093193,-0.560938,-0.212406
447599,0.000637,0.000571,0.001674,-0.093648,-0.561293,-0.212473
447699,0.00232,0.001037,0.002787,-0.093145,-0.56138,-0.211902
447799,0.001883,0.001397,0.001364,-0.092884,-0.561262,-0.212147
447899,0.003139,0.002036,0.003297,-0.091914,-0.560776,-0.211285
447999,0.002585,0.000889,0.001559,-0.091253,-0.560949,-0.211417
448099,0.003548,0.001864,0.001183,-0.090037,-0.560563,-0.211766
448199,0.000856,0.002739,0.002022,-0.090369,-0.559675,-0.211634
448299,0.000651,0.000288,0.001524,-0.090816,-0.560192,-0.211786
448399,0.001473,0.001715,0.002032,-0.090794,-0.559891,-0.211647
448499,0.002096,0.002425,0.001356,-0.090412,-0.559184,-0.211897
448599,0.00076,0.00261,0.003382,-0.090807,-0.558368,-0.210985
448699,0.001734,0.001022,0.002013,-0.090637,-0.558464,-0.210856
448799,0.001415,0.0005,0.000347,-0.09064,-0.558859,-0.211681
448899,0.001527,0.00086,0.001336,-0.090585,-0.559048,-0.21194
448999,0.001913,0.000401,0.00182,-0.090311,-0.559499,-0.21192
449099,0.001288,0.002292,0.001608,-0.090393,-0.558867,-0.212025
449199,0.001293,0.000613,0.002917,-0.09048,-0.559197,-0.211378
449299,-0.000422,-0.000573,0.001248,-0.091541,-0.560206,-0.211686
449399,0.000933,0.000747,0.001801,-0.091829,-0.56046,-0.211678
449499,0.000578,0.000258,0.003261,-0.092328,-0.560991,-0.210833
449599,0.001076,0.001593,0.00149,-0.092532,-0.56076,-0.211004
449699,0.002208,0.001144,0.003355,-0.092098,-0.560784,-0.210106
449799,0.001439,0.002385,0.002746,-0.092101,-0.560098,-0.209557
449899,0.001594,0.001466,0.001572,-0.092008,-0.55994,-0.209682
449999,0.001446,0.000525,0.001206,-0.091999,-0.560321,-0.210015
450099,0.002211,0.000439,0.000592,-0.091548,-0.560752,-0.210699
450199,0.001684,0.000678,0.001112,-0.091401,-0.561045,-0.211086
450299,0.000337,0.001227,0.002381,-0.092035,-0.561023,-0.210745
450399,0.001976,0.001319,0.002825,-0.091732,-0.560947,-0.21015
450499,0.001586,0.001493,0.002504,-0.091651,-0.560772,-0.209739
450599,0.003009,0.002139,0.001873,-0.090751,-0.560228,-0.20969
450699,0.000851,0.002063,0.002371,-0.091091,-0.559726,-0.209355
450799,0.000275,0.000672,0.001441,-0.091755,-0.560022,-0.209552
450899,0.000255,0.001188,0.001993,-0.092433,-0.560022,-0.209434
450999,0.00018,0.000822,0.002899,-0.09316,-0.560232,-0.208796
451099,0.002489,-0.000796,0.001761,-0.092557,-0.561369,-0.208809
451199,0.0018,0.00257,0.001416,-0.092348,-0.560578,-0.209022
451299,0.000596,0.001241,0.002136,-0.092832,-0.560547,-0.208821
451399,0.001393,0.000815,0.003048,-0.092865,-0.56076,-0.208097
451499,0.001497,0.000372,0.002232,-0.092833,-0.561227,-0.207841
451599,0.001849,0.002409,0.002555,-0.092601,-0.560528,-0.207402
451699,0.000962,0.000951,0.001332,-0.092871,-0.560664,-0.207662
451799,0.001111,0.001675,0.002504,-0.093062,-0.560385,-0.207252
451899,0.001554,0.002636,0.002881,-0.093001,-0.559555,-0.206626
451999,-0.000378,0.00319,0.001389,-0.094038,-0.55841,-0.206857
452099,0.002854,0.001063,0.0023,-0.093229,-0.558482,-0.206563
452199,0.002603,0.002205,0.001566,-0.092559,-0.5579,-0.206691
452299,0.002366,0.001168,0.001461,-0.092025,-0.557912,-0.206877
452399,0.002799,0.000794,0.001751,-0.091244,-0.558138,-0.206897
452499,0.001982,0.000519,0.002778,-0.090938,-0.558522,-0.206329
452599,0.000735,0.001221,0.002581,-0.091344,-0.558503,-0.205874
452699,-0.000472,0.001246,0.003038,-0.092444,-0.55847,-0.205158
452799,0.001842,0.001379,0.000575,-0.092205,-0.558363,-0.205853
452899,0.000492,0.000159,-8.1e-05,-0.092735,-0.558955,-0.206923
452999,0.001824,0.001513,0.001896,-0.092514,-0.55877,-0.206861
453099,0.002072,0.004416,0.000603,-0.092143,-0.556923,-0.207543
453199,0.000605,0.000552,0.00086,-0.092614,-0.557289,-0.208074
453299,0.002891,0.001425,0.002375,-0.091784,-0.557154,-0.207737
453399,0.001126,0.000477,0.002326,-0.091965,-0.557562,-0.207428
453499,0.001425,0.000957,0.001302,-0.09197,-0.557695,-0.207705
453599,0.000317,0.00228,0.001922,-0.092613,-0.55707,-0.207628
453699,0.002147,0.00085,0.001564,-0.092206,-0.557265,-0.207754
453799,-0.000412,0.002822,0.00202,-0.093268,-0.556329,-0.207622
453899,0.000323,0.002515,0.002144,-0.093908,-0.555569,-0.207418
453999,0.000686,-2.5e-05,0.00245,-0.094342,-0.556265,-0.207038
454099,0.002567,0.00128,0.000841,-0.09369,-0.556214,-0.207579
454199,0.000836,0.002753,0.00133,-0.094032,-0.555319,-0.207842
454299,0.002237,-0.000894,0.00084,-0.093569,-0.556514,-0.208383
454399,0.001644,0.001662,0.002637,-0.093455,-0.556243,-0.207896
454499,0.001261,0.000831,0.00021,-0.093547,-0.556449,-0.208799
454599,0.00137,0.001358,0.000533,-0.093579,-0.556355,-0.209518
454699,0.001735,0.001954,0.001702,-0.093408,-0.555917,-0.209567
454799,0.001246,0.002411,0.001099,-0.093514,-0.555219,-0.209962
454899,0.000842,0.001138,8e-06,-0.093845,-0.55525,-0.210981
454999,0.002802,0.002475,0.001952,-0.093064,-0.554514,-0.210888
455099,0.000308,0.000638,0.003076,-0.093718,-0.554829,-0.210149
455199,0.00276,0.000713,0.001269,-0.092958,-0.555103,-0.210444
455299,0.001989,0.00319,0.003241,-0.092651,-0.553956,-0.209613
455399,0.000112,0.002909,0.000937,-0.093407,-0.552972,-0.2101
455499,0.002313,0.002007,0.00083,-0.0929,-0.552505,-0.210649
455599,0.0032,0.001821,-0.000637,-0.091877,-0.552146,-0.212038
455699,0.002334,0.002231,0.001919,-0.091364,-0.55155,-0.211964
455799,0.002646,-0.000921,0.003942,-0.090684,-0.552758,-0.210726
455899,0.00149,0.001781,0.000295,-0.090647,-0.552421,-0.211581
455999,0.002185,0.000135,-9.2e-05,-0.090209,-0.553027,-0.212655
456099,-0.00025,0.002073,0.001427,-0.091174,-0.552522,-0.212862
456199,0.002169,0.002814,0.00117,-0.090753,-0.551592,-0.213215
456299,0.002108,0.003046,0.002223,-0.090373,-0.550527,-0.212965
456399,0.000287,0.001229,0.001996,-0.091037,-0.550503,-0.212841
456499,0.002072,0.001174,0.002841,-0.09068,-0.550512,-0.212237
456599,0.001118,0.000161,0.000896,-0.090859,-0.551102,-0.212745
456699,0.001232,0.001783,0.000572,-0.090971,-0.550763,-0.213441
456799,0.001067,0.002703,0.001136,-0.09118,-0.549897,-0.213815
456899,0.000949,0.000562,0.001176,-0.091459,-0.550257,-0.214163
456999,0.002145,0.001728,0.001648,-0.091053,-0.549949,-0.214242
457099,0.002931,0.000919,0.002562,-0.090203,-0.550104,-0.213797
457199,0.001473,0.000268,0.001845,-0.090184,-0.550632,-0.213762
457299,0.00214,0.002408,0.001941,-0.089784,-0.549934,-0.213674
457399,0.00254,0.002943,0.001969,-0.089155,-0.548929,-0.21357
457499,0.001841,0.000654,0.002527,-0.088929,-0.549236,-0.213144
457599,0.001446,0.001413,0.003484,-0.088935,-0.549106,-0.212171
457699,0.001731,0.003334,0.001558,-0.088767,-0.547878,-0.212303
457799,0.002159,0.001757,0.001528,-0.088353,-0.547553,-0.212451
457899,0.002032,0.001301,0.002025,-0.088015,-0.547489,-0.212313
457999,0.002003,0.001124,0.00225,-0.087695,-0.547527,-0.212047
458099,0.001895,0.000825,0.000602,-0.087427,-0.547737,-0.212725
458199,0.001012,0.000221,0.001682,-0.087672,-0.548293,-0.212783
458299,0.001782,0.001163,0.000909,-0.08747,-0.548309,-0.213286
458399,0.001373,0.002598,0.000666,-0.087501,-0.547504,-0.213929
458499,0.000561,0.00074,0.001954,-0.088004,-0.547762,-0.213833
458599,0.001817,0.001681,-0.000208,-0.087776,-0.547483,-0.214976
458699,0.001007,0.001733,0.001876,-0.088024,-0.547172,-0.214925
458799,0.000858,0.001395,0.001582,-0.088355,-0.547056,-0.215043
458899,0.001538,0.002407,0.002332,-0.088301,-0.546359,-0.214732
458999,0.001985,0.003111,0.003484,-0.087997,-0.545258,-0.213761
459099,0.00272,-0.000513,0.002898,-0.087269,-0.546233,-0.213122
459199,0.003051,0.000762,0.001186,-0.086342,-0.54648,-0.213466
459299,0.001682,-0.000127,0.002892,-0.086208,-0.547235,-0.212832
459399,0.002044,0.000559,0.001224,-0.085859,-0.547598,-0.213153
459499,0.002804,0.001693,0.002129,-0.085079,-0.54731,-0.212957
459599,0.000634,0.003364,0.001878,-0.08554,-0.546066,-0.212906
459699,0.002289,0.000832,0.002651,-0.085058,-0.546271,-0.212411
459799,0.001851,0.001833,0.00154,-0.084819,-0.545904,-0.212553
459899,0.002527,0.00202,0.001637,-0.084194,-0.54543,-0.21264
459999,0.001951,0.001312,0.001791,-0.083899,-0.545362,-0.212638
460099,0.001507,-0.000668,0.00184,-0.083858,-0.546428,-0.212607
460199,0.00266,0.000708,0.002818,-0.083163,-0.546705,-0.212017
460299,0.000351,0.001987,0.001189,-0.083782,-0.546251,-0.212362
460399,0.004574,-1.6e-05,0.000888,-0.081979,-0.546945,-0.212877
460499,0.002128,0.003521,0.003417,-0.081591,-0.54561,-0.211947
460599,0.00121,0.002214,0.001809,-0.08172,-0.545026,-0.211937
460699,0.00321,0.000759,0.001338,-0.080701,-0.545275,-0.212195
460799,0.001502,0.000411,0.002169,-0.080666,-0.545723,-0.211976
460899,0.002054,0.001046,0.002547,-0.080317,-0.545806,-0.211541
460999,0.004007,0.001975,0.001116,-0.078841,-0.545358,-0.211926
461099,0.002036,0.002338,0.00184,-0.078498,-0.544702,-0.211897
461199,0.00208,9.6e-05,0.002949,-0.078137,-0.545329,-0.211231
461299,0.003037,0.002181,0.001949,-0.077222,-0.544763,-0.211139
461399,0.001749,0.002118,0.0013,-0.077041,-0.544233,-0.211419
461499,0.000493,0.001919,0.00167,-0.077581,-0.543817,-0.211487
461599,0.001805,0.003257,0.002894,-0.077377,-0.542633,-0.210855
461699,0.003315,0.001074,0.001158,-0.076298,-0.542702,-0.211216
461799,0.001152,0.002899,0.001363,-0.07646,-0.541725,-0.211461
461899,0.000769,0.000847,0.003217,-0.07685,-0.541923,-0.210643
461999,0.001643,0.002744,0.002227,-0.076734,-0.541035,-0.210393
462099,0.001335,0.001938,0.001508,-0.076792,-0.540609,-0.210554
462199,0.002579,0.000156,0.002946,-0.076144,-0.541203,-0.20989
462299,0.001062,0.002667,0.002036,-0.076362,-0.54036,-0.209749
462399,0.002299,0.000448,0.000781,-0.075863,-0.540788,-0.210325
462499,0.000854,0.003042,0.002787,-0.076203,-0.539729,-0.209755
462599,0.000407,0.001148,-0.000245,-0.076782,-0.539757,-0.210921
462699,0.000414,0.001087,0.001363,-0.077366,-0.53982,-0.211164
462799,0.000938,0.001566,0.000543,-0.077646,-0.539608,-0.211879
462899,0.002526,0.001965,0.001351,-0.07702,-0.539167,-0.21213
462999,0.003497,0.000421,0.001208,-0.075837,-0.539611,-0.212463
463099,0.001411,0.001031,0.002342,-0.075855,-0.539704,-0.212146
463199,0.001069,0.001348,0.001607,-0.076066,-0.539617,-0.21225
463299,0.000509,0.001906,0.002892,-0.076604,-0.539209,-0.211619
463399,0.000883,0.000949,0.001332,-0.076919,-0.539351,-0.211881
463499,0.000803,0.001202,0.001869,-0.077282,-0.539348,-0.211836
463599,0.001417,-0.000184,0.001493,-0.077338,-0.540111,-0.211949
463699,0.000512,0.001826,0.003019,-0.077874,-0.53975,-0.211247
463799,0.003785,0.001209,0.000191,-0.076519,-0.539744,-0.212163
463899,0.000629,-1e-05,0.000628,-0.076975,-0.540436,-0.212829
463999,0.001406,0.001222,0.001205,-0.076989,-0.540423,-0.213165
464099,0.003836,0.003444,0.001355,-0.075612,-0.539135,-0.213416
464199,0.001888,0.000694,0.001262,-0.07535,-0.539424,-0.213718
464299,0.001008,0.001775,0.002001,-0.075597,-0.539092,-0.213598
464399,-7.5e-05,0.002437,0.001813,-0.076463,-0.538382,-0.213586
464499,0.001354,0.000748,0.001764,-0.07651,-0.538639,-0.2136
464599,-0.000225,0.002214,0.0017,-0.077461,-0.538057,-0.213653
464699,0.001952,0.001192,0.00072,-0.077159,-0.538061,-0.214268
464799,0.00171,-0.001006,0.000949,-0.076998,-0.539324,-0.214749
464899,-0.001177,5e-06,0.000723,-0.078489,-0.540009,-0.21536
464999,0.003352,0.002287,0.001104,-0.077387,-0.539385,-0.215755
465099,0.002106,0.000208,0.001835,-0.077003,-0.539952,-0.21573
465199,0.000399,0.002364,0.002486,-0.0776,-0.539284,-0.215333
465299,0.001053,-0.000529,0.002362,-0.077824,-0.540272,-0.215004
465399,0.001491,0.001659,0.001386,-0.077791,-0.540008,-0.215236
465499,0.002137,0.001596,0.001994,-0.077391,-0.53978,-0.215119
465599,0.002578,0.000836,0.002283,-0.07674,-0.539986,-0.214836
465699,0.002325,0.001039,0.001576,-0.076231,-0.540076,-0.214958
465799,1.4e-05,0.000912,0.001135,-0.077043,-0.54024,-0.215332
465899,0.001465,-0.001002,0.002323,-0.077032,-0.541498,-0.215024
465999,0.000218,0.002294,0.001645,-0.077731,-0.540869,-0.215107
466099,0.001846,0.001248,0.001837,-0.077497,-0.540839,-0.215079
466199,0.001595,-0.000189,0.00348,-0.077417,-0.541631,-0.214109
466299,0.001809,0.002009,0.001273,-0.077201,-0.541166,-0.214405
466399,0.000876,0.001784,0.001215,-0.077519,-0.540831,-0.214735
466499,0.002229,0.002158,0.001446,-0.077064,-0.54028,-0.214933
466599,0.001544,0.001346,0.002544,-0.077007,-0.540194,-0.2145
466699,-0.000612,0.001303,0.000755,-0.078176,-0.540134,-0.215094
466799,0.00241,0.00299,0.001535,-0.077618,-0.539107,-0.215241
466899,0.001887,0.000689,0.001202,-0.077357,-0.539399,-0.215577
466999,-0.000191,0.001188,0.001185,-0.078288,-0.539404,-0.215923
467099,0.000701,0.001436,0.000359,-0.078703,-0.539269,-0.216743
467199,0.001317,0.003017,0.001419,-0.078771,-0.538227,-0.216956
467299,0.001297,0.001921,0.001376,-0.07885,-0.537812,-0.217193
467399,0.001181,0.001083,0.00078,-0.078992,-0.537878,-0.217772
467499,0.001279,0.001227,0.002148,-0.079086,-0.537861,-0.217565
467599,0.002695,0.001005,0.000265,-0.078359,-0.537973,-0.218438
467699,0.00088,0.00268,0.001701,-0.078679,-0.537123,-0.218489
467799,0.001301,-0.000783,0.000959,-0.078754,-0.538258,-0.218963
467899,0.000898,0.001754,0.000999,-0.07906,-0.537939,-0.219415
467999,0.002166,0.00104,0.001443,-0.078642,-0.53803,-0.219613
468099,0.00313,0.000838,0.002274,-0.077677,-0.538235,-0.219334
468199,0.001003,0.000721,0.001585,-0.077926,-0.538507,-0.219449
468299,0.000656,0.000151,-0.000268,-0.078365,-0.539108,-0.220626
468399,0.002409,0.00271,0.002038,-0.077811,-0.53824,-0.220483
468499,0.000681,-0.000213,0.001677,-0.078247,-0.539047,-0.220545
468599,0.001985,0.001351,0.001285,-0.077933,-0.538959,-0.220832
468699,0.002181,-0.000412,0.001788,-0.07751,-0.53988,-0.220829
468799,0.001883,0.002527,0.001793,-0.077257,-0.539117,-0.220826
468899,0.002724,0.002667,0.002747,-0.076528,-0.538273,-0.220277
468999,0.000868,0.002453,0.001935,-0.076858,-0.537552,-0.220191
469099,0.000842,0.000816,0.001288,-0.0772,-0.53777,-0.220475
469199,0.002561,0.002006,0.002877,-0.076566,-0.537304,-0.21985
469299,0.002775,0.000753,0.002014,-0.075804,-0.537557,-0.219719
469399,0.001249,0.000984,0.001364,-0.075913,-0.537679,-0.21996
469499,0.00177,0.00031,0.00078,-0.07572,-0.538187,-0.220535
469599,0.001896,0.000437,0.001327,-0.075458,-0.538621,-0.220796
469699,0.001605,0.0012,0.00187,-0.075366,-0.538619,-0.220747
469799,0.000511,0.001566,0.002947,-0.075907,-0.538405,-0.220082
469899,0.001498,0.000845,0.000934,-0.075871,-0.538607,-0.220568
469999,0.000771,-0.000878,0.004047,-0.07627,-0.539792,-0.21927
470099,0.002546,-0.0004,0.002096,-0.075639,-0.540706,-0.219091
470199,0.001389,-4.8e-05,0.000101,-0.075661,-0.54142,-0.220056
470299,0.000644,0.001707,0.002817,-0.076124,-0.541127,-0.219465
470399,0.000944,0.001093,0.001319,-0.076407,-0.541187,-0.219733
470499,0.00113,0.000569,0.000797,-0.07658,-0.541547,-0.220299
470599,0.001596,0.000386,0.002012,-0.076492,-0.542012,-0.22017
470699,0.001714,0.000548,0.002118,-0.076338,-0.542383,-0.21998
470799,0.000468,0.002687,0.001494,-0.076894,-0.541529,-0.220149
470899,0.002071,0.001486,0.00193,-0.076533,-0.541364,-0.220068
470999,0.003768,0.00395,0.002293,-0.075203,-0.539786,-0.21978
471099,0.001517,0.000345,0.001185,-0.075155,-0.540275,-0.220125
471199,0.000864,0.001575,0.001621,-0.075484,-0.540059,-0.220221
471299,0.000322,0.000547,0.00151,-0.076124,-0.540432,-0.22038
471399,0.000894,0.000861,0.001619,-0.076436,-0.540625,-0.220476
471499,0.000261,0.000702,0.001839,-0.077113,-0.540909,-0.220447
471599,0.003718,0.001327,0.001126,-0.075804,-0.540835,-0.220826
471699,0.000829,-7.2e-05,0.001856,-0.076155,-0.541563,-0.220787
471799,0.001881,0.00291,0.000761,-0.075896,-0.540583,-0.221377
471899,0.003135,0.001888,0.000389,-0.074919,-0.540189,-0.222178
471999,0.001403,0.001926,0.001197,-0.074938,-0.539772,-0.222517
472099,0.001718,-0.001371,0.002379,-0.074783,-0.541243,-0.222176
472199,0.002052,0.001051,0.00286,-0.07444,-0.541326,-0.221561
472299,-0.001216,0.00068,0.002368,-0.075966,-0.541622,-0.221227
472399,0.002009,-0.000705,0.0024,-0.075645,-0.542712,-0.220874
472499,0.001693,0.000224,0.001738,-0.075502,-0.54327,-0.220901
472599,0.001109,0.001098,0.003282,-0.075702,-0.543325,-0.220043
472699,0.001834,-0.001138,0.003123,-0.075486,-0.544663,-0.219275
472799,0.001193,0.00209,0.001291,-0.075627,-0.544151,-0.219559
472899,0.001437,-0.000329,0.000787,-0.075625,-0.545026,-0.22013
472999,0.003737,0.001474,0.001398,-0.074308,-0.544868,-0.220352
473099,0.001091,0.002817,0.002634,-0.074515,-0.543939,-0.219867
473199,0.002405,0.000276,0.000999,-0.07396,-0.544467,-0.220317
473299,0.002373,0.00171,0.002175,-0.073429,-0.544173,-0.220095
473399,0.002538,0.002817,0.001538,-0.072801,-0.543245,-0.220238
473499,0.000267,0.001889,0.001907,-0.073475,-0.542848,-0.220168
473599,0.002228,0.001067,0.00166,-0.073025,-0.542923,-0.220241
473699,0.002086,0.001143,0.002235,-0.072659,-0.542954,-0.219984
473799,0.000855,-0.00088,0.001842,-0.072996,-0.544144,-0.219951
473899,0.003576,0.000757,0.002072,-0.071775,-0.544396,-0.219787
473999,0.002341,0.000182,0.00318,-0.071267,-0.544977,-0.218988
474099,0.001092,0.001201,0.003341,-0.071477,-0.544973,-0.218097
474199,0.002721,0.000894,0.002153,-0.070746,-0.545147,-0.217887
474299,0.002612,0.000799,0.001131,-0.070072,-0.545376,-0.218263
474399,0.001523,0.002369,0.001792,-0.070027,-0.544704,-0.21826
474499,0.002488,0.003487,0.001817,-0.069429,-0.543392,-0.218244
474599,0.000473,-0.001785,0.001964,-0.069986,-0.545101,-0.21814
474699,7.9e-05,0.000803,0.000992,-0.070764,-0.545327,-0.218594
474799,0.003008,0.001087,0.001737,-0.069868,-0.54539,-0.218621
474899,0.001496,0.001779,0.00244,-0.069843,-0.545056,-0.218246
474999,0.001054,0.001961,0.00166,-0.070067,-0.544619,-0.218317
475099,0.002806,0.000877,0.002286,-0.069291,-0.544801,-0.218029
475199,0.001136,0.000762,0.002255,-0.069472,-0.545049,-0.217758
475299,0.002597,3.2e-05,0.002784,-0.068819,-0.545715,-0.217183
475399,0.001181,0.000567,0.000653,-0.068965,-0.546076,-0.21783
475499,0.000368,0.001597,0.001301,-0.069582,-0.545846,-0.218105
475599,0.000644,0.001404,0.001372,-0.070042,-0.545726,-0.218338
475699,0.002476,0.000815,0.001424,-0.069452,-0.545944,-0.218542
475799,0.001813,0.002431,0.001669,-0.069245,-0.545235,-0.218605
475899,0.001185,1.4e-05,0.001235,-0.069394,-0.545912,-0.218916
475999,0.001361,0.00096,0.001399,-0.069445,-0.546046,-0.219132
476099,0.001481,0.001832,0.001441,-0.069427,-0.54568,-0.219325
476199,0.001644,0.001599,0.00037,-0.069311,-0.545447,-0.22013
476299,0.0015,0.003487,0.003563,-0.069296,-0.54413,-0.219105
476399,-0.000117,0.00208,0.001564,-0.0702,-0.543619,-0.219222
476499,0.000679,0.000425,0.001027,-0.070648,-0.544054,-0.21964
476599,0.00264,0.002029,0.001601,-0.069981,-0.543567,-0.219725
476699,0.000949,0.000677,0.001707,-0.070268,-0.543863,-0.219765
476799,0.000396,0.00081,0.001929,-0.070874,-0.544082,-0.219678
476899,0.002549,0.002506,0.002334,-0.070249,-0.54333,-0.219361
476999,0.001963,0.002802,0.001375,-0.069953,-0.542409,-0.219594
477099,0.000595,0.002807,0.001953,-0.070444,-0.541485,-0.219496
477199,0.002131,-0.000536,0.001616,-0.070053,-0.542477,-0.219589
477299,0.000863,0.00088,0.00216,-0.070392,-0.542657,-0.219371
477399,0.000782,0.001037,0.002499,-0.070736,-0.542771,-0.219006
477499,0.003193,0.002686,0.00293,-0.069744,-0.541915,-0.218347
477599,0.0017,0.000875,0.001925,-0.069603,-0.542098,-0.218264
477699,0.001849,-6.2e-05,0.002635,-0.06938,-0.542817,-0.217772
477799,0.00154,0.000881,0.001354,-0.069327,-0.542996,-0.218015
477899,0.00106,0.002819,0.001688,-0.069552,-0.542065,-0.218068
477999,0.000861,0.001763,0.002871,-0.069896,-0.541738,-0.217442
478099,0.003228,0.00133,0.001385,-0.068877,-0.541659,-0.217667
478199,-0.000582,2.2e-05,0.002066,-0.070045,-0.54233,-0.217501
478299,0.001869,-0.000618,0.001551,-0.069806,-0.543368,-0.217629
478399,-0.000587,0.001594,0.001598,-0.070974,-0.543138,-0.217732
478499,0.002077,0.000202,0.002166,-0.070619,-0.543706,-0.217509
478599,0.002983,0.000699,0.003344,-0.069751,-0.543987,-0.21661
478699,0.001957,0.00259,0.00412,-0.069475,-0.543185,-0.215269
478799,0.000146,0.001459,0.002123,-0.070227,-0.543033,-0.21507
478899,0.000541,0.000701,0.001822,-0.07075,-0.543314,-0.215044
478999,2e-06,0.001355,0.003042,-0.07159,-0.54322,-0.214318
479099,0.000291,0.000111,0.002145,-0.072259,-0.54384,-0.214106
479199,0.001735,0.001792,0.003097,-0.072105,-0.543495,-0.21335
479299,0.004714,0.001427,0.002889,-0.070244,-0.543361,-0.212713
479399,0.000279,0.001675,0.002347,-0.07092,-0.543085,-0.212387
479499,0.002632,-0.001248,0.002104,-0.070247,-0.544483,-0.212197
479599,0.003135,-0.001386,0.002306,-0.069288,-0.545961,-0.211892
479699,0.002062,0.001054,0.001828,-0.068941,-0.546041,-0.211863
479799,0.003084,0.001345,0.001151,-0.068004,-0.545954,-0.212221
479899,0.001494,0.001256,0.00255,-0.067986,-0.545918,-0.211777
479999,0.001248,0.000255,0.001179,-0.068101,-0.546456,-0.212119
480099,0.003153,0.000756,0.001547,-0.067127,-0.546707,-0.212251
480199,0.001904,0.002062,0.002243,-0.066872,-0.546209,-0.211984
480299,0.001763,2.2e-05,0.003038,-0.066702,-0.54688,-0.21126
480399,0.002301,0.000911,0.002242,-0.06622,-0.547042,-0.210993
480499,0.002987,0.001021,0.002365,-0.065345,-0.547141,-0.210657
480599,0.000845,0.000985,0.001444,-0.065692,-0.54726,-0.210848
480699,0.002634,0.000104,0.002561,-0.065021,-0.547884,-0.210397
480799,0.002212,0.001292,0.000875,-0.064583,-0.547828,-0.210913
480899,0.002808,0.000623,0.001003,-0.063804,-0.548155,-0.211356
480999,0.000663,0.001221,0.002011,-0.06426,-0.548139,-0.21122
481099,0.001614,0.000115,0.003453,-0.06418,-0.548755,-0.210258
481199,0.002509,8e-05,0.003067,-0.063584,-0.549392,-0.209517
481299,0.001416,0.00035,0.001821,-0.063408,-0.549992,-0.209714
481399,0.001782,0.000522,0.002022,-0.063222,-0.550377,-0.209572
481499,0.000939,0.000991,0.003059,-0.063526,-0.550492,-0.208836
481599,0.000721,0.00104,0.002382,-0.063951,-0.550579,-0.208488
481699,0.00322,-0.000653,0.002248,-0.062961,-0.551626,-0.208196
481799,0.002289,0.00037,0.001861,-0.062485,-0.552097,-0.208146
481899,0.002165,0.000958,0.001744,-0.06208,-0.552232,-0.208163
481999,0.002775,0.002406,0.001692,-0.061325,-0.551536,-0.20821
482099,0.002017,0.000669,0.001077,-0.061001,-0.551836,-0.208609
482199,0.002386,0.001184,0.00268,-0.060475,-0.55184,-0.20809
482299,0.001765,0.00163,0.000728,-0.060294,-0.55159,-0.208689
482399,0.003433,0.000907,0.002955,-0.059133,-0.551773,-0.208052
482499,0.001463,0.001587,0.002025,-0.059133,-0.551546,-0.207908
482599,0.002244,-0.000313,0.002899,-0.05869,-0.552407,-0.207261
482699,0.001839,0.000351,0.002917,-0.05848,-0.552888,-0.206604
482799,0.002411,0.000684,0.001341,-0.057933,-0.553178,-0.206851
482899,0.002954,0.00044,0.000951,-0.057073,-0.553609,-0.207321
482999,0.002153,0.001773,0.001125,-0.056673,-0.553276,-0.207692
483099,0.003045,0.001833,0.003263,-0.055773,-0.552907,-0.206838
483199,0.003051,0.002897,0.001987,-0.054862,-0.55193,-0.206717
483299,0.002016,0.001504,0.000961,-0.05454,-0.551751,-0.207182
483399,0.003188,0.001356,0.002456,-0.053554,-0.551657,-0.20679
483499,0.003362,0.001942,0.001433,-0.052462,-0.551226,-0.206984
483599,0.002538,0.001611,0.001755,-0.051845,-0.550985,-0.206994
483699,0.002352,-0.001551,0.001778,-0.051335,-0.552556,-0.206988
483799,0.000905,0.001718,0.001492,-0.051652,-0.552254,-0.207148
483899,0.00115,0.000631,0.001894,-0.051831,-0.552575,-0.207078
483999,0.002233,0.001964,0.002709,-0.051394,-0.552131,-0.206541
484099,0.000666,0.001519,0.000217,-0.051841,-0.551943,-0.207431
484199,0.000212,-0.000363,0.004012,-0.052569,-0.552832,-0.206146
484299,0.002505,0.000756,0.001503,-0.05197,-0.553081,-0.2063
484399,0.001158,0.000671,0.003433,-0.052153,-0.553377,-0.205347
484499,0.001298,0.000782,0.002549,-0.052252,-0.55361,-0.204901
484599,0.002362,0.000118,0.002878,-0.051743,-0.554223,-0.204265
484699,0.00203,0.000869,0.00055,-0.051412,-0.554407,-0.204963
484799,0.001235,0.001718,0.000969,-0.051538,-0.554104,-0.205422
484899,0.002683,0.00079,0.002127,-0.050842,-0.554332,-0.205216
484999,0.00033,0.00154,0.001848,-0.051493,-0.55413,-0.20517
485099,0.001164,0.000525,0.001078,-0.051662,-0.554511,-0.205564
485199,0.000551,0.001302,0.001762,-0.052186,-0.554445,-0.205567
485299,0.001904,0.001519,0.001076,-0.051932,-0.554255,-0.205962
485399,0.000983,-0.000183,0.002424,-0.052213,-0.55504,-0.205584
485499,0.003155,0.002047,0.001868,-0.051246,-0.554547,-0.205526
485599,0.000824,0.002899,0.001547,-0.051614,-0.553567,-0.205653
485699,0.002764,0.001249,0.000569,-0.050864,-0.553532,-0.206338
485799,0.002494,0.001768,0.001854,-0.050276,-0.553199,-0.206288
485899,0.001346,0.001848,0.002301,-0.05035,-0.55282,-0.205981
485999,0.002829,0.000422,0.002049,-0.049572,-0.553257,-0.205817
486099,0.001165,0.001659,0.00302,-0.049753,-0.552986,-0.205098
486199,-0.000246,0.002378,0.001802,-0.050737,-0.552303,-0.205077
486299,0.002265,0.00026,0.001842,-0.050282,-0.552833,-0.205031
486399,0.001805,0.000979,0.001896,-0.050091,-0.552951,-0.204954
486499,0.000416,0.001259,0.003167,-0.050703,-0.552909,-0.20415
486599,0.001783,-0.000194,0.001731,-0.050523,-0.5537,-0.204168
486699,-0.000694,0.001864,0.001963,-0.051764,-0.553311,-0.204054
486799,0.000643,0.000977,0.002745,-0.052244,-0.553431,-0.203491
486899,0.002193,0.001873,0.00285,-0.051837,-0.553036,-0.202869
486999,0.001548,-0.000309,0.000275,-0.051785,-0.553893,-0.20372
487099,0.001643,0.00183,0.001595,-0.051686,-0.553524,-0.203816
487199,0.001258,0.001245,0.003292,-0.051817,-0.553488,-0.202939
487299,0.001316,0.002784,0.002302,-0.051909,-0.552572,-0.20263
487399,0.001635,0.001043,0.002411,-0.05182,-0.552653,-0.202258
487499,0.001691,-0.000603,0.000886,-0.05169,-0.553678,-0.202759
487599,0.00282,0.001257,0.003316,-0.050927,-0.553635,-0.201867
487699,0.00195,0.00273,0.001524,-0.050653,-0.55275,-0.202003
487799,0.001434,0.000653,0.000617,-0.05067,-0.553055,-0.202658
487899,0.001634,0.00337,0.002342,-0.050582,-0.551802,-0.202325
487999,0.00194,0.003338,0.00175,-0.050315,-0.550569,-0.202332
488099,0.001277,0.002154,0.003167,-0.050436,-0.550012,-0.201526
488199,-0.000235,0.003221,0.001679,-0.051416,-0.548844,-0.201573
488299,0.002237,0.002362,0.001764,-0.05098,-0.548168,-0.201571
488399,0.002661,0.003388,0.001874,-0.050301,-0.546905,-0.201505
488499,0.001329,0.002323,0.001138,-0.050381,-0.546253,-0.201867
488599,0.002416,0.000789,0.001859,-0.049843,-0.546478,-0.201809
488699,0.002245,0.000657,0.001834,-0.049404,-0.546779,-0.201765
488799,0.000553,0.002039,0.000834,-0.049927,-0.546289,-0.202295
488899,0.002827,0.002033,0.000808,-0.049149,-0.545803,-0.202839
488999,0.002751,0.003049,0.000645,-0.048413,-0.544734,-0.203477
489099,0.00183,0.002056,0.000259,-0.048203,-0.544235,-0.204336
489199,0.002003,0.002405,0.001675,-0.047901,-0.543534,-0.204384
489299,0.000818,0.002841,0.00028,-0.048271,-0.542585,-0.205231
489399,-0.000478,0.001093,0.001183,-0.049389,-0.542636,-0.20556
489499,0.001285,-0.000511,0.001005,-0.049495,-0.543607,-0.20599
489599,0.000947,0.00232,0.00224,-0.049802,-0.542955,-0.205713
489699,0.002096,0.00086,0.00098,-0.049444,-0.54314,-0.206159
489799,0.003611,0.000741,0.001735,-0.048222,-0.543393,-0.206171
489899,0.00043,0.003718,0.001752,-0.048823,-0.54194,-0.206174
489999,0.001306,0.000101,0.001988,-0.048924,-0.542559,-0.206041
490099,0.001725,-0.000272,0.002015,-0.048784,-0.543392,-0.205892
490199,-0.000114,0.003012,0.00142,-0.049695,-0.542344,-0.206086
490299,0.001519,0.000235,0.001817,-0.049672,-0.542886,-0.20605
490399,0.002151,0.000972,0.002289,-0.04929,-0.543007,-0.205745
490499,0.000454,0.00147,0.001284,-0.049874,-0.542842,-0.206016
490599,0.001663,-0.000109,0.001882,-0.049769,-0.543582,-0.205944
490699,0.00248,0.00273,0.00111,-0.049192,-0.542696,-0.206315
490799,3.4e-05,0.002337,0.003674,-0.05003,-0.542033,-0.205217
490899,0.001388,0.002908,0.001195,-0.050079,-0.541044,-0.20554
490999,0.00191,0.001871,0.001779,-0.049833,-0.54065,-0.205527
491099,0.000814,0.00066,0.002912,-0.050221,-0.540948,-0.204864
491199,0.00273,0.000783,0.001001,-0.0495,-0.541177,-0.205296
491299,0.001268,-0.00039,0.002753,-0.049627,-0.542078,-0.204724
491399,0.002755,0.000211,0.001735,-0.048896,-0.542634,-0.204735
491499,0.002662,0.001931,0.000728,-0.048213,-0.542206,-0.205325
491599,0.001952,0.002587,0.001521,-0.04794,-0.541401,-0.20546
491699,0.003037,0.001189,0.003317,-0.047057,-0.541396,-0.204565
491799,0.000336,0.000789,0.001883,-0.047713,-0.541621,-0.204492
491899,-0.000306,-0.0002,0.001627,-0.048737,-0.542413,-0.204565
491999,0.001618,0.001137,0.002484,-0.048662,-0.542439,-0.204147
492099,0.001275,-1e-05,0.002827,-0.048786,-0.543121,-0.203532
492199,4.6e-05,0.000297,0.002488,-0.049613,-0.543627,-0.203112
492299,0.001769,0.000244,0.00318,-0.049456,-0.544164,-0.202294
492399,0.001615,0.003281,0.002161,-0.049381,-0.542961,-0.202062
492499,0.001179,-0.000174,0.002663,-0.04956,-0.543737,-0.201541
492599,0.001346,0.001219,0.002367,-0.049641,-0.543715,-0.20119
492699,0.001819,0.0024,0.00252,-0.049452,-0.543016,-0.200752
492799,0.000801,0.000749,0.001506,-0.049841,-0.543264,-0.200894
492899,0.003471,0.002334,0.001563,-0.0487,-0.542603,-0.201005
492999,0.00152,0.001471,0.002922,-0.048684,-0.542437,-0.200336
493099,0.000862,-2.2e-05,0.003141,-0.049046,-0.543127,-0.199541
493199,0.001108,0.000863,0.000583,-0.049253,-0.54331,-0.200212
493299,0.000837,0.001338,0.002714,-0.049628,-0.54322,-0.199662
493399,0.001344,0.001142,0.001571,-0.049706,-0.543243,-0.199767
493499,0.001819,0.001591,0.001524,-0.049512,-0.543009,-0.1999
493599,0.00067,0.002275,0.002971,-0.049984,-0.542382,-0.199204
493699,0.000874,0.001361,0.001295,-0.05033,-0.542279,-0.199467
493799,0.003268,5.7e-05,0.002584,-0.049311,-0.542924,-0.198991
493899,0.001678,0.000755,0.001406,-0.049197,-0.543168,-0.19919
493999,0.002292,0.00177,0.002084,-0.048735,-0.542831,-0.199002
494099,0.002008,0.000945,0.002559,-0.048438,-0.542967,-0.19854
494199,0.000247,0.001897,0.001114,-0.049143,-0.542557,-0.198907
494299,0.002434,0.000537,0.00186,-0.0486,-0.542926,-0.198846
494399,0.001834,-0.000794,0.001944,-0.0484,-0.544058,-0.198736
494499,0.000483,0.000691,0.002977,-0.04898,-0.544339,-0.198034
494599,0.000993,0.001056,0.001515,-0.04926,-0.544411,-0.198171
494699,0.000357,0.000193,0.001712,-0.049905,-0.544978,-0.198195
494799,0.001704,0.000855,0.00227,-0.049782,-0.545165,-0.197899
494899,0.002451,0.000587,0.000931,-0.049223,-0.545507,-0.19837
494999,0.00117,0.000264,0.002101,-0.049404,-0.546033,-0.198171
495099,0.002035,-0.001594,0.000998,-0.049084,-0.547624,-0.198603
495199,0.002681,0.001345,0.001512,-0.048396,-0.547531,-0.198742
495299,0.001197,0.00336,0.001165,-0.048558,-0.546283,-0.19908
495399,0.000686,0.001375,0.000545,-0.049008,-0.546173,-0.199772
495499,0.001476,0.000938,0.001469,-0.049012,-0.546313,-0.199935
495599,0.001076,0.0007,0.001058,-0.049243,-0.54659,-0.200333
495699,0.003325,-0.000793,0.001442,-0.048187,-0.547721,-0.20051
495799,0.000558,0.000669,0.001586,-0.048717,-0.548015,-0.200605
495899,0.000643,0.000239,0.002327,-0.049203,-0.548555,-0.200275
495999,0.000963,-0.000495,0.000236,-0.049495,-0.549516,-0.201143
496099,0.002593,0.002187,0.001026,-0.048856,-0.548941,-0.201559
496199,0.001705,0.001877,0.001524,-0.048729,-0.548542,-0.20169
496299,0.002573,0.00158,0.00186,-0.048108,-0.548313,-0.201628
496399,0.003141,0.001483,0.002349,-0.047164,-0.54814,-0.201285
496499,0.001738,0.001013,0.002554,-0.047025,-0.548236,-0.200824
496599,0.002398,0.001047,0.002013,-0.046505,-0.548312,-0.200674
496699,0.001233,0.000877,-0.000393,-0.046639,-0.548487,-0.201902
496799,0.002021,0.001222,0.001524,-0.046332,-0.548464,-0.202032
496899,0.002201,0.001572,0.002589,-0.045928,-0.548239,-0.201552
496999,0.002064,0.00169,0.002559,-0.045603,-0.547947,-0.201089
497099,0.00187,0.003309,0.003416,-0.045393,-0.546727,-0.200136
497199,0.001891,0.000324,0.002234,-0.045165,-0.547218,-0.199858
497299,0.001938,0.002216,-0.000132,-0.044897,-0.546626,-0.200938
497399,0.003234,0.001342,0.003249,-0.043904,-0.546533,-0.200079
497499,0.002196,0.001463,0.003437,-0.043507,-0.546371,-0.199114
497599,0.000422,0.003657,0.001826,-0.044118,-0.544953,-0.199072
497699,0.002011,0.001221,0.001965,-0.043821,-0.544929,-0.198948
497799,0.002061,0.001265,0.003232,-0.043501,-0.54488,-0.198099
497899,0.002453,0.001363,0.001613,-0.042949,-0.544775,-0.198177
497999,0.001535,0.002292,0.001609,-0.042924,-0.544138,-0.198256
498099,0.002518,0.002168,0.002292,-0.04234,-0.543571,-0.197943
498199,0.001285,0.000204,0.001562,-0.042459,-0.544128,-0.198046
498299,0.002895,0.00187,0.002421,-0.041657,-0.543733,-0.197662
498399,0.000833,0.001525,0.000953,-0.042029,-0.543536,-0.198118
498499,0.001247,0.001226,0.000719,-0.042162,-0.543511,-0.19871
498599,0.002667,0.000136,0.001496,-0.041486,-0.544109,-0.198855
498699,0.001954,0.002221,0.002001,-0.041221,-0.543514,-0.198712
498799,0.001251,0.000866,0.003026,-0.041364,-0.543694,-0.197981
498899,0.002884,0.001281,0.001946,-0.040567,-0.543637,-0.197869
498999,0.002418,0.001853,0.002931,-0.040041,-0.543251,-0.197193
499099,0.004043,-0.00051,-0.000912,-0.038564,-0.544221,-0.198717
499199,0.002533,0.001604,0.000853,-0.037963,-0.543978,-0.19923
499299,0.001479,0.000397,0.001237,-0.037967,-0.544428,-0.199523
499399,0.001558,0.001458,0.00083,-0.037923,-0.54427,-0.20005
499499,0.000927,0.000341,0.001658,-0.038246,-0.544751,-0.200102
499599,0.000548,0.001016,0.000308,-0.038779,-0.544845,-0.200927
499699,0.002122,-0.00073,0.002002,-0.038419,-0.54594,-0.200782
499799,0.001676,0.001184,0.002057,-0.038315,-0.545938,-0.200605
499899,0.003109,0.001786,0.001402,-0.037388,-0.54559,-0.200803
499999,0.00262,0.001728,0.001803,-0.036742,-0.545276,-0.200772
500099,0.00165,0.000338,0.001441,-0.03665,-0.545759,-0.200947
500199,0.001124,-0.00047,0.000105,-0.036853,-0.546705,-0.201887
500299,0.00216,-0.000558,0.004331,-0.036485,-0.547699,-0.200406
500399,0.001633,0.003024,0.001958,-0.036406,-0.546643,-0.200287
500499,0.002385,0.001531,0.002046,-0.035897,-0.546442,-0.200116
500599,0.002246,-9.4e-05,0.000408,-0.035458,-0.547172,-0.200883
500699,0.001378,-0.000306,0.002463,-0.035528,-0.548023,-0.200473
500799,0.000174,0.002493,-6.1e-05,-0.036274,-0.547271,-0.201509
500899,0.001558,0.000902,0.002252,-0.03624,-0.54743,-0.20122
500999,0.001875,0.000403,0.001711,-0.036022,-0.547874,-0.20124
501099,0.003293,0.002386,0.002567,-0.034996,-0.547183,-0.200771
501199,0.001318,0.000453,0.001395,-0.035095,-0.547599,-0.200972
501299,0.001107,0.000183,0.002295,-0.03532,-0.548169,-0.200658
501399,0.001366,-0.000567,0.000618,-0.035387,-0.54917,-0.201303
501499,0.002966,1.8e-05,0.002991,-0.034551,-0.549835,-0.20059
501599,0.003272,-0.000665,0.001446,-0.033531,-0.550892,-0.200762
501699,0.002541,0.001488,0.001048,-0.032927,-0.550715,-0.201162
501799,0.002003,0.002086,0.001132,-0.032632,-0.550196,-0.201515
501899,0.002268,0.000938,0.001284,-0.032185,-0.550334,-0.201781
501999,0.002117,0.002334,0.001944,-0.031829,-0.549673,-0.201669
502099,0.001332,0.001736,0.000861,-0.031917,-0.549354,-0.202177
502199,0.000999,3e-05,0.002675,-0.032206,-0.550013,-0.201645
502299,0.000496,0.000885,0.002374,-0.032781,-0.550181,-0.201285
502399,0.001343,-0.00105,0.003193,-0.032876,-0.551458,-0.200455
502499,0.002521,-0.000904,0.002749,-0.032294,-0.552651,-0.199881
502599,0.00207,0.00184,0.003282,-0.031973,-0.552271,-0.199001
502699,0.001089,0.00196,0.002627,-0.03221,-0.551824,-0.198497
502799,0.00023,0.001722,0.001047,-0.03293,-0.551513,-0.198898
502899,0.000667,0.00072,0.001154,-0.033402,-0.551776,-0.199237
502999,0.002555,0.000316,0.001658,-0.032794,-0.55227,-0.199288
503099,0.000973,0.00118,0.001925,-0.033094,-0.552269,-0.199185
503199,0.001723,-0.000954,0.001988,-0.032965,-0.553491,-0.199046
503299,0.001323,0.002463,0.001545,-0.033063,-0.552756,-0.199162
503399,0.002116,0.001305,0.002813,-0.032713,-0.552683,-0.198551
503499,0.00064,0.00198,0.00207,-0.033204,-0.552224,-0.198366
503599,0.001218,0.001251,0.002412,-0.033367,-0.552182,-0.197984
503699,-0.000341,0.001351,0.002077,-0.034421,-0.552083,-0.197795
503799,0.000503,0.001323,0.004042,-0.035002,-0.552,-0.196479
503899,0.001608,0.000326,0.0011,-0.034935,-0.552488,-0.196849
503999,0.000696,0.000709,0.001498,-0.035392,-0.552758,-0.19699
504099,0.000973,0.000591,0.003305,-0.0357,-0.553094,-0.196097
504199,0.000907,0.000549,0.002361,-0.036041,-0.553455,-0.195745
504299,0.000674,0.000637,0.000804,-0.036506,-0.553766,-0.196288
504399,0.001694,0.000438,0.000412,-0.036385,-0.55419,-0.197051
504499,0.000964,0.000533,0.001486,-0.036689,-0.55456,-0.1972
504599,0.002228,0.001136,0.003153,-0.036278,-0.554584,-0.196394
504699,0.003625,0.000457,0.001105,-0.035055,-0.554998,-0.196761
504799,0.000869,0.003348,-0.000903,-0.0354,-0.553756,-0.198279
504899,0.002439,0.001211,-0.000322,-0.034848,-0.553739,-0.199464
504999,0.002154,0.000585,0.001936,-0.034472,-0.554079,-0.199355
505099,-5.5e-05,0.00053,0.003062,-0.035369,-0.55445,-0.198601
505199,0.002118,0.000365,0.002421,-0.035017,-0.554917,-0.198214
505299,0.002028,0.000771,0.001476,-0.034712,-0.55515,-0.198367
505399,0.002756,0.000799,0.000826,-0.033986,-0.555368,-0.198893
505499,0.00157,0.002379,0.001424,-0.033944,-0.55468,-0.199077
505599,0.000616,0.00099,0.00202,-0.034451,-0.554788,-0.198919
505699,0.001812,0.001779,0.002473,-0.034276,-0.554443,-0.198501
505799,0.000515,0.000812,0.001744,-0.034841,-0.554653,-0.1985
505899,0.002897,0.00313,0.001741,-0.034041,-0.553534,-0.198501
505999,0.00106,0.0012,0.001498,-0.034292,-0.553521,-0.198641
506099,0.001073,0.002944,0.000749,-0.034531,-0.552509,-0.19921
506199,0.000821,0.001164,0.001034,-0.034917,-0.552517,-0.199617
506299,0.001446,0.00065,0.001407,-0.034946,-0.552819,-0.199809
506399,-0.000148,0.000974,0.001673,-0.035891,-0.552935,-0.199848
506499,0.000137,0.001985,0.000829,-0.036667,-0.552473,-0.200372
506599,0.002409,0.00082,0.001022,-0.036143,-0.552678,-0.200784
506699,0.002273,0.00162,0.001059,-0.035697,-0.552425,-0.201176
506799,0.000112,0.002964,0.000585,-0.036487,-0.551401,-0.20184
506899,-0.000897,0.000965,0.001037,-0.037857,-0.551524,-0.202245
506999,0.000298,0.001705,0.00116,-0.038542,-0.551222,-0.202579
507099,0.001009,0.001741,0.002084,-0.038826,-0.550899,-0.202384
507199,0.001843,0.001058,0.001474,-0.038628,-0.550967,-0.202538
507299,0.001821,0.001417,0.002162,-0.038448,-0.55083,-0.202297
507399,0.000776,0.002649,0.001797,-0.038864,-0.549986,-0.202266
507499,-0.000183,0.001784,0.003074,-0.039837,-0.549638,-0.201503
507599,0.003074,0.002035,0.000756,-0.038931,-0.549147,-0.202069
507699,0.001167,0.000733,0.003175,-0.039131,-0.549401,-0.201247
507799,0.00157,0.000788,0.001612,-0.039091,-0.549623,-0.201321
507899,0.00171,-0.000839,0.002597,-0.038977,-0.550777,-0.20083
507999,0.002534,1.4e-05,0.0008,-0.038382,-0.551444,-0.201368
508099,0.002249,0.000375,0.001864,-0.037955,-0.551902,-0.201297
508199,0.001288,0.000206,0.002904,-0.038086,-0.552457,-0.200629
508299,0.002364,0.001021,0.002687,-0.037599,-0.552546,-0.200086
508399,0.001547,0.004179,0.003317,-0.037584,-0.550824,-0.199183
508499,0.002672,0.001764,0.000614,-0.036909,-0.550487,-0.199827
508599,0.001453,0.000383,0.002527,-0.036945,-0.550939,-0.199374
508699,0.002457,0.00157,0.002437,-0.036405,-0.550713,-0.198973
508799,0.002082,0.002626,0.00209,-0.036078,-0.54988,-0.198771
508899,0.000182,0.00036,0.001132,-0.036835,-0.550347,-0.199117
508999,0.001554,0.001101,0.001766,-0.036809,-0.550388,-0.1991
509099,0.001712,0.001393,0.002283,-0.036696,-0.550262,-0.198786
509199,0.002101,0.000877,0.001904,-0.036358,-0.550432,-0.19869
509299,0.001501,9.9e-05,0.003037,-0.036369,-0.551047,-0.197943
509399,0.002127,0.000825,0.001733,-0.036015,-0.551246,-0.197945
509499,0.000273,0.001904,0.001374,-0.036721,-0.550827,-0.198152
509599,0.001337,0.000816,0.002016,-0.036821,-0.551031,-0.19799
509699,0.001273,0.001369,0.002006,-0.036958,-0.550919,-0.197835
509799,0.001858,0.000911,0.002013,-0.03676,-0.551068,-0.197676
509899,0.001436,0.000766,0.002228,-0.036805,-0.551301,-0.197394
509999,0.000294,0.001214,0.000328,-0.037494,-0.551278,-0.1982
510099,-0.000549,0.00289,0.002365,-0.038678,-0.550293,-0.197839
510199,0.000457,0.001872,0.001757,-0.039282,-0.549892,-0.197826
510299,0.000874,0.002012,0.000359,-0.039639,-0.549411,-0.198614
510399,0.003061,0.001554,0.002141,-0.038754,-0.549192,-0.198381
510499,-8.5e-05,0.00156,0.001544,-0.039668,-0.548969,-0.198489
510599,4.8e-05,0.002434,0.003131,-0.040515,-0.548245,-0.197688
510699,0.001694,0.001502,0.002509,-0.040416,-0.548055,-0.197243
510799,-0.000331,0.002906,0.001947,-0.041474,-0.54706,-0.19712
510899,0.001266,0.001695,0.001561,-0.041615,-0.54676,-0.197218
510999,0.00278,0.001655,0.001937,-0.040891,-0.546482,-0.1971
511099,-0.000226,0.000458,0.002019,-0.04189,-0.54689,-0.196935
511199,0.002266,0.002253,0.000945,-0.041455,-0.54627,-0.197385
511299,0.001859,0.000667,0.001303,-0.041256,-0.546558,-0.19763
511399,0.000809,0.002652,0.001698,-0.041661,-0.545709,-0.197649
511499,0.000498,0.001062,0.002263,-0.042247,-0.54577,-0.197343
511599,0.002907,0.000526,0.002308,-0.041454,-0.546138,-0.197011
511699,0.001877,0.000774,0.001416,-0.041246,-0.546365,-0.19719
511799,0.000847,0.002026,0.00358,-0.04164,-0.545873,-0.19613
511899,0.001244,0.000557,0.003067,-0.041804,-0.546223,-0.195363
511999,0.001388,0.001943,0.002403,-0.041882,-0.545779,-0.194977
512099,0.001593,0.002717,0.002469,-0.041843,-0.544892,-0.194554
512199,0.001829,0.001764,0.002536,-0.041669,-0.54455,-0.194091
512299,0.000934,0.003343,0.00258,-0.042008,-0.543304,-0.193604
512399,0.002101,0.001648,0.002489,-0.041678,-0.543029,-0.193168
512499,0.001816,0.002238,0.001048,-0.041504,-0.542416,-0.193558
512599,0.00085,0.001391,0.00095,-0.041883,-0.542289,-0.194004
512699,0.002191,0.003022,0.002234,-0.0415,-0.541227,-0.193715
512799,0.00201,0.000535,0.001568,-0.041218,-0.54159,-0.193806
512899,0.000847,-0.000302,0.001666,-0.041603,-0.542432,-0.193841
512999,0.001938,0.000442,0.001484,-0.041361,-0.542849,-0.19398
513099,0.000827,0.001001,0.000754,-0.041752,-0.542945,-0.194538
513199,0.001186,0.000241,0.002612,-0.041948,-0.543476,-0.19403
513299,0.001198,0.000324,-0.000257,-0.042122,-0.54396,-0.195167
513399,0.002254,0.00244,-0.001049,-0.041687,-0.543231,-0.196757
513499,0.002564,0.001789,0.002591,-0.041095,-0.542874,-0.196261
513599,0.001465,0.002582,0.002603,-0.041132,-0.542063,-0.195759
513699,0.000886,0.001386,0.002715,-0.041501,-0.541937,-0.195192
513799,0.002325,-0.000123,0.001831,-0.041042,-0.542676,-0.195131
513899,0.002466,0.001143,8.5e-05,-0.040493,-0.54269,-0.19607
513999,0.001722,0.000783,0.001954,-0.04038,-0.54291,-0.195938
514099,0.002484,1.4e-05,0.000458,-0.039823,-0.543571,-0.196663
514199,0.001232,0.001781,0.002102,-0.039992,-0.543218,-0.196447
514299,0.00184,0.001363,0.002236,-0.039813,-0.543106,-0.196153
514399,0.004058,0.000936,0.001455,-0.03836,-0.543238,-0.196307
514499,0.001468,7.5e-05,0.000974,-0.038388,-0.543863,-0.196737
514599,0.0024,-0.000793,0.001161,-0.037883,-0.544985,-0.197058
514699,0.001503,0.000498,0.002452,-0.0379,-0.545368,-0.196641
514799,0.000769,0.002108,0.00171,-0.038332,-0.544828,-0.196649
514899,0.001909,0.000176,0.001862,-0.038113,-0.545396,-0.196569
514999,0.002042,0.002635,0.002026,-0.037818,-0.544554,-0.196396
515099,0.001492,0.001216,0.002395,-0.03784,-0.544526,-0.196012
515199,0.001148,0.001138,0.001686,-0.038055,-0.544542,-0.196034
515299,0.002147,0.001458,0.002246,-0.0377,-0.544375,-0.195735
515399,0.001575,0.000871,0.002825,-0.037676,-0.544545,-0.195105
515499,0.002644,0.000274,0.001297,-0.037032,-0.545057,-0.19535
515599,0.001741,0.000822,0.001608,-0.036906,-0.545254,-0.195416
515699,2.8e-05,0.001315,0.003031,-0.03777,-0.545169,-0.194668
515799,0.001259,0.001465,0.002797,-0.037928,-0.544998,-0.194054
515899,0.000625,0.00098,0.001434,-0.038441,-0.545105,-0.19422
515999,0.001846,0.001086,0.000904,-0.038252,-0.545152,-0.194691
516099,0.000349,0.001515,0.002177,-0.038927,-0.544953,-0.194432
516199,0.000961,0.002944,0.002442,-0.039254,-0.543935,-0.194022
516299,0.002973,0.001731,0.00157,-0.038423,-0.543612,-0.194111
516399,0.002425,0.001965,0.003659,-0.037917,-0.543154,-0.193003
516499,0.002623,0.000483,0.001528,-0.037286,-0.543546,-0.193116
516599,0.001431,0.002509,0.002025,-0.03734,-0.542777,-0.192945
516699,0.000685,-0.000433,0.002029,-0.037823,-0.543694,-0.19277
516799,0.001351,0.000192,0.001939,-0.037924,-0.544252,-0.192647
516899,0.000848,0.002831,0.002894,-0.038318,-0.543298,-0.191977
516999,0.001839,0.000831,0.000464,-0.038131,-0.543491,-0.192699
517099,0.002245,0.001002,0.002076,-0.03772,-0.543585,-0.192497
517199,0.002779,0.000462,0.001349,-0.036999,-0.543989,-0.192712
517299,0.000456,0.000295,-0.000217,-0.037601,-0.54449,-0.193824
517399,0.000188,0.001458,0.002293,-0.03837,-0.544323,-0.193498
517499,0.001631,0.002166,0.00213,-0.038311,-0.54375,-0.193266
517599,0.001533,0.001257,0.002451,-0.038311,-0.543697,-0.192849
517699,0.001706,0.001984,0.001788,-0.038207,-0.543229,-0.192813
517799,0.002376,-0.000897,0.002119,-0.037722,-0.544412,-0.192586
517899,-9e-06,0.001602,0.001073,-0.038597,-0.544163,-0.19296
517999,0.002068,0.000765,0.002554,-0.038289,-0.544393,-0.192486
518099,0.002768,-0.000452,0.001871,-0.037577,-0.545321,-0.192401
518199,0.001943,0.000864,0.002145,-0.037341,-0.545494,-0.19216
518299,0.002454,0.001792,0.002059,-0.036811,-0.545135,-0.191968
518399,0.000116,0.002646,0.001038,-0.037615,-0.544288,-0.192361
518499,-3.3e-05,0.00113,0.000742,-0.038504,-0.544309,-0.192923
518599,0.001976,0.001284,0.00075,-0.038241,-0.544241,-0.19348
518699,0.001336,0.002133,0.001363,-0.03835,-0.543687,-0.193686
518799,0.002264,0.000119,0.002273,-0.037931,-0.544286,-0.19337
518899,0.001057,0.000735,0.001818,-0.038202,-0.544532,-0.193314
518999,0.001191,0.002323,0.002437,-0.0384,-0.543867,-0.192904
519099,0.0028,0.002292,0.001778,-0.037672,-0.543221,-0.192872
519199,0.001579,0.000702,0.001777,-0.037643,-0.543486,-0.192839
519299,0.00225,-0.000286,0.001726,-0.03723,-0.544318,-0.192836
519399,0.002513,0.003442,0.001727,-0.036666,-0.543013,-0.192833
519499,0.000795,0.000697,0.002267,-0.03709,-0.543281,-0.192521
519599,0.001668,0.0003,0.001947,-0.037011,-0.543777,-0.192391
519699,0.001547,0.00142,0.002586,-0.037005,-0.543631,-0.191896
519799,0.00226,-0.000526,0.001966,-0.036587,-0.5446,-0.191756
