SampleTimeFine,Gyr_X,Gyr_Y,Gyr_Z,Roll,Pitch,Yaw
128188,-0.026803,-0.028446,-0.016332,13.831163,-82.743308,-13.724583
128288,-0.023839,-0.016486,-0.021693,13.93681,-82.750049,-13.844744
128388,-0.010734,-0.021341,-0.024693,14.068751,-82.759028,-13.983837
128488,-0.003354,-0.037153,-0.021069,14.207172,-82.777244,-14.125191
128588,0.001761,-0.046031,-0.014932,14.332453,-82.801202,-14.250337
128688,-0.007561,-0.04774,-0.011374,14.439505,-82.826577,-14.362486
128788,-0.018992,-0.047014,-0.006832,14.519693,-82.852168,-14.454158
128888,-0.029591,-0.038841,-0.004166,14.572813,-82.873585,-14.52467
128988,-0.021952,-0.038061,-0.005911,14.637272,-82.894295,-14.602201
129088,-0.012306,-0.041318,-0.009805,14.728688,-82.916225,-14.701327
129188,0.003772,-0.059537,-0.014009,14.87028,-82.9476,-14.841724
129288,0.014889,-0.075007,-0.019021,15.060688,-82.98673,-15.02488
129388,0.022135,-0.077932,-0.024629,15.286191,-83.026539,-15.2392
129488,0.026923,-0.061367,-0.024965,15.497431,-83.057032,-15.436372
129588,0.025297,-0.035597,-0.02629,15.6823,-83.07301,-15.607914
129688,0.020784,-0.014339,-0.02638,15.838051,-83.077189,-15.75273
129788,0.01821,-0.008411,-0.026306,15.984252,-83.07807,-15.889414
129888,0.015547,-0.02049,-0.024794,16.137833,-83.085801,-16.03507
129988,0.014217,-0.031906,-0.022708,16.296494,-83.100102,-16.186609
130088,0.016571,-0.045619,-0.017867,16.453414,-83.122677,-16.335031
130188,0.02127,-0.052551,-0.019533,16.630926,-83.148746,-16.501478
130288,0.030286,-0.048017,-0.024809,16.832642,-83.1714,-16.687094
130388,0.038156,-0.041291,-0.039491,17.097926,-83.187837,-16.932182
130488,0.049096,-0.042136,-0.044606,17.395301,-83.203735,-17.203271
130588,0.05598,-0.056252,-0.043087,17.711589,-83.227443,-17.489423
130688,0.061506,-0.070197,-0.040831,18.04357,-83.258965,-17.788174
130788,0.068865,-0.081574,-0.035065,18.37334,-83.297508,-18.080435
130888,0.067414,-0.084281,-0.027095,18.672828,-83.338779,-18.343023
130988,0.06379,-0.075743,-0.024051,18.945503,-83.375822,-18.580692
131088,0.057198,-0.065599,-0.020739,19.184967,-83.40786,-18.788714
131188,0.048229,-0.071219,-0.023506,19.443767,-83.442292,-19.021362
131288,0.061232,-0.074597,-0.030648,19.752447,-83.477025,-19.296695
131388,0.066567,-0.084396,-0.034209,20.101695,-83.516137,-19.609754
131488,0.061915,-0.116004,-0.030751,20.49235,-83.572674,-19.967133
131588,0.055004,-0.137615,-0.022507,20.885919,-83.642163,-20.331382
131688,0.048466,-0.151017,-0.01274,21.262008,-83.720521,-20.681759
131788,0.043027,-0.13702,-0.006343,21.585329,-83.792478,-20.982145
131888,0.030553,-0.097457,-0.003629,21.816562,-83.843767,-21.197069
131988,0.004311,-0.050472,0.008759,21.880875,-83.872645,-21.259214
132088,-0.014199,-0.033933,0.021792,21.837381,-83.8955,-21.223601
132188,-0.020561,-0.040981,0.034656,21.74018,-83.924821,-21.137649
132288,-0.021461,-0.072958,0.046552,21.646544,-83.973637,-21.055777
132388,-0.021429,-0.128721,0.048094,21.657,-84.052432,-21.078571
132488,-0.015666,-0.178354,0.040836,21.812348,-84.15605,-21.243693
132588,-0.006958,-0.198389,0.02701,22.095023,-84.267257,-21.531738
132688,0.00045,-0.171338,0.011079,22.41903,-84.360478,-21.856999
132788,0.003201,-0.115972,-0.008775,22.736762,-84.419862,-22.17434
132888,-0.005736,-0.059823,-0.016924,22.969979,-84.447661,-22.411884
132988,-0.021433,-0.037643,-0.014688,23.13169,-84.464214,-22.586627
133088,-0.031238,-0.048634,-0.008122,23.27795,-84.488019,-22.751494
133188,-0.026443,-0.081879,0.002002,23.451275,-84.531575,-22.940787
133288,-0.002726,-0.121802,0.010726,23.689376,-84.598015,-23.181481
133388,0.02157,-0.151094,0.012421,24.010851,-84.680065,-23.491908
133488,0.051639,-0.155776,0.008461,24.394072,-84.763426,-23.847003
133588,0.056262,-0.131125,-0.000581,24.7783,-84.831536,-24.200408
133688,0.048679,-0.086705,-0.005341,25.074718,-84.875195,-24.46998
133788,0.022721,-0.050798,-0.002444,25.245478,-84.900816,-24.62831
133888,-0.006723,-0.035162,-0.00254,25.358594,-84.918265,-24.745698
133988,-0.031164,-0.047944,0.000758,25.475325,-84.943106,-24.880765
134088,-0.037147,-0.077989,0.002681,25.663781,-84.983916,-25.091266
134188,-0.032565,-0.11251,0.010277,25.912892,-85.044358,-25.359999
134288,-0.024771,-0.142222,0.017255,26.218961,-85.121741,-25.681391
134388,-0.017519,-0.162658,0.019904,26.585435,-85.21013,-26.059195
134488,-0.009498,-0.162185,0.021002,26.962032,-85.298358,-26.442498
134588,-0.005488,-0.150771,0.020449,27.321673,-85.380418,-26.806439
134688,-0.019534,-0.143385,0.029024,27.60679,-85.460809,-27.103649
134788,-0.040606,-0.151702,0.036979,27.867601,-85.547395,-27.388553
134888,-0.048168,-0.165893,0.036837,28.186833,-85.640966,-27.736358
134988,-0.045241,-0.174272,0.032174,28.585244,-85.737287,-28.16184
135088,-0.042346,-0.171313,0.030199,29.00686,-85.831327,-28.608873
135188,-0.038741,-0.168715,0.028612,29.451164,-85.92338,-29.076532
135288,-0.038549,-0.162572,0.027112,29.901532,-86.01171,-29.55011
135388,-0.040711,-0.15279,0.026501,30.333821,-86.094791,-30.006764
135488,-0.043212,-0.147732,0.03116,30.727007,-86.176536,-30.425619
135588,-0.051516,-0.152427,0.038748,31.097521,-86.262647,-30.826482
135688,-0.059398,-0.168252,0.050717,31.464933,-86.359895,-31.228716
135788,-0.068365,-0.19044,0.055609,31.919446,-86.469238,-31.723322
135888,-0.079892,-0.200141,0.057455,32.433329,-86.583573,-32.283963
135988,-0.087158,-0.192482,0.057548,32.938328,-86.693924,-32.83981
136088,-0.09549,-0.183761,0.057366,33.427161,-86.799743,-33.384187
136188,-0.100603,-0.180033,0.054853,33.947915,-86.902711,-33.963414
136288,-0.095039,-0.173342,0.049558,34.515471,-87.000493,-34.586265
136388,-0.08872,-0.158272,0.044312,35.077076,-87.089134,-35.199481
136488,-0.088662,-0.15116,0.040902,35.659841,-87.172988,-35.833803
136588,-0.106734,-0.1568,0.038947,36.328777,-87.25842,-36.564718
136688,-0.125196,-0.158357,0.045141,36.983448,-87.346246,-37.291889
136788,-0.148917,-0.158706,0.050471,37.621211,-87.435672,-38.015685
136888,-0.174008,-0.1681,0.0553,38.321272,-87.530647,-38.816179
136988,-0.198269,-0.173418,0.062359,39.038102,-87.630088,-39.647311
137088,-0.214091,-0.182761,0.069519,39.820725,-87.73579,-40.553302
137188,-0.222761,-0.189069,0.076273,40.665455,-87.846193,-41.526352
137288,-0.210766,-0.179564,0.084888,41.410909,-87.955163,-42.393114
137388,-0.198296,-0.163794,0.084529,42.08071,-88.056824,-43.176971
137488,-0.19009,-0.156592,0.077363,42.843165,-88.152294,-44.048784
137588,-0.187102,-0.157922,0.068446,43.834914,-88.244345,-45.148245
137688,-0.19343,-0.177265,0.064775,45.260838,-88.342072,-46.685647
137788,-0.209921,-0.213647,0.064794,47.424644,-88.45273,-48.970593
137888,-0.223178,-0.23021,0.062311,50.244734,-88.565695,-51.919526
137988,-0.221656,-0.231284,0.059363,53.612223,-88.673417,-55.415005
138088,-0.208997,-0.222531,0.056817,57.414157,-88.771627,-59.33764
138188,-0.192151,-0.214861,0.055758,61.691034,-88.860686,-63.725529
138288,-0.181945,-0.210463,0.05289,66.583047,-88.939651,-68.722695
138388,-0.165203,-0.205506,0.04905,72.111588,-89.006534,-74.34678
138488,-0.148606,-0.197464,0.048271,78.113438,-89.06137,-80.434631
138588,-0.13581,-0.190121,0.05116,84.508471,-89.105847,-86.908298
138688,-0.126819,-0.193493,0.055594,91.616249,-89.140502,-94.089572
138788,-0.125242,-0.203066,0.065889,99.632073,-89.165773,-102.178033
138888,-0.124855,-0.211245,0.073577,108.37819,-89.176495,-110.996606
138988,-0.124082,-0.216073,0.075098,117.33939,-89.167147,-120.029843
139088,-0.115263,-0.209835,0.070086,125.59385,-89.137743,-128.351256
139188,-0.108708,-0.209224,0.059943,132.890877,-89.087664,-135.711456
139288,-0.103569,-0.203224,0.050399,138.958973,-89.023345,-141.839734
139388,-0.098491,-0.201342,0.043346,144.011603,-88.947891,-146.949607
139488,-0.09448,-0.206625,0.042762,148.422878,-88.862549,-151.415842
139588,-0.089122,-0.219901,0.042485,152.356599,-88.764556,-155.401495
139688,-0.082304,-0.231183,0.039651,155.749367,-88.654998,-158.842308
139788,-0.074478,-0.244223,0.043,158.800066,-88.535145,-161.936628
139888,-0.070496,-0.252174,0.050041,161.572304,-88.408715,-164.750278
139988,-0.068265,-0.255061,0.059707,164.122404,-88.27903,-167.340596
140088,-0.074322,-0.254025,0.067298,166.431468,-88.147997,-169.693411
140188,-0.092198,-0.243481,0.073194,168.480068,-88.020925,-171.79604
140288,-0.111594,-0.232425,0.077906,170.307896,-87.898282,-173.689037
140388,-0.127942,-0.22519,0.07646,171.882445,-87.777664,-175.338101
140488,-0.131777,-0.229556,0.07104,173.218051,-87.652626,-176.750373
140588,-0.126672,-0.236017,0.059962,174.277471,-87.522081,-177.883421
140688,-0.118582,-0.23939,0.046068,175.059649,-87.388146,-178.734433
140788,-0.113687,-0.233432,0.032812,175.600896,-87.256601,-179.341536
140888,-0.112935,-0.223758,0.032031,176.073664,-87.130345,-179.879716
140988,-0.114939,-0.210486,0.037934,176.559039,-87.011721,179.568272
141088,-0.115935,-0.203572,0.046775,177.094372,-86.897126,178.965602
141188,-0.119603,-0.199486,0.058347,177.703819,-86.784894,178.286534
141288,-0.120441,-0.200987,0.071736,178.401832,-86.671677,177.518199
141388,-0.123278,-0.210374,0.082175,179.150474,-86.552693,176.697425
141488,-0.116398,-0.220522,0.081277,179.841986,-86.427316,175.937729
141588,-0.104836,-0.22445,0.080672,-179.515456,-86.299181,175.233613
141688,-0.088749,-0.221205,0.075017,-178.957272,-86.172511,174.623187
141788,-0.069703,-0.217295,0.067478,-178.487705,-86.047851,174.112426
141888,-0.05828,-0.203473,0.060535,-178.093846,-85.930999,173.684043
141988,-0.056992,-0.184262,0.05747,-177.740306,-85.825053,173.296761
142088,-0.059672,-0.171153,0.056697,-177.408105,-85.726499,172.929284
142188,-0.073158,-0.164053,0.061247,-177.062643,-85.631768,172.54071
142288,-0.082847,-0.159548,0.067512,-176.690525,-85.539277,172.119782
142388,-0.071877,-0.156503,0.073321,-176.285319,-85.448146,171.671913
142488,-0.049749,-0.157674,0.073784,-175.881833,-85.356122,171.238428
142588,-0.025928,-0.155607,0.062845,-175.555556,-85.265554,170.896048
142688,0.002774,-0.15257,0.041136,-175.370815,-85.177592,170.712155
142788,0.022349,-0.14712,0.023882,-175.293223,-85.093523,170.647028
142888,0.036656,-0.15392,0.021612,-175.228341,-85.005695,170.602879
142988,0.040314,-0.150018,0.029965,-175.107378,-84.919713,170.504528
143088,0.03722,-0.143813,0.045276,-174.891621,-84.836498,170.30921
143188,0.029136,-0.146846,0.064407,-174.569888,-84.750467,170.002798
143288,0.026067,-0.160484,0.079135,-174.178572,-84.655662,169.624694
143388,0.035997,-0.18168,0.086041,-173.767561,-84.548135,169.232457
143488,0.047049,-0.206244,0.079908,-173.418481,-84.426802,168.908723
143588,0.056073,-0.227089,0.049511,-173.266703,-84.295537,168.788367
143688,0.064438,-0.234953,0.009739,-173.343799,-84.162491,168.902829
143788,0.069356,-0.214031,-0.028234,-173.60886,-84.043818,169.209101
143888,0.071346,-0.17108,-0.051225,-173.961233,-83.950876,169.604359
143988,0.066425,-0.127745,-0.052714,-174.290438,-83.882474,169.973535
144088,0.05572,-0.109338,-0.031003,-174.494387,-83.823164,170.210605
144188,0.029145,-0.118474,-0.003197,-174.568321,-83.757058,170.301606
144288,0.008284,-0.13732,0.024638,-174.517712,-83.678688,170.255303
144388,0.001217,-0.136412,0.048038,-174.352521,-83.599534,170.08963
144488,0.001631,-0.130783,0.061791,-174.119118,-83.522743,169.855525
144588,0.005067,-0.129741,0.058815,-173.903708,-83.446617,169.641472
144688,0.013994,-0.131222,0.042623,-173.768787,-83.370553,169.513551
144788,0.027462,-0.128996,0.024579,-173.715962,-83.296848,169.476026
144888,0.037469,-0.116311,0.013466,-173.705404,-83.231054,169.486822
144988,0.043161,-0.095906,0.013018,-173.683219,-83.17691,169.48919
145088,0.034924,-0.090049,0.019192,-173.633736,-83.125727,169.459309
145188,0.024685,-0.090943,0.023503,-173.570976,-83.073783,169.410139
145288,0.007389,-0.094248,0.029723,-173.491797,-83.019574,169.334437
145388,-0.013399,-0.101491,0.031898,-173.419701,-82.9611,169.253858
145488,-0.032601,-0.106254,0.032765,-173.358717,-82.899852,169.173374
145588,-0.049978,-0.112087,0.033264,-173.310061,-82.835242,169.095261
145688,-0.068446,-0.115636,0.037421,-173.256622,-82.768321,169.001644
145788,-0.078043,-0.128867,0.03709,-173.21871,-82.693887,168.918116
145888,-0.065998,-0.139533,0.034611,-173.191711,-82.61357,168.852533
145988,-0.037458,-0.134913,0.032085,-173.157797,-82.536095,168.796456
146088,-0.003993,-0.119218,0.039874,-173.063669,-82.467065,168.698979
146188,0.019733,-0.088664,0.045225,-172.918322,-82.415073,168.563541
146288,0.023012,-0.056394,0.04163,-172.770615,-82.381684,168.427607
146388,-0.005311,-0.027578,0.034032,-172.656772,-82.365199,168.309459
146488,-0.049363,-0.016718,0.017474,-172.633098,-82.356072,168.256812
146588,-0.090452,-0.020099,-0.003578,-172.724457,-82.346548,168.296465
146688,-0.122873,-0.013243,-0.017149,-172.888468,-82.341885,168.390672
146788,-0.148343,0.010704,-0.017956,-173.058259,-82.350882,168.475979
146888,-0.105515,0.093665,0.000869,-173.081173,-82.405784,168.43785
146988,-0.110677,0.077868,-0.006387,-173.146296,-82.452227,168.439325
147088,-0.144738,-0.022817,0.014797,-173.192128,-82.439953,168.401653
147188,-0.142753,0.020148,0.023034,-173.179053,-82.451624,168.305712
147288,-0.149155,0.096656,0.022185,-173.132842,-82.506928,168.172664
147388,-0.179393,0.127883,0.022496,-173.084335,-82.57998,168.019855
147488,-0.194243,0.139239,0.031786,-172.994819,-82.65884,167.817149
147588,-0.197948,0.164356,0.038776,-172.858574,-82.75145,167.565242
147688,-0.197762,0.174374,0.044561,-172.684775,-82.849266,167.275652
147788,-0.211784,0.176127,0.055053,-172.463034,-82.94719,166.929725
147888,-0.239072,0.187167,0.057956,-172.228118,-83.05101,166.554854
147988,-0.239169,0.188152,0.05677,-171.988633,-83.155303,166.175417
148088,-0.20848,0.17191,0.054326,-171.744654,-83.25039,165.80925
148188,-0.185848,0.126865,0.039204,-171.584468,-83.32104,165.540582
148288,-0.160681,0.087274,0.025342,-171.501372,-83.370355,165.364089
148388,-0.139985,0.069626,0.01506,-171.467037,-83.410549,165.24865
148488,-0.129077,0.057889,0.01269,-171.444889,-83.444326,165.151792
148588,-0.110065,0.070868,0.020291,-171.362614,-83.484828,165.005401
148688,-0.123902,0.094654,0.021827,-171.259868,-83.538661,164.830454
148788,-0.088827,0.069722,0.033978,-171.091962,-83.577253,164.61019
148888,-0.067377,0.051958,0.047909,-170.85237,-83.604445,164.330185
148988,-0.048119,0.064942,0.05954,-170.528705,-83.637759,163.976714
149088,-0.018507,0.068814,0.069719,-170.128569,-83.672046,163.563405
149188,0.018252,0.074216,0.07536,-169.668578,-83.7085,163.111101
149288,0.062009,0.095123,0.065625,-169.207319,-83.757399,162.682787
149388,0.084527,0.116658,0.037558,-168.849233,-83.821191,162.371283
149488,0.086654,0.115636,0.009646,-168.630171,-83.887411,162.200874
149588,0.086092,0.097536,-0.009092,-168.525711,-83.945603,162.145414
149688,0.076655,0.101793,-0.013706,-168.444785,-84.00679,162.108193
149788,0.057886,0.076504,-0.021667,-168.444101,-84.054767,162.140843
149888,0.057344,0.049351,-0.025475,-168.494554,-84.088014,162.224591
149988,0.065417,0.052917,-0.027878,-168.550153,-84.123613,162.318158
150088,0.069462,0.052083,-0.029907,-168.616131,-84.159043,162.424482
150188,0.070836,0.038203,-0.033326,-168.716157,-84.187115,162.56582
150288,0.067967,0.031297,-0.037645,-168.850019,-84.211823,162.739512
150388,0.072319,0.024821,-0.036202,-168.981031,-84.23275,162.912844
150488,0.067381,0.012498,-0.029719,-169.092239,-84.246042,163.063428
150588,0.075829,-0.000686,-0.012194,-169.114481,-84.250027,163.129465
150688,0.102663,-0.027307,0.006892,-169.042659,-84.236995,163.116423
150788,0.134992,-0.07142,0.014541,-168.957049,-84.198345,163.108145
150888,0.166744,-0.11569,0.013565,-168.906332,-84.134947,163.153233
150988,0.18333,-0.146503,0.004036,-168.929984,-84.055319,163.28265
151088,0.191704,-0.167023,-0.013495,-169.061046,-83.966094,163.524915
151188,0.194364,-0.197968,-0.031644,-169.310564,-83.861364,163.887885
151288,0.191893,-0.228545,-0.047041,-169.658704,-83.740871,164.348714
151388,0.185079,-0.245826,-0.0558,-170.054353,-83.611263,164.853529
151488,0.179035,-0.237374,-0.055328,-170.425693,-83.486098,165.330525
151588,0.181888,-0.212006,-0.050461,-170.735381,-83.374592,165.747222
151688,0.199163,-0.1863,-0.048773,-170.995445,-83.277327,166.124013
151788,0.227166,-0.181101,-0.046987,-171.217999,-83.182745,166.479264
151888,0.256796,-0.183079,-0.046287,-171.413622,-83.086909,166.824562
151988,0.286678,-0.186477,-0.046869,-171.589512,-82.989143,167.167301
152088,0.306958,-0.190125,-0.0524,-171.77392,-82.889722,167.53041
152188,0.31481,-0.199687,-0.057435,-171.974486,-82.785227,167.914422
152288,0.317964,-0.199799,-0.057449,-172.164664,-82.680612,168.289877
152388,0.319724,-0.187953,-0.057136,-172.337287,-82.582661,168.648737
152488,0.318615,-0.172638,-0.058641,-172.501222,-82.493504,168.998274
152588,0.324824,-0.163854,-0.05913,-172.652667,-82.409365,169.338871
152688,0.332225,-0.162246,-0.064332,-172.815445,-82.32651,169.69525
152788,0.347267,-0.162271,-0.074565,-173.006758,-82.244337,170.089189
152888,0.364531,-0.145135,-0.089931,-173.237288,-82.172896,170.532764
152988,0.373592,-0.122934,-0.106585,-173.514649,-82.115044,171.028921
153088,0.375518,-0.1167,-0.11686,-173.824437,-82.061158,171.558996
153188,0.381025,-0.114479,-0.120711,-174.140044,-82.008478,172.098198
153288,0.380623,-0.12221,-0.123944,-174.466196,-81.951267,172.647885
153388,0.387361,-0.122489,-0.121332,-174.771899,-81.893453,173.180892
153488,0.398789,-0.102248,-0.124888,-175.072508,-81.847085,173.715432
153588,0.391726,-0.096513,-0.133348,-175.40417,-81.804084,174.277309
153688,0.371545,-0.093223,-0.140846,-175.771311,-81.76292,174.863403
153788,0.355651,-0.077765,-0.143502,-176.14915,-81.73029,175.451155
153888,0.337282,-0.071419,-0.14098,-176.522235,-81.700788,176.023508
153988,0.323825,-0.081647,-0.137149,-176.88674,-81.664935,176.579439
154088,0.315917,-0.074243,-0.132992,-177.234283,-81.632869,177.113686
154188,0.293339,-0.033744,-0.130832,-177.576522,-81.623644,177.629519
154288,0.280414,0.028226,-0.132574,-177.923556,-81.649676,178.142693
154388,0.286153,0.112723,-0.140785,-178.292736,-81.723972,178.681498
154488,0.290164,0.178224,-0.150511,-178.700913,-81.835577,179.261888
154588,0.297676,0.212809,-0.153164,-179.127135,-81.966579,179.864668
154688,0.301483,0.225498,-0.147616,-179.544855,-82.104339,-179.539145
154788,0.290931,0.220485,-0.144098,-179.971705,-82.238739,-178.94005
154888,0.262767,0.213109,-0.135824,179.602964,-82.368428,-178.358966
154988,0.236014,0.225722,-0.117073,179.225879,-82.504986,-177.842201
155088,0.211781,0.237126,-0.097672,178.903634,-82.647875,-177.394908
155188,0.208902,0.225797,-0.075498,178.666552,-82.784245,-177.035274
155288,0.206394,0.191902,-0.0648,178.470617,-82.901117,-176.718657
155388,0.200044,0.13177,-0.051811,178.332011,-82.983544,-176.46354
155488,0.181851,0.062982,-0.042706,178.23159,-83.026551,-176.257429
155588,0.150875,0.002693,-0.039786,178.13461,-83.034933,-176.072678
155688,0.106507,-0.039153,-0.044894,177.994539,-83.019112,-175.87013
155788,0.051697,-0.071222,-0.051117,177.800086,-82.984649,-175.644429
155888,-0.005017,-0.078146,-0.057905,177.544525,-82.9459,-175.389895
155988,-0.082146,-0.045123,-0.060162,177.229204,-82.925786,-175.119673
156088,-0.178106,0.011633,-0.062724,176.833838,-82.9378,-174.824209
156188,-0.271774,0.081001,-0.058004,176.384845,-82.989292,-174.528825
156288,-0.338442,0.165052,-0.050163,175.900661,-83.088707,-174.236531
156388,-0.376832,0.192169,-0.032691,175.456203,-83.203898,-174.006476
156488,-0.400567,0.15658,-0.016586,175.079276,-83.299113,-173.858173
156588,-0.408185,0.102698,-0.004766,174.77217,-83.363845,-173.78459
156688,-0.399832,0.061153,0.001271,174.515103,-83.404944,-173.756574
156788,-0.375196,0.019141,0.015339,174.360249,-83.422655,-173.817244
156888,-0.336147,-0.03211,0.036492,174.357063,-83.412153,-174.008066
156988,-0.28894,-0.08067,0.04543,174.447575,-83.374279,-174.26599
157088,-0.236054,-0.095606,0.05399,174.614828,-83.328159,-174.570688
157188,-0.192476,-0.072962,0.054559,174.796468,-83.294788,-174.864757
157288,-0.154119,-0.05477,0.057449,175.00389,-83.271747,-175.162673
157388,-0.136186,-0.094983,0.063494,175.264816,-83.22582,-175.50414
157488,-0.142607,-0.115633,0.060493,175.511188,-83.167729,-175.83469
157588,-0.152671,-0.10809,0.058147,175.733074,-83.113667,-176.146425
157688,-0.16782,-0.096851,0.065052,175.970699,-83.066172,-176.482791
157788,-0.197474,-0.090294,0.072517,176.22001,-83.022572,-176.848082
157888,-0.23346,-0.082916,0.079536,176.475028,-82.983292,-177.239934
157988,-0.254772,-0.063196,0.085765,176.737517,-82.955332,-177.65165
158088,-0.265422,-0.050136,0.086766,176.992286,-82.934688,-178.061762
158188,-0.261125,-0.035189,0.085146,177.23651,-82.922367,-178.458786
158288,-0.253202,-0.018344,0.083261,177.471904,-82.919465,-178.842347
158388,-0.24017,0.00158,0.081214,177.701416,-82.927764,-179.212452
158488,-0.229614,0.021263,0.087238,177.962416,-82.947304,-179.608177
158588,-0.224808,0.033685,0.095419,178.26431,-82.973907,179.957689
158688,-0.234279,0.025778,0.101402,178.592237,-82.995808,179.491885
158788,-0.236833,0.016155,0.098731,178.909225,-83.011861,179.035647
158888,-0.256897,-0.00805,0.091655,179.184423,-83.01371,178.609935
158988,-0.263687,-0.010539,0.083756,179.41863,-83.013872,178.2216
159088,-0.266486,-0.009906,0.080271,179.634476,-83.014235,177.850143
159188,-0.269469,-0.041438,0.08319,179.861967,-82.996403,177.465221
159288,-0.25578,-0.076897,0.084328,-179.899936,-82.958109,177.077486
159388,-0.233195,-0.085982,0.086178,-179.644507,-82.914456,176.685288
159488,-0.219786,-0.088676,0.083661,-179.397418,-82.869118,176.309196
159588,-0.2049,-0.083236,0.080857,-179.158455,-82.826785,175.949849
159688,-0.185536,-0.060531,0.074695,-178.93816,-82.797415,175.62047
159788,-0.168324,-0.036559,0.066303,-178.746055,-82.7818,175.329425
159888,-0.148569,-0.02185,0.054978,-178.593506,-82.77473,175.089649
159988,-0.127617,-0.012431,0.045162,-178.472841,-82.773207,174.894107
160088,-0.102348,-0.002023,0.036803,-178.374497,-82.777814,174.735653
160188,-0.067495,0.025737,0.032237,-178.273128,-82.798449,174.594281
160288,-0.039137,0.086544,0.036785,-178.125227,-82.853879,174.422395
160388,-0.028392,0.153632,0.051562,-177.889339,-82.947448,174.168076
160488,-0.038015,0.206542,0.074207,-177.535634,-83.070701,173.789565
160588,-0.070642,0.241583,0.104203,-177.035252,-83.212904,173.244602
160688,-0.130209,0.260975,0.133195,-176.399142,-83.36463,172.528781
160788,-0.211116,0.254589,0.15949,-175.649397,-83.510662,171.652134
160888,-0.296235,0.2361,0.176606,-174.833602,-83.643976,170.660188
160988,-0.366045,0.2321,0.17946,-174.008287,-83.773321,169.618675
161088,-0.375395,0.253277,0.164414,-173.216769,-83.914172,168.606034
161188,-0.302191,0.310923,0.140664,-172.428624,-84.088147,167.639256
161288,-0.177729,0.447488,0.106264,-171.595219,-84.341103,166.69904
161388,-0.036917,0.615602,0.06465,-170.680046,-84.691595,165.758236
161488,0.074429,0.699226,0.038898,-169.635462,-85.090322,164.752149
161588,0.095284,0.719927,0.047339,-168.30625,-85.497859,163.473095
161688,0.000812,0.753764,0.077248,-166.478368,-85.917505,161.640443
161788,-0.096073,0.754896,0.112875,-163.983395,-86.326988,159.084509
161888,-0.105728,0.649895,0.141984,-160.937783,-86.665009,155.972459
161988,-0.054856,0.454865,0.148653,-157.915103,-86.886156,152.913475
162088,0.006249,0.249198,0.122313,-155.635351,-86.996387,150.634032
162188,0.096745,0.032651,0.090928,-154.510074,-86.997679,149.562697
162288,0.164028,-0.184528,0.059075,-154.675617,-86.893637,149.822574
162388,0.198309,-0.315475,0.024196,-155.683662,-86.729489,150.945962
162488,0.24576,-0.352601,-0.000344,-156.917311,-86.550111,152.322766
162588,0.265605,-0.289295,-0.032638,-158.067828,-86.409528,153.627902
162688,0.315476,-0.154081,-0.05764,-158.8752,-86.344781,154.617984
162788,0.372549,-0.007578,-0.075371,-159.310152,-86.361237,155.267685
162888,0.389907,0.12556,-0.088976,-159.433423,-86.451443,155.61502
162988,0.360085,0.211719,-0.085039,-159.262611,-86.586877,155.650571
163088,0.327212,0.257395,-0.066806,-158.76957,-86.74286,155.344478
163188,0.327585,0.293026,-0.039336,-157.824771,-86.911614,154.586201
163288,0.373282,0.295839,-0.029417,-156.640456,-87.078694,153.614419
163388,0.403304,0.273282,-0.020145,-155.321141,-87.230491,152.524831
163488,0.392403,0.213494,-0.020132,-154.196794,-87.349952,151.624301
163588,0.356464,0.144446,-0.034475,-153.565537,-87.436712,151.19683
163688,0.289695,0.094964,-0.062238,-153.560016,-87.504959,151.357435
163788,0.227688,0.048924,-0.085316,-154.149066,-87.555233,152.077594
163888,0.155034,-0.003843,-0.094013,-155.21993,-87.579787,153.238312
163988,0.103974,-0.043057,-0.092739,-156.54089,-87.582446,154.620052
164088,0.04498,-0.056851,-0.096783,-158.019099,-87.577242,156.12535
164188,-0.021526,-0.04594,-0.101969,-159.541924,-87.577239,157.637165
164288,-0.070536,-0.047321,-0.111546,-161.220078,-87.576507,159.276339
164388,-0.110028,-0.067142,-0.124658,-163.165319,-87.565027,161.160199
164488,-0.107733,-0.080468,-0.13586,-165.279138,-87.54508,163.214125
164588,-0.079532,-0.091073,-0.147628,-167.522499,-87.517442,165.413919
164688,-0.050111,-0.101648,-0.15085,-169.762201,-87.480475,167.626976
164788,-0.030286,-0.11953,-0.145856,-171.89111,-87.429218,169.740573
164888,-0.017995,-0.135597,-0.135324,-173.817125,-87.364742,171.658209
164988,-0.016502,-0.149187,-0.118525,-175.457159,-87.288906,173.290515
165088,-0.027558,-0.171769,-0.105945,-176.878824,-87.197654,174.69797
165188,-0.037491,-0.184058,-0.093231,-178.075705,-87.097523,175.874777
165288,-0.042279,-0.175555,-0.07581,-179.002692,-87.000954,176.778686
165388,-0.045988,-0.162808,-0.057159,-179.674884,-86.910937,177.425389
165488,-0.04891,-0.159116,-0.04052,179.861513,-86.82269,177.86157
165588,-0.050154,-0.154683,-0.030833,179.519769,-86.736853,178.175024
165688,-0.047204,-0.14477,-0.027679,179.227386,-86.656623,178.440755
165788,-0.046229,-0.132101,-0.024109,178.981861,-86.583609,178.660129
165888,-0.03436,-0.113125,-0.021825,178.771522,-86.521442,178.851083
165988,-0.016528,-0.096489,-0.023283,178.561913,-86.468747,179.051555
166088,0.003952,-0.079134,-0.039077,178.221277,-86.425689,179.395076
166188,0.012461,-0.063637,-0.054017,177.753354,-86.391071,179.871033
166288,0.005273,-0.041728,-0.073758,177.103437,-86.368219,-179.474764
166388,-0.009102,-0.004756,-0.093758,176.253339,-86.365335,-178.628222
166488,-0.021615,0.027456,-0.105775,175.266155,-86.379509,-177.65151
166588,-0.021561,0.046773,-0.120005,174.125329,-86.402806,-176.520841
166688,0.013278,0.031619,-0.139413,172.831382,-86.414683,-175.216773
166788,0.06871,-0.002104,-0.162537,171.398571,-86.403631,-173.741749
166888,0.124843,-0.021631,-0.191417,169.781952,-86.37636,-172.050294
166988,0.175277,-0.025972,-0.215823,168.015165,-86.340821,-170.179357
167088,0.198462,-0.028489,-0.222458,166.247589,-86.299412,-168.294238
167188,0.179386,0.017754,-0.226042,164.37243,-86.279375,-166.312202
167288,0.124079,0.154795,-0.217185,162.194775,-86.331626,-164.058841
167388,0.035586,0.376553,-0.191954,159.412468,-86.502488,-161.25074
167488,-0.053733,0.630364,-0.16171,155.535612,-86.804061,-157.39821
167588,-0.098085,0.833393,-0.138269,149.935853,-87.19588,-151.84719
167688,-0.097527,0.926294,-0.138053,141.85537,-87.594891,-143.814473
167788,-0.103522,0.91583,-0.16757,130.712928,-87.911713,-132.723028
167888,-0.111258,0.80983,-0.229808,117.508916,-88.065624,-119.574855
167988,-0.135332,0.545499,-0.279414,107.059711,-88.03689,-109.197324
168088,-0.195249,0.197263,-0.288032,102.603283,-87.906776,-104.85014
168188,-0.241267,-0.101712,-0.237362,103.111986,-87.761683,-105.497624
168288,-0.244373,-0.298149,-0.185789,106.34823,-87.615744,-108.876707
168388,-0.224702,-0.409668,-0.147366,110.732904,-87.461535,-113.394356
168488,-0.173018,-0.455038,-0.124326,115.234558,-87.294692,-118.000019
168588,-0.125683,-0.441609,-0.10662,119.177843,-87.125285,-122.020133
168688,-0.099156,-0.359785,-0.075951,122.110067,-86.983432,-125.013176
168788,-0.070007,-0.239498,-0.048304,123.912258,-86.886121,-126.858171
168888,-0.058235,-0.143146,-0.034875,124.881494,-86.823904,-127.862335
168988,-0.064778,-0.101736,-0.017795,125.569496,-86.782489,-128.588626
169088,-0.078331,-0.085784,0.016485,126.308163,-86.761768,-129.373457
169188,-0.112389,-0.100078,0.063637,127.421871,-86.756989,-130.553476
169288,-0.148955,-0.116642,0.115625,128.972706,-86.768177,-132.192297
169388,-0.176502,-0.141693,0.17021,131.076495,-86.791119,-134.400719
169488,-0.204665,-0.188283,0.220445,133.896578,-86.811907,-137.342662
169588,-0.220418,-0.224704,0.238328,137.129908,-86.816294,-140.707491
169688,-0.1961,-0.242694,0.224645,140.384827,-86.797157,-144.080011
169788,-0.111599,-0.189906,0.220025,143.280206,-86.790118,-147.043979
169888,-0.03748,-0.149472,0.203414,145.826556,-86.788548,-149.615848
169988,0.013581,-0.172027,0.160037,148.139938,-86.756443,-151.925119
170088,0.050456,-0.193741,0.110082,150.100067,-86.694103,-153.859506
170188,0.079166,-0.175886,0.079364,151.656217,-86.62875,-155.372875
170288,0.078068,-0.178583,0.069693,153.081147,-86.55717,-156.755532
170388,0.038371,-0.186628,0.070598,154.46499,-86.479679,-158.119921
170488,-0.012648,-0.162146,0.079749,155.743889,-86.415215,-159.408557
170588,-0.042844,-0.137129,0.087584,156.935957,-86.363976,-160.62761
170688,-0.067679,-0.094305,0.082822,157.897104,-86.332911,-161.629587
170788,-0.069325,-0.060046,0.084851,158.746996,-86.319512,-162.52105
170888,-0.064051,-0.052823,0.087714,159.594586,-86.309721,-163.407191
170988,-0.051144,-0.069233,0.082192,160.447027,-86.289174,-164.2908
171088,-0.041997,-0.094508,0.077644,161.327908,-86.253237,-165.197685
171188,-0.038973,-0.127544,0.081793,162.314302,-86.199115,-166.208623
171288,-0.034076,-0.15575,0.088988,163.402021,-86.129583,-167.318376
171388,-0.023736,-0.171772,0.095149,164.541084,-86.050788,-168.473753
171488,-0.008426,-0.170596,0.100334,165.681672,-85.971873,-169.621977
171588,-0.002836,-0.146427,0.096317,166.705078,-85.904383,-170.649619
171688,0.005078,-0.120444,0.093742,167.635336,-85.849869,-171.579405
171788,0.008039,-0.09727,0.08816,168.463648,-85.806685,-172.405334
171888,-0.004072,-0.05959,0.085608,169.19353,-85.783609,-173.139562
171988,-0.012624,-0.028779,0.081555,169.837226,-85.77685,-173.792299
172088,-0.018981,-0.021382,0.08295,170.476028,-85.773887,-174.443786
172188,-0.013494,-0.024934,0.084044,171.129367,-85.768501,-175.106702
172288,-0.006841,-0.020718,0.083459,171.775395,-85.764936,-175.758471
172388,0.023112,0.007829,0.084115,172.413122,-85.777133,-176.384703
172488,0.049271,0.080143,0.094655,173.082862,-85.830716,-177.02798
172588,0.05262,0.156897,0.119963,173.906805,-85.929056,-177.823874
172688,0.017778,0.205614,0.152129,174.979434,-86.05603,-178.88896
172788,-0.04187,0.211879,0.181813,176.338602,-86.18628,179.724667
172888,-0.114433,0.199733,0.206787,177.976953,-86.307803,178.017053
172988,-0.191431,0.171335,0.223853,179.839046,-86.409786,176.041254
173088,-0.239793,0.165825,0.216593,-178.287791,-86.504551,174.026816
173188,-0.217627,0.209149,0.196351,-176.465213,-86.620632,172.076004
173288,-0.128416,0.295246,0.171655,-174.624816,-86.783277,170.158825
173388,-0.00494,0.438859,0.148043,-172.56646,-87.025463,168.094601
173488,0.095292,0.657521,0.111886,-170.062309,-87.390124,165.642125
173588,0.137405,0.881984,0.10715,-166.0132,-87.873991,161.668372
173688,0.119533,0.947571,0.132223,-158.733464,-88.371428,154.453321
173788,0.045394,0.865732,0.173348,-145.928801,-88.769002,141.670799
173888,0.072157,0.795142,0.202837,-124.901133,-89.017776,120.680703
173988,0.118919,0.693849,0.214081,-99.901531,-89.058093,95.745847
174088,0.21797,0.530744,0.234437,-82.189787,-88.92855,78.156346
174188,0.304637,0.315624,0.216435,-74.381765,-88.770481,70.521361
174288,0.389207,0.101912,0.153379,-72.713488,-88.669995,69.075743
174388,0.476079,-0.08315,0.081817,-74.900003,-88.638625,71.53573
174488,0.531716,-0.203491,0.017598,-79.464505,-88.655119,76.406258
174588,0.518655,-0.240638,-0.015951,-84.961178,-88.683416,82.201675
174688,0.421841,-0.235546,-0.03831,-90.583113,-88.711219,88.066836
174788,0.324458,-0.209636,-0.047502,-95.814535,-88.732338,93.485518
174888,0.267171,-0.15058,-0.042877,-99.672916,-88.745686,97.497958
174988,0.257183,-0.091064,-0.02961,-101.999192,-88.753134,99.972188
175088,0.254556,-0.054899,-0.012723,-103.320181,-88.753896,101.439381
175188,0.26764,-0.054685,0.006228,-104.505521,-88.743389,102.778393
175288,0.29178,-0.04429,0.016545,-105.32674,-88.728146,103.767034
175388,0.337924,-0.000604,0.012124,-105.05559,-88.721779,103.689484
175488,0.363166,0.044783,-0.002047,-103.733537,-88.729719,102.575239
175588,0.342521,0.07444,-0.021085,-101.757139,-88.75136,100.794666
175688,0.279742,0.092277,-0.049111,-99.406986,-88.789225,98.604296
175788,0.206581,0.073154,-0.086978,-97.628268,-88.845266,96.943596
175888,0.148262,0.029216,-0.129904,-97.172668,-88.921827,96.572884
175988,0.114486,-0.012888,-0.164555,-98.202926,-89.014918,97.668928
176088,0.083299,-0.058742,-0.180503,-101.24277,-89.111871,100.756924
176188,0.006576,-0.107697,-0.167068,-106.841831,-89.190538,106.360379
176288,-0.083648,-0.131523,-0.154481,-114.352096,-89.247689,113.823422
176388,-0.142946,-0.129691,-0.136748,-122.44197,-89.282034,121.832065
176488,-0.181004,-0.102721,-0.119482,-129.677298,-89.303427,128.96424
176588,-0.197568,-0.064508,-0.1097,-135.635982,-89.325262,134.810156
176688,-0.184822,-0.032125,-0.107349,-140.799647,-89.353148,139.868273
176788,-0.161778,-0.009982,-0.104665,-145.584441,-89.385103,144.56067
176888,-0.15828,-0.005806,-0.105497,-150.770571,-89.414732,149.656402
176988,-0.143194,-0.024648,-0.110129,-157.122133,-89.43031,155.926249
177088,-0.143789,-0.068882,-0.120028,-164.973828,-89.415778,163.695962
177188,-0.134105,-0.116809,-0.133168,-173.317841,-89.364735,171.963614
177288,-0.123625,-0.155129,-0.144044,179.213544,-89.28045,179.36192
177388,-0.104077,-0.164783,-0.152442,173.100187,-89.180647,-174.583804
177488,-0.092032,-0.157006,-0.153468,168.264165,-89.077943,-169.799955
177588,-0.084944,-0.146997,-0.146128,164.558571,-88.976764,-166.1425
177688,-0.076562,-0.132852,-0.131041,161.820036,-88.882594,-163.447358
177788,-0.071912,-0.114721,-0.125819,159.472207,-88.797133,-161.140257
177888,-0.05616,-0.08009,-0.125213,157.117399,-88.728438,-158.817084
177988,-0.042908,-0.035634,-0.127582,154.493155,-88.680348,-156.21676
178088,-0.035206,0.001703,-0.127291,151.643302,-88.648694,-153.38631
178188,-0.037107,0.034315,-0.125932,148.553378,-88.630291,-150.316784
178288,-0.043673,0.037896,-0.123705,145.545204,-88.61049,-147.332772
178388,-0.038817,0.033255,-0.12082,142.750102,-88.585926,-144.559085
178488,-0.018995,0.048588,-0.123531,139.79479,-88.56391,-141.613752
178588,0.008165,0.075078,-0.131748,136.407295,-88.546068,-138.220509
178688,0.046912,0.101344,-0.138659,132.601165,-88.530659,-134.386264
178788,0.103122,0.108068,-0.143991,128.733239,-88.508969,-130.457955
178888,0.154015,0.105885,-0.1432,125.071034,-88.480315,-126.706225
178988,0.195992,0.121683,-0.139417,121.340233,-88.452183,-122.861768
179088,0.22058,0.154698,-0.137945,117.177849,-88.427069,-118.57143
179188,0.240603,0.201751,-0.144096,112.242407,-88.400882,-113.496212
179288,0.248342,0.266449,-0.155343,106.197623,-88.367519,-107.306708
179388,0.217494,0.31752,-0.168553,99.417224,-88.313968,-100.398835
179488,0.158108,0.383897,-0.174813,91.866927,-88.235993,-92.754532
179588,0.074487,0.50038,-0.1846,83.011818,-88.117202,-83.8523
179688,0.010319,0.647143,-0.199654,73.145081,-87.927749,-73.973852
179788,-0.014151,0.803247,-0.197321,63.121779,-87.649851,-63.951304
179888,-0.012203,0.851272,-0.194377,54.900848,-87.301655,-55.729489
179988,-0.006793,0.76158,-0.197959,49.408473,-86.943186,-50.234143
180088,-0.0354,0.505439,-0.195894,46.856683,-86.66553,-47.69872
180188,-0.146867,0.117228,-0.167585,47.043241,-86.548909,-47.969906
180288,-0.263562,-0.253853,-0.134187,49.551288,-86.587799,-50.633733
180388,-0.266813,-0.530156,-0.110982,54.157166,-86.725136,-55.400571
180488,-0.196363,-0.696287,-0.107401,60.663843,-86.88809,-62.03
180588,-0.116784,-0.739793,-0.112939,68.302427,-87.012232,-69.746361
180688,-0.129577,-0.628281,-0.09852,75.186101,-87.071149,-76.713512
180788,-0.162858,-0.397258,-0.077472,79.624732,-87.077081,-81.251336
180888,-0.171795,-0.14331,-0.042838,81.183587,-87.066146,-82.910761
180988,-0.188354,0.084525,-0.015474,80.168478,-87.049099,-82.002346
181088,-0.229025,0.244616,0.00918,77.356052,-87.026464,-79.317525
181188,-0.29992,0.324397,0.048565,73.594319,-87.006299,-75.722731
181288,-0.387975,0.285848,0.108514,70.01921,-87.013784,-72.365311
181388,-0.471102,0.137338,0.184782,67.583118,-87.083651,-70.196227
181488,-0.507687,-0.05853,0.242481,66.832214,-87.224383,-69.735597
181588,-0.471759,-0.175521,0.270513,67.24882,-87.406021,-70.423215
181688,-0.382338,-0.21262,0.260398,68.321955,-87.589919,-71.716605
181788,-0.254761,-0.212756,0.224128,69.851568,-87.753099,-73.393529
181888,-0.132467,-0.192902,0.17272,71.660825,-87.882643,-75.280012
181988,-0.062938,-0.155015,0.130329,73.350882,-87.980208,-77.007217
182088,-0.028979,-0.119034,0.108554,74.737859,-88.058367,-78.411601
182188,-0.031165,-0.091602,0.102465,75.797552,-88.128074,-79.489711
182288,-0.053589,-0.061158,0.104447,76.379057,-88.194142,-80.102201
182388,-0.083111,-0.03833,0.109837,76.546013,-88.260001,-80.316845
182488,-0.089786,-0.021085,0.120194,76.347577,-88.329302,-80.169755
182588,-0.084319,-0.003919,0.127859,75.757613,-88.400451,-79.62785
182688,-0.061698,0.026844,0.130502,74.476326,-88.468269,-78.381417
182788,-0.048253,0.049849,0.129961,72.597899,-88.531081,-76.529971
182888,-0.043964,0.039567,0.131368,70.773007,-88.594899,-74.729674
182988,-0.044579,-0.005297,0.140376,69.729705,-88.671095,-73.711596
183088,-0.044628,-0.063577,0.151104,69.898348,-88.76438,-73.905829
183188,-0.030329,-0.111597,0.163728,71.295631,-88.873555,-75.320763
183288,-0.002564,-0.149774,0.172809,74.113647,-88.993069,-78.140711
183388,0.032976,-0.183072,0.173167,78.90238,-89.11354,-82.911174
183488,0.067401,-0.215393,0.163865,86.54609,-89.221943,-90.517041
183588,0.092547,-0.229311,0.14551,96.980176,-89.300965,-100.898937
183688,0.118095,-0.220031,0.123789,108.742851,-89.341712,-112.594745
183788,0.140953,-0.186808,0.103471,119.482311,-89.351671,-123.254118
183888,0.153426,-0.150513,0.093767,128.465456,-89.347654,-132.149912
183988,0.15231,-0.109191,0.090097,135.586522,-89.34385,-139.184156
184088,0.140477,-0.077405,0.090051,141.540882,-89.344588,-145.058401
184188,0.110945,-0.077464,0.096777,147.710067,-89.340436,-151.16441
184288,0.105148,-0.103791,0.111303,154.919419,-89.318897,-158.313996
184388,0.078923,-0.120959,0.118187,162.120301,-89.279324,-165.470185
184488,0.094817,-0.055559,0.135169,168.653818,-89.268385,-171.949888
184588,0.103314,-0.005655,0.156214,175.67308,-89.277882,-178.910509
184688,0.109832,0.043545,0.173033,-176.323014,-89.304087,173.147913
184788,0.072246,0.084668,0.18971,-166.660635,-89.336878,163.526259
184888,0.025692,0.105266,0.212645,-154.858662,-89.354699,151.738249
184988,-0.022945,0.126226,0.219582,-142.027867,-89.351532,138.893501
185088,-0.038991,0.154944,0.22294,-128.746738,-89.326014,125.589161
185188,-0.0012,0.197415,0.216937,-115.381514,-89.281634,112.222281
185288,0.074516,0.286269,0.21262,-100.484876,-89.216863,97.36709
185388,0.155784,0.432757,0.201275,-83.060081,-89.109035,80.029752
185488,0.255294,0.633321,0.191884,-64.480337,-88.900009,61.593594
185588,0.340892,0.786378,0.189249,-49.759571,-88.561859,47.064708
185688,0.347022,0.831788,0.201964,-40.589236,-88.142442,38.089595
185788,0.26672,0.845481,0.237274,-35.188888,-87.675891,32.838653
185888,0.210285,0.809306,0.282614,-32.294954,-87.199932,30.06249
185988,0.147228,0.571653,0.34464,-32.05162,-86.81735,29.903332
186088,0.069596,0.187286,0.366454,-34.042524,-86.61284,31.937484
186188,0.053886,-0.182947,0.320498,-37.539192,-86.590616,35.471268
186288,0.090657,-0.497678,0.250365,-42.49154,-86.71721,40.484114
186388,0.159494,-0.70686,0.175567,-48.87959,-86.928971,46.973508
186488,0.217845,-0.826355,0.105363,-56.776531,-87.168104,55.00588
186588,0.243633,-0.840264,0.047713,-65.776591,-87.376812,64.155845
186688,0.268727,-0.69307,0.002249,-73.99011,-87.513207,72.531625
186788,0.280529,-0.450914,-0.04272,-79.58685,-87.59683,78.294329
186888,0.319575,-0.195975,-0.08141,-81.896078,-87.66154,80.788787
186988,0.364232,0.026914,-0.110141,-81.074326,-87.722199,80.175221
187088,0.394103,0.188919,-0.114713,-77.837681,-87.767493,77.162041
187188,0.399694,0.286607,-0.094347,-73.167754,-87.779156,72.717761
187288,0.397305,0.302152,-0.070324,-68.397819,-87.760617,68.172019
187388,0.37056,0.226456,-0.041772,-64.915086,-87.731595,64.899063
187488,0.317413,0.112337,-0.012891,-63.195942,-87.710549,63.360559
187588,0.240305,0.013477,-0.002465,-62.868821,-87.708838,63.170965
187688,0.138948,-0.054165,-0.00524,-63.448697,-87.726123,63.830971
187788,0.029854,-0.092115,-0.012481,-64.553656,-87.756335,64.953903
187888,-0.069297,-0.117186,-0.021674,-66.029737,-87.796378,66.391358
187988,-0.156171,-0.139627,-0.020603,-67.930063,-87.839248,68.203515
188088,-0.229827,-0.172446,-0.017959,-70.438143,-87.884706,70.581564
188188,-0.301397,-0.201022,-0.016268,-73.531108,-87.92991,73.503784
188288,-0.36069,-0.219672,-0.022407,-77.054796,-87.974979,76.822922
188388,-0.381603,-0.224017,-0.032342,-80.777141,-88.018502,80.328758
188488,-0.373338,-0.209176,-0.05282,-84.357596,-88.064645,83.697262
188588,-0.32357,-0.164013,-0.066347,-87.272312,-88.109996,86.428097
188688,-0.29567,-0.154153,-0.071469,-90.12655,-88.153485,89.114346
188788,-0.258922,-0.155324,-0.077928,-93.112584,-88.196115,91.953459
188888,-0.223898,-0.126901,-0.074901,-95.678807,-88.23381,94.392573
188988,-0.186669,-0.088304,-0.076685,-97.605751,-88.272046,96.2134
189088,-0.146929,-0.094662,-0.085055,-99.740227,-88.312462,98.264595
189188,-0.117581,-0.102749,-0.093317,-102.147946,-88.354171,100.605927
189288,-0.095292,-0.088404,-0.097533,-104.397949,-88.397293,102.802207
189388,-0.076433,-0.085404,-0.097188,-106.692331,-88.438161,105.053648
189488,-0.057134,-0.103315,-0.091443,-109.414941,-88.46994,107.744496
189588,-0.032819,-0.132564,-0.084721,-112.762605,-88.488185,111.074524
189688,-0.031792,-0.151524,-0.085059,-116.552137,-88.496518,114.847141
189788,-0.050997,-0.20027,-0.090349,-121.346254,-88.486508,119.613685
189888,-0.064781,-0.242059,-0.084136,-126.689165,-88.449073,124.921371
189988,-0.057369,-0.255167,-0.066279,-131.691529,-88.386314,129.892756
190088,-0.053152,-0.237178,-0.065852,-136.036251,-88.31958,134.208803
190188,-0.062171,-0.187973,-0.086292,-139.730055,-88.273135,137.868602
190288,-0.089007,-0.124568,-0.113361,-142.924627,-88.258345,141.013617
190388,-0.078357,-0.07642,-0.13082,-145.813895,-88.266812,143.859299
190488,-0.02436,-0.034128,-0.136842,-148.368091,-88.293414,146.400684
190588,0.033922,0.011264,-0.135395,-150.50263,-88.338856,148.555592
190688,0.07575,0.027265,-0.126766,-152.423588,-88.387718,150.520755
190788,0.116059,-0.012168,-0.12374,-154.733788,-88.41346,152.898382
190888,0.173174,-0.065059,-0.13387,-157.700057,-88.41072,155.965054
190988,0.240151,-0.079028,-0.156055,-161.132415,-88.400217,159.536395
191088,0.294296,-0.037447,-0.168981,-164.502686,-88.408809,163.076664
191188,0.301236,0.016654,-0.164832,-167.569299,-88.441404,166.317102
191288,0.250367,0.081504,-0.151652,-170.276411,-88.504554,169.168682
191388,0.174275,0.208468,-0.127205,-172.32535,-88.634392,171.318146
191488,0.106595,0.40074,-0.10523,-173.7175,-88.870502,172.771715
191588,0.070662,0.599937,-0.09945,-175.044636,-89.219168,174.139517
191688,0.07409,0.745697,-0.131841,178.758491,-89.65033,-179.620906
191788,0.100708,0.798054,-0.187177,46.541323,-89.842039,-47.345687
191888,0.12432,0.797827,-0.241359,24.096246,-89.379384,-24.829063
191988,0.117604,0.743942,-0.276624,22.569056,-88.924335,-23.234338
192088,0.069747,0.564329,-0.273886,23.425061,-88.564654,-24.050581
192188,-0.007587,0.262297,-0.22349,25.44917,-88.374255,-26.079763
192288,-0.113632,-0.05624,-0.151921,28.614484,-88.36296,-29.311496
192388,-0.210608,-0.320098,-0.089716,33.543877,-88.493306,-34.363453
192488,-0.259235,-0.481532,-0.05174,41.17706,-88.694832,-42.147486
192588,-0.214203,-0.507778,-0.055417,52.049773,-88.872222,-53.145373
192688,-0.112187,-0.446804,-0.085962,64.930494,-88.964413,-66.092645
192788,-0.016424,-0.301682,-0.114652,75.14315,-88.961434,-76.316364
192888,0.037166,-0.138944,-0.10047,80.039431,-88.922007,-81.192166
192988,0.04764,-0.042688,-0.065125,81.637868,-88.888749,-82.763577
193088,0.015744,-0.010563,-0.015189,82.017144,-88.880664,-83.133885
193188,-0.051313,0.002324,0.037521,81.765104,-88.901419,-82.911184
193288,-0.140519,0.014085,0.098367,80.807432,-88.95558,-82.033848
193388,-0.232306,-0.018016,0.158484,80.419175,-89.046551,-81.778631
193488,-0.302626,-0.077942,0.200426,81.962384,-89.166616,-83.495417
193588,-0.337697,-0.150587,0.227533,87.314096,-89.304388,-89.041082
193688,-0.341582,-0.212459,0.225967,98.764156,-89.427601,-100.687536
193788,-0.316702,-0.223819,0.210196,115.64231,-89.505286,-117.747854
193888,-0.250752,-0.191842,0.173249,132.916852,-89.525306,-135.166663
193988,-0.168695,-0.141867,0.121025,145.36814,-89.508763,-147.715035
194088,-0.089366,-0.109656,0.082654,153.533233,-89.478337,-155.931637
194188,-0.033671,-0.108925,0.055942,159.21878,-89.433658,-161.636721
194288,-0.010557,-0.117301,0.040118,163.360198,-89.377076,-165.7844
194388,-0.019431,-0.142546,0.040428,167.075008,-89.303741,-169.510579
194488,-0.059794,-0.164124,0.063319,171.149699,-89.217997,-173.619862
194588,-0.114501,-0.158354,0.084277,175.140284,-89.133474,-177.676462
194688,-0.157848,-0.13263,0.09419,178.699167,-89.060352,178.673768
194788,-0.169957,-0.111852,0.098992,-178.102373,-88.995883,175.37746
194888,-0.156539,-0.107375,0.097903,-175.318871,-88.931198,172.503802
194988,-0.121039,-0.11638,0.089212,-173.124763,-88.859692,170.239925
195088,-0.070152,-0.169931,0.084442,-171.510227,-88.756732,168.584839
195188,-0.028316,-0.242607,0.078817,-170.549916,-88.612396,167.608047
195288,0.007994,-0.317057,0.082766,-169.9475,-88.425351,167.01001
195388,0.049468,-0.359014,0.086757,-169.51909,-88.214126,166.609769
195488,0.077782,-0.35415,0.084464,-169.185287,-88.005838,166.320368
195588,0.094798,-0.341706,0.073683,-169.024108,-87.805715,166.213425
195688,0.079305,-0.327648,0.065599,-168.96611,-87.614419,166.200845
195788,0.057468,-0.303856,0.076052,-168.73598,-87.435391,166.003444
195888,0.052818,-0.230873,0.087344,-168.226493,-87.296047,165.523697
195988,0.057765,-0.142024,0.092133,-167.487255,-87.205712,164.816725
196088,0.061928,-0.089145,0.089028,-166.687523,-87.144902,164.051525
196188,0.059945,-0.064121,0.080985,-165.941513,-87.098655,163.338939
196288,0.055053,-0.060846,0.076916,-165.256094,-87.054411,162.684187
196388,0.042765,-0.07128,0.086141,-164.530754,-87.002664,161.982381
196488,0.025086,-0.048808,0.103297,-163.594558,-86.960131,161.05925
196588,-0.000925,0.004523,0.13254,-162.229562,-86.940966,159.691761
196688,-0.048516,0.058317,0.169524,-160.345764,-86.942176,157.777411
196788,-0.111964,0.066626,0.208595,-158.077314,-86.936208,155.44145
196888,-0.172146,0.034317,0.230862,-155.781411,-86.903259,153.043421
196988,-0.215722,0.002345,0.232409,-153.698137,-86.848493,150.833233
197088,-0.204114,0.046738,0.218284,-151.595521,-86.815745,148.610238
197188,-0.210608,0.108777,0.175364,-149.600227,-86.821764,146.490975
197288,-0.150053,0.278062,0.146375,-146.858658,-86.914263,143.659171
197388,-0.06149,0.452632,0.114145,-143.034004,-87.090393,139.793975
197488,-0.002328,0.557753,0.095682,-138.025598,-87.303796,134.778225
197588,0.027336,0.583526,0.085017,-132.034452,-87.507544,128.796611
197688,-0.016247,0.571179,0.107026,-125.060067,-87.665122,121.806724
197788,-0.058074,0.51941,0.135338,-117.721376,-87.755338,114.428874
197888,-0.049723,0.400076,0.170182,-111.378428,-87.76299,108.052561
197988,-0.017008,0.238573,0.193202,-107.199725,-87.704599,103.860826
198088,0.041751,0.089552,0.176607,-105.273727,-87.622671,101.957152
198188,0.122351,-0.013202,0.118174,-104.958789,-87.556163,101.71208
198288,0.214118,-0.070397,0.041394,-105.599153,-87.523443,102.475807
198388,0.287291,-0.078372,-0.029878,-106.547068,-87.528209,103.589341
198488,0.294628,-0.072717,-0.091514,-107.673555,-87.566774,104.885801
198588,0.253097,-0.028988,-0.123553,-108.434489,-87.629599,105.79252
198688,0.197526,0.036927,-0.140473,-108.461502,-87.713256,105.932798
198788,0.156745,0.078664,-0.153756,-107.989933,-87.811586,105.550722
198888,0.147483,0.069846,-0.165879,-107.674685,-87.914811,105.319791
198988,0.170363,0.061158,-0.163914,-107.445999,-88.015363,105.18861
199088,0.193786,0.090372,-0.137303,-106.565018,-88.106144,104.418197
199188,0.221968,0.140607,-0.115737,-104.601767,-88.192068,102.581145
199288,0.237355,0.174232,-0.099029,-101.752344,-88.270503,99.866403
199388,0.256558,0.166244,-0.090318,-98.767167,-88.338856,97.026961
199488,0.263202,0.150012,-0.090225,-95.870407,-88.401592,94.279873
199588,0.230538,0.136762,-0.101499,-93.066642,-88.466248,91.607179
199688,0.159754,0.107618,-0.119014,-90.726086,-88.537068,89.357369
199788,0.062157,0.087445,-0.116226,-88.689892,-88.604074,87.356149
199888,-0.021493,0.079481,-0.103372,-86.715826,-88.662122,85.369187
199988,-0.074565,0.084287,-0.08712,-84.512088,-88.708902,83.122123
200088,-0.100391,0.111021,-0.07774,-81.498705,-88.746071,80.05045
200188,-0.115317,0.143475,-0.068082,-77.520514,-88.770154,76.005228
200288,-0.118662,0.184462,-0.063975,-72.379971,-88.77878,70.795497
200388,-0.137823,0.22287,-0.070665,-66.203082,-88.772135,64.538207
200488,-0.121459,0.245931,-0.074775,-59.576674,-88.746644,57.840635
200588,-0.109294,0.220507,-0.070903,-53.868111,-88.711847,52.06803
200688,-0.10323,0.182959,-0.071219,-49.202122,-88.679149,47.341667
200788,-0.110119,0.083125,-0.076779,-46.44536,-88.680347,44.521059
200888,-0.104078,0.002124,-0.073719,-45.165715,-88.710342,43.181432
200988,-0.109001,-0.031599,-0.082159,-44.281931,-88.756873,42.234963
201088,-0.122722,-0.07729,-0.090591,-44.038975,-88.825331,41.921621
201188,-0.137385,-0.136089,-0.095392,-44.899688,-88.919777,42.703769
201288,-0.135643,-0.170992,-0.08347,-47.036433,-89.022753,44.763127
201388,-0.160836,-0.194505,-0.068548,-50.713642,-89.126127,48.348648
201488,-0.155664,-0.190281,-0.054063,-55.536835,-89.216808,53.083144
201588,-0.133597,-0.178123,-0.044163,-61.265302,-89.292284,58.735542
201688,-0.098667,-0.162294,-0.043619,-67.501769,-89.355427,64.915903
201788,-0.081478,-0.133614,-0.043044,-73.442708,-89.404595,70.810502
201888,-0.079353,-0.098097,-0.041985,-78.302773,-89.441909,75.625344
201988,-0.082972,-0.052914,-0.045141,-80.984229,-89.473014,78.259377
202088,-0.073025,0.007523,-0.052775,-79.956951,-89.502297,77.190216
202188,-0.043959,0.059185,-0.066134,-75.033907,-89.532103,72.24181
202288,-0.018933,0.105507,-0.088679,-65.639269,-89.559741,62.83603
202388,0.009093,0.146294,-0.109468,-51.822361,-89.569821,49.023937
202488,0.060308,0.150421,-0.136859,-36.33511,-89.562132,33.570802
202588,0.145748,0.103504,-0.165355,-21.674226,-89.55577,18.992998
202688,0.246308,0.04803,-0.187361,-7.191092,-89.555416,4.650561
202788,0.32735,0.022915,-0.195091,7.211183,-89.541695,-9.564593
202888,0.376163,0.037905,-0.180401,18.831567,-89.496596,-20.96985
202988,0.372962,0.086173,-0.151856,25.540512,-89.417509,-27.465395
203088,0.333224,0.162751,-0.121258,27.521163,-89.302621,-29.255236
203188,0.288964,0.290964,-0.095092,25.742436,-89.128632,-27.31077
203288,0.260917,0.454155,-0.087652,22.406395,-88.869759,-23.824722
203388,0.267045,0.60875,-0.111954,19.669269,-88.520246,-20.933867
203488,0.273932,0.671704,-0.152337,18.350757,-88.127016,-19.457794
203588,0.267288,0.61889,-0.219924,18.689193,-87.749892,-19.643214
203688,0.198635,0.506936,-0.296997,20.306393,-87.418515,-21.147941
203788,0.051316,0.343373,-0.332322,22.564283,-87.165157,-23.378915
203888,-0.093809,0.102873,-0.309603,25.245264,-87.038936,-26.117136
203988,-0.183446,-0.159985,-0.258788,28.51063,-87.053411,-29.492076
204088,-0.22015,-0.380464,-0.213278,32.681075,-87.178789,-33.79408
204188,-0.220318,-0.540142,-0.182854,38.124011,-87.37046,-39.369513
204288,-0.188427,-0.598521,-0.178022,44.887376,-87.559871,-46.247516
204388,-0.171565,-0.543903,-0.178707,52.064857,-87.689833,-53.529502
204488,-0.164507,-0.408229,-0.166806,58.168416,-87.744958,-59.732198
204588,-0.147723,-0.278018,-0.122526,62.509736,-87.76241,-64.161526
204688,-0.138168,-0.186911,-0.061019,65.306854,-87.77771,-67.039954
204788,-0.157269,-0.145586,0.004734,67.184475,-87.813404,-69.009104
204888,-0.189258,-0.158621,0.067426,68.950416,-87.882836,-70.884764
204988,-0.208923,-0.179091,0.138908,70.762114,-87.992596,-72.817376
205088,-0.246681,-0.239162,0.20449,73.441475,-88.145983,-75.63963
205188,-0.3144,-0.308606,0.26024,77.647904,-88.334403,-80.028216
205288,-0.367354,-0.365695,0.291601,84.062888,-88.532718,-86.656098
205388,-0.377198,-0.393597,0.295947,93.073404,-88.708076,-95.885348
205488,-0.321502,-0.383663,0.278274,104.180194,-88.832849,-107.178888
205588,-0.221221,-0.331553,0.250763,115.615449,-88.903016,-118.743104
205688,-0.129799,-0.272706,0.220857,126.105204,-88.930869,-129.309079
205788,-0.068721,-0.23281,0.196411,135.42742,-88.928179,-138.672276
205888,-0.037852,-0.21369,0.167889,143.458647,-88.896782,-146.72662
205988,-0.033912,-0.196203,0.145127,150.098949,-88.847365,-153.387627
206088,-0.038433,-0.191951,0.127785,155.640276,-88.781969,-158.952154
206188,-0.061249,-0.179451,0.109072,160.004915,-88.709499,-163.352935
206288,-0.099381,-0.155837,0.093594,163.342779,-88.64082,-166.748645
206388,-0.138722,-0.139662,0.087709,166.104122,-88.576141,-169.590311
206488,-0.153504,-0.13136,0.086117,168.536566,-88.512855,-172.111524
206588,-0.165651,-0.158043,0.091835,170.963014,-88.432447,-174.633786
206688,-0.155493,-0.204549,0.100205,173.420343,-88.323496,-177.181235
206788,-0.143485,-0.245749,0.106972,175.754709,-88.188506,-179.598942
206888,-0.111976,-0.290666,0.113873,177.917235,-88.025278,178.173147
206988,-0.077997,-0.328599,0.118886,179.839219,-87.837892,176.205176
207088,-0.039767,-0.341227,0.117206,-178.557671,-87.641235,174.577996
207188,-0.030923,-0.332567,0.118402,-177.178697,-87.447965,173.179997
207288,-0.026504,-0.291661,0.11174,-176.039474,-87.277113,172.024336
207388,-0.043089,-0.227403,0.124014,-174.841568,-87.141421,170.800256
207488,-0.069201,-0.149018,0.126668,-173.644751,-87.049118,169.56216
207588,-0.090794,-0.043165,0.128151,-172.366946,-87.015652,168.230506
207688,-0.095768,0.066066,0.134104,-170.869039,-87.042022,166.675594
207788,-0.093574,0.149534,0.138677,-169.116934,-87.112807,164.867477
207888,-0.098715,0.20018,0.132575,-167.219072,-87.209798,162.910609
207988,-0.101043,0.211111,0.12031,-165.29701,-87.311315,160.928343
208088,-0.100181,0.214452,0.106967,-163.373872,-87.413562,158.945659
208188,-0.09663,0.236073,0.096674,-161.327708,-87.526242,156.842035
208288,-0.086488,0.273088,0.089485,-158.989446,-87.656692,154.452066
208388,-0.091612,0.303841,0.090991,-156.176044,-87.798505,151.58388
208488,-0.117089,0.333029,0.108053,-152.541267,-87.944593,147.879424
208588,-0.145641,0.326011,0.123912,-148.215638,-88.072825,143.467653
208688,-0.186996,0.270873,0.135097,-143.754441,-88.159175,138.89681
208788,-0.210603,0.233664,0.124802,-139.492224,-88.220855,134.511704
208888,-0.19237,0.284735,0.10105,-134.561394,-88.302086,129.4683
208988,-0.128741,0.43373,0.074046,-127.069025,-88.434147,121.899078
209088,-0.016599,0.633217,0.051627,-114.440149,-88.596836,109.25647
209188,0.093395,0.797504,0.047486,-95.330016,-88.690769,90.194597
209288,0.093631,0.914831,0.078037,-73.280369,-88.593699,68.192572
209388,-0.001696,0.912074,0.137494,-56.921892,-88.300012,51.827247
209488,-0.080141,0.714986,0.216846,-49.198123,-87.954266,44.053461
209588,-0.105997,0.387402,0.292237,-47.785843,-87.682326,42.579388
209688,-0.067729,-0.015597,0.310682,-50.765623,-87.55393,45.522897
209788,-0.000683,-0.346801,0.279385,-56.714594,-87.543231,51.476902
209888,0.084624,-0.506969,0.216428,-64.037255,-87.580057,58.854688
209988,0.167757,-0.561903,0.13872,-71.793748,-87.628568,66.714116
210088,0.238769,-0.594141,0.060028,-79.932977,-87.679485,74.997033
210188,0.318991,-0.589797,-0.015701,-88.120422,-87.724659,83.373918
210288,0.405901,-0.498628,-0.083099,-95.193919,-87.764911,90.685584
210388,0.460711,-0.306915,-0.131972,-99.724858,-87.817822,95.484006
210488,0.476263,-0.127328,-0.168371,-101.872877,-87.899538,97.906549
210588,0.481459,-0.037519,-0.186522,-102.845782,-87.999839,99.156066
210688,0.49264,-0.021651,-0.187035,-103.665813,-88.101718,100.258955
210788,0.510192,-0.004453,-0.161684,-104.165967,-88.191364,101.051804
210888,0.521309,0.051564,-0.119565,-103.498631,-88.265247,100.682943
210988,0.522844,0.10476,-0.076192,-101.582013,-88.321205,99.065141
211088,0.485377,0.121201,-0.024325,-99.073795,-88.347727,96.834044
211188,0.464472,0.12856,0.03866,-96.218558,-88.335998,94.243808
211288,0.34773,0.095254,0.040008,-94.12291,-88.318617,92.346545
211388,0.259027,0.062324,0.036001,-92.760927,-88.300809,91.132402
211488,0.165924,0.016719,0.024229,-92.360575,-88.288096,90.826936
211588,0.08797,-0.01262,-0.001897,-92.59088,-88.289661,91.107723
211688,0.013559,-0.043187,-0.017559,-93.468442,-88.299224,91.993398
211788,-0.030842,-0.087706,-0.034887,-95.271618,-88.316146,93.779634
211888,-0.070407,-0.095524,-0.046568,-97.312786,-88.337455,95.781267
211988,-0.11096,-0.104434,-0.061479,-99.651506,-88.364206,98.057309
212088,-0.137443,-0.12207,-0.078983,-102.505041,-88.395855,100.833158
212188,-0.141359,-0.115368,-0.098522,-105.43947,-88.435285,103.687642
212288,-0.143598,-0.12127,-0.111754,-108.726794,-88.47662,106.893811
212388,-0.138115,-0.142963,-0.115268,-112.65101,-88.509924,110.740181
212488,-0.154016,-0.162305,-0.118437,-117.159248,-88.532673,115.161607
212588,-0.143255,-0.185358,-0.113008,-122.147109,-88.536646,120.068955
212688,-0.127513,-0.182027,-0.106157,-126.962785,-88.527727,124.813092
212788,-0.119525,-0.182986,-0.103439,-131.658481,-88.507208,129.441819
212888,-0.105427,-0.195306,-0.108146,-136.445585,-88.473888,134.170127
212988,-0.08758,-0.19536,-0.107781,-140.982244,-88.430403,138.658214
213088,-0.078835,-0.177836,-0.100769,-144.923607,-88.383694,142.555887
213188,-0.083468,-0.156816,-0.083359,-148.119778,-88.334905,145.705504
213288,-0.08035,-0.140888,-0.069714,-150.746095,-88.285518,148.286888
213388,-0.051715,-0.126241,-0.05508,-152.836931,-88.236514,150.349028
213488,-0.022574,-0.096433,-0.049385,-154.46876,-88.199414,151.968695
213588,-0.005128,-0.035366,-0.052003,-155.614159,-88.19352,153.111714
213688,0.003297,0.024041,-0.05151,-156.304492,-88.218084,153.804269
213788,0.008874,0.04775,-0.057901,-156.945435,-88.256371,154.450599
213888,0.024442,0.053096,-0.065437,-157.699281,-88.298953,155.218795
213988,0.037834,0.071927,-0.077545,-158.569193,-88.353848,156.110766
214088,0.061489,0.08171,-0.093479,-159.722182,-88.416802,157.299461
214188,0.104367,0.067903,-0.11054,-161.388618,-88.474731,159.026335
214288,0.161858,0.025927,-0.134725,-163.930507,-88.512086,161.661879
214388,0.225902,-0.003,-0.164695,-167.3637,-88.533992,165.225697
214488,0.288388,-0.002351,-0.182802,-171.254211,-88.552299,169.282765
214588,0.316288,0.009836,-0.189799,-175.345428,-88.57084,173.556561
214688,0.289698,0.062257,-0.19505,-179.652579,-88.611734,178.031063
214788,0.234854,0.17771,-0.194452,175.567061,-88.710131,-177.05266
214888,0.146988,0.355497,-0.174875,169.628838,-88.900209,-171.028908
214988,0.042442,0.56983,-0.160203,159.024722,-89.19193,-160.399036
215088,-0.036004,0.783678,-0.157693,128.710052,-89.513333,-130.103262
215188,-0.04782,0.93686,-0.16975,63.903592,-89.468738,-65.322165
215288,-0.037547,0.999723,-0.197319,36.15572,-88.999689,-37.593657
215388,-0.036522,0.971727,-0.217851,27.634664,-88.458716,-29.091544
215488,-0.066403,0.781374,-0.223901,24.909034,-87.999707,-26.402702
215588,-0.145998,0.422748,-0.195591,24.825382,-87.732439,-26.402698
215688,-0.262857,0.062642,-0.128736,25.957325,-87.668232,-27.686273
215788,-0.323333,-0.155985,-0.064785,27.607518,-87.731296,-29.523189
215888,-0.327541,-0.283469,-0.034855,29.917633,-87.864172,-32.0228
215988,-0.257169,-0.383831,-0.03727,33.526724,-88.040201,-35.781615
216088,-0.157681,-0.425963,-0.06332,38.758269,-88.216133,-41.106314
216188,-0.071864,-0.374637,-0.101402,44.943427,-88.337376,-47.335434
216288,-0.016325,-0.274786,-0.120619,50.676859,-88.391778,-53.080532
216388,-0.002078,-0.204924,-0.127275,55.631877,-88.403537,-58.038653
216488,-0.039485,-0.194267,-0.112408,60.263001,-88.407651,-62.694174
216588,-0.091294,-0.164713,-0.056713,63.812053,-88.422811,-66.296882
216688,-0.189953,-0.120549,0.009217,65.956516,-88.456533,-68.550985
216788,-0.282668,-0.159045,0.074645,68.401547,-88.53097,-71.15884
216888,-0.332443,-0.245651,0.138658,72.577682,-88.652612,-75.526732
216988,-0.361924,-0.342769,0.19094,79.851884,-88.805585,-83.010098
217088,-0.357254,-0.391339,0.217251,90.591458,-88.948405,-93.956417
217188,-0.302728,-0.386815,0.213194,103.917436,-89.04147,-107.457875
217288,-0.207685,-0.342342,0.183833,117.267178,-89.070296,-120.928403
217388,-0.0937,-0.288466,0.147843,128.531135,-89.050416,-132.247543
217488,-0.004483,-0.245722,0.11607,137.285698,-89.00192,-141.005921
217588,0.052033,-0.220859,0.099719,144.241949,-88.938688,-147.933467
217688,0.076268,-0.197988,0.096421,149.939134,-88.872142,-153.587977
217788,0.068131,-0.183785,0.102835,154.949727,-88.804745,-158.560551
217888,0.039944,-0.187553,0.110042,159.589544,-88.728712,-163.178552
217988,0.017647,-0.185835,0.118005,163.843904,-88.647575,-167.423918
218088,0.012252,-0.179713,0.127478,167.776707,-88.564449,-171.35087
218188,0.016841,-0.187307,0.140717,171.572937,-88.472157,-175.138728
218288,0.034803,-0.210904,0.150046,175.162326,-88.360948,-178.709553
218388,0.052595,-0.227444,0.165732,178.597405,-88.234957,177.883985
218488,0.074938,-0.23992,0.188422,-178.034335,-88.096002,174.556937
218588,0.09954,-0.233022,0.207128,-174.807563,-87.954464,171.385291
218688,0.117046,-0.220044,0.226675,-171.675149,-87.813185,168.317822
218788,0.130352,-0.212432,0.235847,-168.771616,-87.669595,165.486743
218888,0.129417,-0.187036,0.230326,-166.198604,-87.53581,162.985653
218988,0.118151,-0.135166,0.214773,-163.905379,-87.428816,160.757925
219088,0.09903,-0.091211,0.198875,-161.824558,-87.345028,158.731682
219188,0.074754,-0.049251,0.184001,-159.880686,-87.283676,156.828489
219288,0.055135,-0.006281,0.173321,-157.962255,-87.244648,154.939427
219388,0.037636,0.041214,0.159592,-156.030441,-87.230848,153.026883
219488,0.015302,0.09673,0.152746,-153.918017,-87.244386,150.920704
219588,-0.015596,0.137689,0.145459,-151.650072,-87.276896,148.64114
219688,-0.05266,0.136664,0.13871,-149.429907,-87.306568,146.388207
219788,-0.081863,0.111805,0.13092,-147.426223,-87.322551,144.335282
219888,-0.088916,0.084382,0.124844,-145.657491,-87.324219,142.513534
219988,-0.078874,0.062892,0.121846,-144.067053,-87.314353,140.876028
220088,-0.073342,0.038859,0.12357,-142.647154,-87.290874,139.4124
220188,-0.082581,0.024925,0.12593,-141.340268,-87.258674,138.056581
220288,-0.117721,0.039243,0.151319,-139.746025,-87.221979,136.392876
220388,-0.168246,0.069215,0.181775,-137.726683,-87.184233,134.27453
220488,-0.223446,0.117649,0.194689,-135.299114,-87.157635,131.715733
220588,-0.260294,0.19874,0.191108,-132.28519,-87.158838,128.548693
220688,-0.232824,0.328158,0.173591,-128.213674,-87.206096,124.338608
220788,-0.128976,0.52966,0.144027,-122.119737,-87.315471,118.163656
220888,-0.021076,0.766757,0.118941,-112.897213,-87.460474,108.919435
220988,0.07347,0.968129,0.096465,-100.213698,-87.5683,96.266165
221088,0.096378,1.052379,0.091291,-85.914526,-87.550076,82.009385
221188,0.0454,1.007217,0.098561,-73.224073,-87.390703,69.332691
221288,-0.021074,0.890459,0.126746,-63.824429,-87.136846,59.910296
221388,-0.029076,0.680872,0.1578,-58.140522,-86.869489,54.201945
221488,-0.004207,0.378862,0.153673,-55.751543,-86.67858,51.806753
221588,0.046565,0.112715,0.10383,-55.379436,-86.594452,51.460711
221688,0.104417,-0.084576,0.029962,-56.148658,-86.609109,52.291189
221788,0.157577,-0.230365,-0.03399,-57.764112,-86.699097,53.9998
221888,0.176059,-0.328154,-0.078775,-60.10082,-86.836547,56.441215
221988,0.164219,-0.350125,-0.107784,-62.726233,-86.988526,59.164612
222088,0.123681,-0.288854,-0.11384,-64.989563,-87.1217,61.50183
222188,0.075878,-0.175421,-0.105387,-66.303048,-87.219764,62.860381
222288,0.053121,-0.084489,-0.084013,-66.810272,-87.28472,63.398595
222388,0.048135,-0.07356,-0.063786,-67.320334,-87.336288,63.93676
222488,0.048806,-0.097236,-0.046926,-68.207674,-87.383704,64.852965
222588,0.074152,-0.102936,-0.03002,-69.259551,-87.422533,65.948379
222688,0.13753,-0.08929,-0.030503,-70.140549,-87.458062,66.90906
222788,0.200034,-0.042255,-0.039402,-70.393293,-87.488883,67.276696
222888,0.208719,-0.005,-0.063823,-70.076405,-87.52571,67.07913
222988,0.237475,0.020912,-0.084908,-69.309299,-87.568687,66.44743
223088,0.187138,0.05451,-0.131029,-67.880289,-87.628772,65.124406
223188,0.15903,0.096371,-0.153387,-65.724542,-87.689464,63.057979
223288,0.111482,0.077523,-0.1514,-63.743991,-87.750673,61.139715
223388,0.058985,0.02823,-0.142075,-62.405387,-87.817674,59.833865
223488,0.002863,-0.01025,-0.130739,-61.623474,-87.888314,59.052983
223588,-0.048044,-0.009439,-0.120298,-60.886092,-87.95304,58.287512
223688,-0.093097,0.024945,-0.105227,-59.758826,-87.999988,57.106117
223788,-0.142454,0.080086,-0.094419,-57.916264,-88.024129,55.180727
223888,-0.172904,0.158752,-0.081443,-55.087892,-88.014377,52.251494
223988,-0.193716,0.249423,-0.072115,-51.242757,-87.963242,48.292892
224088,-0.220424,0.308114,-0.069534,-46.976259,-87.879203,43.897174
224188,-0.221906,0.34599,-0.073308,-42.640571,-87.769509,39.431097
224288,-0.205308,0.334435,-0.079298,-38.76444,-87.655195,35.434122
224388,-0.198808,0.249102,-0.092957,-35.780361,-87.575209,32.333425
224488,-0.190746,0.12736,-0.106933,-33.723526,-87.551514,30.165318
224588,-0.17575,0.009665,-0.113885,-32.459986,-87.58382,28.799829
224688,-0.16463,-0.118128,-0.116457,-32.057356,-87.677959,28.302427
224788,-0.143629,-0.204294,-0.109612,-32.36846,-87.811702,28.531395
224888,-0.136446,-0.238099,-0.096373,-33.182773,-87.957445,29.268013
224988,-0.146847,-0.235828,-0.081077,-34.318771,-88.096644,30.320479
225088,-0.14117,-0.200207,-0.06521,-35.479609,-88.213006,31.400977
225188,-0.126186,-0.135007,-0.052094,-36.238469,-88.293938,32.087842
225288,-0.097993,-0.058913,-0.048542,-36.203554,-88.338224,31.996729
225388,-0.06743,-0.002335,-0.053572,-35.399957,-88.357772,31.154137
225488,-0.029165,0.014381,-0.062334,-34.218674,-88.371811,29.955646
225588,0.011661,0.009334,-0.080841,-32.733523,-88.393235,28.476578
225688,0.061284,0.000135,-0.100297,-30.934211,-88.423739,26.711692
225788,0.116266,-0.003987,-0.116486,-28.77693,-88.459123,24.620247
225888,0.171598,-0.010909,-0.126505,-26.363857,-88.498311,22.304672
225988,0.219365,-0.022523,-0.132315,-23.788455,-88.542158,19.854137
226088,0.269796,-0.032646,-0.141342,-20.923982,-88.590222,17.143395
226188,0.334294,-0.064692,-0.149277,-17.891626,-88.653517,14.301753
226288,0.407297,-0.081388,-0.155119,-14.502381,-88.722967,11.145045
226388,0.452766,-0.068206,-0.168042,-10.317636,-88.781666,7.218788
226488,0.467259,-0.007565,-0.174673,-5.391204,-88.79939,2.55904
226588,0.452231,0.058743,-0.18347,-0.11614,-88.77042,-2.458039
226688,0.407876,0.155721,-0.194057,4.922607,-88.675992,-7.264281
226788,0.329348,0.277389,-0.19983,8.937923,-88.503583,-11.092052
226888,0.233177,0.429824,-0.207564,11.630895,-88.239066,-13.652458
226988,0.195857,0.610479,-0.222483,13.187892,-87.869021,-15.098074
227088,0.205284,0.761096,-0.256602,14.25678,-87.409464,-16.050158
227188,0.207564,0.78385,-0.284322,15.248367,-86.932715,-16.923892
227288,0.184418,0.637708,-0.300152,16.502357,-86.53346,-18.074091
227388,0.122089,0.354845,-0.283533,18.085172,-86.290546,-19.589926
227488,0.013853,0.044096,-0.229491,19.872646,-86.223688,-21.373262
227588,-0.091942,-0.235605,-0.169296,21.954708,-86.315235,-23.512524
227688,-0.130456,-0.455801,-0.13988,24.717522,-86.523573,-26.355607
227788,-0.109795,-0.56442,-0.131727,28.286965,-86.779738,-29.994131
227888,-0.045523,-0.572333,-0.138128,32.605621,-87.02281,-34.345186
227988,-0.003422,-0.491518,-0.138571,37.109688,-87.208874,-38.856885
228088,-0.003726,-0.339613,-0.124386,40.84545,-87.315459,-42.599017
228188,-0.038265,-0.163528,-0.08543,42.970597,-87.352497,-44.748381
228288,-0.076457,-0.037768,-0.022572,43.473393,-87.359383,-45.295533
228388,-0.150356,0.005453,0.03431,43.052797,-87.370596,-44.960695
228488,-0.224207,0.043928,0.124509,41.421656,-87.400042,-43.45641
228588,-0.309828,0.070225,0.234722,38.398157,-87.455769,-40.607521
228688,-0.418694,-0.010982,0.309343,35.001059,-87.567279,-37.4473
228788,-0.489757,-0.159243,0.355368,31.816207,-87.756324,-34.540605
228888,-0.499826,-0.291652,0.370958,28.883383,-88.008862,-31.892326
228988,-0.463255,-0.361127,0.359289,25.94642,-88.288373,-29.219373
229088,-0.384882,-0.369933,0.321176,22.858508,-88.558537,-26.350883
229188,-0.293573,-0.343104,0.277624,19.371637,-88.800381,-23.031328
229288,-0.211432,-0.306148,0.232847,15.385594,-89.008819,-19.165719
229388,-0.159094,-0.259848,0.196846,10.511425,-89.180429,-14.38211
229488,-0.141162,-0.21346,0.170256,4.330915,-89.31563,-8.281961
229588,-0.136861,-0.170555,0.151412,-3.44542,-89.415434,-0.583579
229688,-0.158072,-0.108152,0.13217,-12.030501,-89.468047,7.911325
229788,-0.194091,-0.063496,0.116409,-20.212526,-89.485849,15.982466
229888,-0.234773,-0.03016,0.101382,-26.964733,-89.4798,22.600411
229988,-0.282058,-0.031952,0.103479,-33.667592,-89.467059,29.141919
230088,-0.311776,-0.069356,0.113736,-41.932558,-89.459936,37.228583
230188,-0.318419,-0.118828,0.124622,-52.531436,-89.455188,47.645461
230288,-0.296748,-0.155656,0.120581,-64.427368,-89.444293,59.371879
230388,-0.256192,-0.175343,0.116233,-76.413978,-89.416401,71.212253
230488,-0.1927,-0.184566,0.107853,-87.331019,-89.371172,82.019454
230588,-0.137273,-0.190949,0.094867,-96.852141,-89.31371,91.462509
230688,-0.089756,-0.193762,0.081604,-104.966423,-89.247535,99.525961
230788,-0.047702,-0.193008,0.064251,-111.864925,-89.178355,106.39774
230888,-0.015681,-0.171585,0.041037,-117.298451,-89.116743,111.82284
230988,0.002407,-0.148619,0.045898,-121.210086,-89.052845,115.736311
231088,-1.6e-05,-0.144137,0.037879,-124.64086,-88.9904,119.167531
231188,-0.002857,-0.13889,0.03266,-127.632809,-88.929029,122.158291
231288,-0.001691,-0.140489,0.028106,-130.413091,-88.866522,124.938071
231388,0.015157,-0.133162,0.023053,-132.834397,-88.806672,127.368511
231488,0.044758,-0.123792,0.020408,-134.878292,-88.749826,129.438469
231588,0.071139,-0.112388,0.021286,-136.512222,-88.695987,131.113521
231688,0.082605,-0.076548,0.029929,-137.264663,-88.653062,131.913451
231788,0.087004,-0.023164,0.047428,-136.800234,-88.625701,131.498701
231888,0.089844,0.021963,0.073564,-135.16999,-88.6064,129.91942
231988,0.085062,0.05709,0.102858,-132.524646,-88.587558,127.321984
232088,0.066837,0.078437,0.137741,-129.0795,-88.558246,123.914027
232188,0.020354,0.087433,0.171882,-125.206203,-88.511118,120.051081
232288,-0.026882,0.102704,0.201731,-121.005549,-88.447661,115.833493
232388,-0.063823,0.148817,0.218227,-116.189796,-88.380052,110.979264
232488,-0.044725,0.232529,0.211797,-110.301781,-88.322652,105.063131
232588,0.060185,0.366504,0.196826,-102.402161,-88.275167,97.194493
232688,0.237296,0.543199,0.176053,-91.746784,-88.214854,86.670134
232788,0.405856,0.703972,0.164588,-79.224635,-88.089886,74.374166
232888,0.455484,0.782847,0.186981,-67.617414,-87.859253,63.020886
232988,0.393663,0.769605,0.232264,-59.02706,-87.54237,54.6494
233088,0.341798,0.633721,0.282255,-54.138463,-87.207859,49.951734
233188,0.29954,0.3704,0.345077,-52.915768,-86.923488,48.899275
233288,0.290329,0.064906,0.368105,-54.45497,-86.732443,50.607413
233388,0.312485,-0.198424,0.33131,-57.732434,-86.639383,54.069664
233488,0.341861,-0.403174,0.277364,-62.285576,-86.618426,58.826846
233588,0.362337,-0.544428,0.214301,-67.768611,-86.64014,64.52726
233688,0.34449,-0.628964,0.157146,-73.920507,-86.674689,70.88725
233788,0.308991,-0.639462,0.108423,-80.169583,-86.69756,77.324013
233888,0.296213,-0.527557,0.059464,-85.295895,-86.703137,82.628725
233988,0.299401,-0.323065,0.006037,-88.360992,-86.710957,85.870612
234088,0.325425,-0.142287,-0.054103,-89.612769,-86.74435,87.311087
234188,0.358215,-0.059737,-0.104803,-90.034962,-86.805409,87.939411
234288,0.389758,-0.033469,-0.146854,-90.187107,-86.890382,88.315336
234388,0.404365,-0.034027,-0.177119,-90.355056,-86.992617,88.715435
234488,0.442847,-0.057642,-0.19052,-90.790447,-87.102268,89.405373
234588,0.430584,-0.060249,-0.196081,-91.310565,-87.214785,90.173039
234688,0.400054,-0.008358,-0.168728,-91.259579,-87.31217,90.351366
234788,0.363442,0.010279,-0.126747,-90.99062,-87.385776,90.290473
234888,0.305708,-0.0154,-0.08167,-91.067324,-87.433328,90.542484
234988,0.204901,-0.089907,-0.067215,-92.171949,-87.471324,91.765606
235088,0.113595,-0.143177,-0.051859,-94.049729,-87.497505,93.710233
235188,0.019849,-0.177311,-0.050863,-96.466439,-87.518154,96.1405
235288,-0.052624,-0.181558,-0.04845,-99.010468,-87.532538,98.656611
235388,-0.117591,-0.157588,-0.043713,-101.288405,-87.542096,100.869108
235488,-0.170602,-0.126616,-0.046597,-103.214399,-87.553535,102.698924
235588,-0.227841,-0.150028,-0.063445,-105.551878,-87.568068,104.907758
235688,-0.259655,-0.182093,-0.089828,-108.455111,-87.587369,107.664583
235788,-0.259561,-0.202803,-0.11125,-111.767046,-87.607772,110.830485
235888,-0.222785,-0.210747,-0.127444,-115.296253,-87.626918,114.234895
235988,-0.172677,-0.215763,-0.138984,-118.977581,-87.641705,117.820249
236088,-0.128569,-0.219101,-0.146824,-122.76167,-87.649702,121.533719
236188,-0.09581,-0.228964,-0.155922,-126.721049,-87.648442,125.441407
236288,-0.061652,-0.233496,-0.165136,-130.767544,-87.638491,129.455894
236388,-0.037016,-0.236501,-0.169375,-134.815027,-87.617531,133.485547
236488,-0.019706,-0.251208,-0.168106,-138.87921,-87.578189,137.541939
236588,-0.006009,-0.258028,-0.16726,-142.830365,-87.52375,141.493201
236688,0.003667,-0.24355,-0.166834,-146.478869,-87.464917,145.147249
236788,0.019659,-0.213872,-0.161902,-149.694661,-87.409632,148.377494
236888,0.029603,-0.18567,-0.159217,-152.568531,-87.360226,151.271305
236988,0.032222,-0.146585,-0.160359,-155.138751,-87.325074,153.862749
237088,0.02953,-0.085737,-0.158362,-157.33115,-87.31649,156.074468
237188,0.024524,-0.022419,-0.156556,-159.213696,-87.337633,157.97312
237288,0.019045,0.028361,-0.163262,-160.999895,-87.384667,159.772131
237388,0.015656,0.062172,-0.174788,-162.864155,-87.449575,161.647264
237488,0.020319,0.09807,-0.19012,-164.891966,-87.533851,163.688673
237588,0.023087,0.130157,-0.202963,-167.132213,-87.634437,165.944154
237688,0.034927,0.130593,-0.213626,-169.710691,-87.732466,168.544774
237788,0.079993,0.107459,-0.224305,-172.693348,-87.813151,171.57556
237888,0.160862,0.084716,-0.234909,-176.036086,-87.87485,175.012911
237988,0.275374,0.100227,-0.244042,-179.642216,-87.937686,178.779354
238088,0.384858,0.094411,-0.231691,176.811997,-87.988671,-177.451941
238188,0.414544,0.064739,-0.207155,173.576478,-88.015941,-173.976753
238288,0.351328,0.107152,-0.170874,170.708483,-88.063814,-170.905617
238388,0.253186,0.233825,-0.125461,167.95113,-88.182888,-168.001594
238488,0.170832,0.413725,-0.079378,164.69333,-88.403508,-164.644385
238588,0.133963,0.608849,-0.067218,158.970558,-88.724476,-158.843029
238688,0.155397,0.750198,-0.095498,146.116229,-89.084035,-145.897359
238788,0.195363,0.810733,-0.128134,116.916944,-89.346208,-116.583573
238888,0.196452,0.784544,-0.168124,77.30042,-89.303728,-76.85195
238988,0.134444,0.651791,-0.200403,56.502121,-89.046978,-55.974558
239088,0.034136,0.392288,-0.204531,50.559204,-88.818554,-50.011061
239188,-0.080329,0.102876,-0.155424,51.021708,-88.712211,-50.519702
239288,-0.169095,-0.170921,-0.107902,56.105329,-88.720679,-55.701494
239388,-0.18651,-0.37921,-0.094159,65.950491,-88.778945,-65.65586
239488,-0.130195,-0.496902,-0.099249,79.665104,-88.808797,-79.44808
239588,-0.061573,-0.489362,-0.120628,93.074742,-88.756719,-92.895989
239688,-0.01582,-0.346636,-0.12808,101.424735,-88.657817,-101.257155
239788,-0.000583,-0.156355,-0.11371,104.458141,-88.573247,-104.291775
239888,-0.034628,-0.06552,-0.105335,105.276126,-88.504132,-105.129872
239988,-0.065862,-0.039296,-0.063332,105.714877,-88.461886,-105.606527
240088,-0.169753,0.006785,-0.002715,105.489015,-88.460104,-105.477879
240188,-0.279527,-0.01806,0.055404,106.058131,-88.486472,-106.207406
240288,-0.369038,-0.084296,0.132007,108.530095,-88.542951,-108.891706
240388,-0.432333,-0.164341,0.202346,113.54808,-88.616005,-114.159004
240488,-0.446654,-0.237146,0.25986,121.370465,-88.684153,-122.239523
240588,-0.414143,-0.275081,0.282204,131.010769,-88.720141,-132.119623
240688,-0.33242,-0.265216,0.268653,140.527294,-88.71695,-141.829019
240788,-0.226652,-0.226093,0.224946,148.362195,-88.684692,-149.795821
240888,-0.147701,-0.187732,0.18123,154.387837,-88.6382,-155.907759
240988,-0.117327,-0.171107,0.143278,159.013436,-88.578832,-160.601977
241088,-0.123993,-0.169586,0.116513,162.659325,-88.507221,-164.320131
241188,-0.145056,-0.169884,0.101279,165.633587,-88.427761,-167.378627
241288,-0.166236,-0.155379,0.099448,168.202237,-88.35234,-170.043612
241388,-0.18988,-0.13144,0.098029,170.420143,-88.287226,-172.371355
241488,-0.217428,-0.129038,0.106982,172.609779,-88.221672,-174.68669
241588,-0.240356,-0.129391,0.114398,174.754342,-88.153781,-176.970162
241688,-0.252024,-0.127898,0.123079,176.878959,-88.084495,-179.240457
241788,-0.249437,-0.118036,0.129397,178.94965,-88.018351,178.544593
241888,-0.227539,-0.107713,0.125418,-179.170408,-87.95561,176.532973
241988,-0.200272,-0.118814,0.114464,-177.57173,-87.884623,174.818346
242088,-0.160761,-0.151376,0.100265,-176.30498,-87.793958,173.458442
242188,-0.105323,-0.180239,0.082977,-175.391788,-87.686619,172.484063
242288,-0.064172,-0.197076,0.061253,-174.854052,-87.570319,171.908977
242388,-0.049451,-0.203525,0.041178,-174.624981,-87.451319,171.651233
242488,-0.055069,-0.188311,0.033478,-174.497564,-87.341478,171.492
242588,-0.065595,-0.16124,0.036002,-174.326377,-87.247028,171.28289
242688,-0.080058,-0.114909,0.043594,-174.033862,-87.178626,170.943993
242788,-0.082323,-0.049151,0.032927,-173.798007,-87.148382,170.660507
242888,-0.073538,0.029315,0.02898,-173.506395,-87.163119,170.326229
242988,-0.055565,0.067884,0.039344,-173.027577,-87.199085,169.814833
243088,-0.040216,0.074975,0.037689,-172.536204,-87.239063,169.299687
243188,-0.026907,0.077803,0.033929,-172.063132,-87.280793,168.810514
243288,-0.013133,0.091947,0.035396,-171.52419,-87.330284,168.263315
243388,-0.00409,0.103045,0.048135,-170.77999,-87.384703,167.51585
243488,0.00475,0.117243,0.070298,-169.687078,-87.444483,166.424425
243588,0.016304,0.143236,0.102897,-168.045361,-87.514133,164.790347
243688,0.020879,0.159537,0.138698,-165.782624,-87.585806,162.537395
243788,0.021116,0.172097,0.166306,-162.965236,-87.655882,159.729569
243888,0.014626,0.216634,0.181079,-159.563684,-87.741096,156.333542
243988,0.023094,0.30774,0.189789,-155.212227,-87.863365,151.99201
244088,0.070473,0.457907,0.183997,-149.1733,-88.048055,145.98954
244188,0.139495,0.661231,0.176701,-139.624853,-88.299929,136.516145
244288,0.221508,0.862252,0.168589,-123.662126,-88.560738,120.674416
244388,0.259524,1.010883,0.157458,-99.463586,-88.694966,96.617824
244488,0.225005,1.081215,0.175298,-73.569898,-88.555548,70.845853
244588,0.183806,0.988637,0.217966,-57.021733,-88.203262,54.396554
244688,0.152276,0.638539,0.263921,-50.874788,-87.866619,48.333293
244788,0.129149,0.203143,0.26088,-50.887025,-87.67876,48.419553
244888,0.141317,-0.076816,0.219877,-53.520486,-87.607904,51.136228
244988,0.193275,-0.221225,0.159093,-57.147365,-87.606918,54.877041
245088,0.254833,-0.331099,0.085572,-61.568189,-87.663457,59.447687
245188,0.268673,-0.409801,0.023031,-66.861209,-87.75583,64.898908
245288,0.233025,-0.389644,-0.01407,-72.120581,-87.843647,70.295675
245388,0.170881,-0.27381,-0.049595,-75.914005,-87.916048,74.189577
245488,0.11602,-0.139932,-0.077677,-77.776969,-87.979386,76.12016
245588,0.111298,-0.069508,-0.106427,-78.514557,-88.048912,76.921904
245688,0.160351,-0.066495,-0.148897,-79.092386,-88.141593,77.591884
245788,0.233928,-0.076165,-0.175618,-79.784365,-88.250041,78.418213
245888,0.320546,-0.050532,-0.197551,-79.946127,-88.368047,78.763698
245988,0.392455,0.010982,-0.204318,-78.768404,-88.483446,77.810391
246088,0.42129,0.078072,-0.217273,-75.801906,-88.59667,75.084311
246188,0.44796,0.157883,-0.212051,-70.465181,-88.688527,70.002749
246288,0.404682,0.164551,-0.220554,-64.170071,-88.77082,63.937945
246388,0.359401,0.138185,-0.226296,-57.653606,-88.847887,57.625973
246488,0.268653,0.091581,-0.206554,-51.846746,-88.916615,51.971903
246588,0.153202,0.026399,-0.178949,-47.539257,-88.987432,47.751427
246688,0.043098,-0.035582,-0.157262,-44.730095,-89.068939,44.966503
246788,-0.033959,-0.08109,-0.132753,-43.32811,-89.157606,43.544836
246888,-0.102077,-0.121529,-0.111172,-43.527843,-89.254331,43.686045
246988,-0.137089,-0.136239,-0.093529,-44.955691,-89.349969,45.035396
247088,-0.158092,-0.116422,-0.083635,-46.427517,-89.433118,46.416672
247188,-0.17767,-0.065,-0.08744,-45.723396,-89.497245,45.610673
247288,-0.183303,-0.012398,-0.088942,-42.081237,-89.539897,41.863314
247388,-0.191569,0.005572,-0.092845,-36.628852,-89.573337,36.300961
247488,-0.196097,-0.027289,-0.088694,-32.041242,-89.617032,31.600842
247588,-0.212915,-0.086821,-0.088464,-29.109129,-89.687691,28.546647
247688,-0.21057,-0.134758,-0.091334,-27.039542,-89.782415,26.356356
247788,-0.185788,-0.142077,-0.093703,-21.827467,-89.880695,21.037779
247888,-0.14739,-0.139292,-0.100571,25.846248,-89.967231,-26.720439
247988,-0.103295,-0.141728,-0.105674,124.915776,-89.90739,-125.849205
248088,-0.069612,-0.146648,-0.100526,135.744983,-89.807042,-136.718352
248188,-0.053182,-0.159504,-0.086497,141.221682,-89.704127,-142.225593
248288,-0.045834,-0.168681,-0.072217,145.247326,-89.600492,-146.277592
248388,-0.042773,-0.150195,-0.05755,147.771241,-89.509278,-148.826108
248488,-0.038708,-0.100309,-0.044783,148.653994,-89.445823,-149.73109
248588,-0.035272,-0.035786,-0.039598,147.759919,-89.415486,-148.857192
248688,-0.033854,0.018094,-0.039714,145.312148,-89.410729,-146.428699
248788,-0.040622,0.035439,-0.036823,142.446647,-89.413911,-143.58633
248888,-0.051763,0.028449,-0.040303,139.654367,-89.411356,-140.823567
248988,-0.029695,0.01689,-0.051278,136.896449,-89.398377,-138.082518
249088,0.007589,0.00979,-0.062547,134.132275,-89.37669,-135.31384
249188,0.072928,0.031161,-0.067469,130.606751,-89.359669,-131.746315
249288,0.120221,0.036393,-0.073362,126.916871,-89.33954,-127.98731
249388,0.191303,0.007202,-0.080624,124.459865,-89.304118,-125.420511
249488,0.262124,-0.003038,-0.08911,122.473268,-89.260369,-123.283551
249588,0.335675,0.039891,-0.096108,119.044866,-89.224662,-119.662492
249688,0.375849,0.102649,-0.101557,113.546192,-89.198589,-113.947916
249788,0.382866,0.166776,-0.111887,105.904854,-89.170608,-106.0864
249888,0.356731,0.247388,-0.124558,95.792822,-89.127228,-95.768831
249988,0.29912,0.354252,-0.137612,83.207844,-89.046214,-83.010857
250088,0.212122,0.50524,-0.14495,68.739317,-88.894078,-68.418474
250188,0.140942,0.668961,-0.138089,54.791205,-88.640619,-54.386436
250288,0.109099,0.813058,-0.15005,43.79852,-88.269079,-43.327321
250388,0.112339,0.882653,-0.159634,36.357726,-87.821306,-35.817882
250488,0.155719,0.799779,-0.186718,32.378082,-87.381494,-31.745502
250588,0.200102,0.551512,-0.219512,31.270052,-87.045984,-30.521392
250688,0.159458,0.24517,-0.207767,31.893962,-86.863588,-31.054695
250788,0.014691,-0.044959,-0.165076,33.612943,-86.83398,-32.76784
250888,-0.081644,-0.301334,-0.148252,36.680679,-86.926406,-35.886955
250988,-0.093069,-0.489419,-0.137559,41.198819,-87.095348,-40.464609
251088,-0.087273,-0.594217,-0.136237,47.153747,-87.285609,-46.476712
251188,-0.093012,-0.578467,-0.143144,53.812259,-87.433548,-53.195591
251288,-0.120157,-0.442259,-0.127807,59.48821,-87.511602,-58.945936
251388,-0.14235,-0.242061,-0.078732,62.756879,-87.538702,-62.29926
251488,-0.164623,-0.076577,-0.030942,63.797027,-87.54209,-63.434746
251588,-0.193136,0.047349,0.026601,62.999668,-87.543051,-62.747383
251688,-0.228424,0.14857,0.110838,60.451906,-87.558251,-60.328255
251788,-0.33107,0.153442,0.17812,57.275813,-87.599956,-57.339147
251888,-0.423937,0.045292,0.245976,54.63076,-87.702273,-54.93493
251988,-0.506175,-0.107102,0.301396,53.03415,-87.87819,-53.627322
252088,-0.543908,-0.229971,0.334555,52.461426,-88.11096,-53.366032
252188,-0.533147,-0.297104,0.333526,52.853998,-88.366634,-54.064367
252288,-0.463768,-0.322459,0.307101,54.350297,-88.618372,-55.826962
252388,-0.363719,-0.319237,0.268364,57.1618,-88.848813,-58.847572
252488,-0.268419,-0.293396,0.234801,61.240905,-89.050733,-63.08116
252588,-0.208811,-0.260015,0.207288,66.68289,-89.22297,-68.643404
252688,-0.182038,-0.218355,0.188205,73.297371,-89.367014,-75.362689
252788,-0.164115,-0.173379,0.180141,80.777956,-89.489531,-82.937684
252888,-0.164609,-0.127501,0.172505,88.891534,-89.593911,-91.145848
252988,-0.165246,-0.102884,0.168493,99.523949,-89.685064,-101.873168
253088,-0.174765,-0.093362,0.160323,115.874946,-89.7555,-118.324511
253188,-0.193981,-0.104162,0.156542,141.833459,-89.786874,-144.394394
253288,-0.209136,-0.128905,0.155577,169.690584,-89.753286,-172.371593
253388,-0.206046,-0.148435,0.153664,-172.710113,-89.668071,169.910794
253488,-0.188182,-0.169882,0.146966,-163.798146,-89.554105,160.890764
253588,-0.153823,-0.19819,0.136456,-159.735171,-89.420724,156.739448
253688,-0.120761,-0.235846,0.120967,-158.497918,-89.268886,155.432871
253788,-0.084729,-0.277156,0.109718,-158.629194,-89.097293,155.515555
253888,-0.054282,-0.310517,0.099145,-159.371842,-88.910087,156.227151
253988,-0.023745,-0.311772,0.091365,-160.083549,-88.723709,156.925338
254088,0.006124,-0.29513,0.081018,-160.694835,-88.548273,157.540238
254188,0.027957,-0.269308,0.072745,-161.151589,-88.38838,158.013107
254288,0.032804,-0.22336,0.062419,-161.432511,-88.255391,158.312873
254388,0.023597,-0.143828,0.051163,-161.421367,-88.167782,158.315167
254488,0.006156,-0.040331,0.043731,-160.963635,-88.137821,157.860637
254588,-0.021171,0.043712,0.041991,-160.067528,-88.153529,156.951834
254688,-0.050224,0.083833,0.035822,-159.018897,-88.191602,155.873787
254788,-0.059001,0.072891,0.031834,-158.074744,-88.224159,154.895256
254888,-0.053567,0.046184,0.029078,-157.333719,-88.242798,154.123076
254988,-0.040749,0.046381,0.031833,-156.520075,-88.260695,153.285598
255088,-0.020502,0.075647,0.039682,-155.308301,-88.291705,152.061426
255188,-0.020435,0.117908,0.064612,-153.243735,-88.337343,149.984157
255288,-0.05306,0.163321,0.098183,-150.034281,-88.393951,146.74289
255388,-0.106493,0.179824,0.125762,-145.955262,-88.444278,142.601186
255488,-0.171731,0.188473,0.149593,-141.144662,-88.481572,137.69033
255588,-0.208163,0.235451,0.156061,-135.320779,-88.524284,131.745055
255688,-0.192938,0.346319,0.152742,-127.24939,-88.591545,123.560441
255788,-0.097535,0.50749,0.143156,-115.100571,-88.674604,111.352202
255888,0.051444,0.697022,0.125883,-97.242889,-88.719472,93.519385
255988,0.187727,0.848479,0.113776,-76.176304,-88.627022,72.554814
256088,0.203858,0.941612,0.122109,-58.10509,-88.351036,54.594275
256188,0.145965,0.95793,0.158025,-46.263397,-87.941744,42.830156
256288,0.064517,0.818798,0.241205,-40.59645,-87.506253,37.195765
256388,-0.010307,0.498946,0.3389,-39.800751,-87.163462,36.393281
256488,-0.034367,0.084757,0.367794,-42.294482,-86.989637,38.870514
256588,0.027376,-0.276897,0.321252,-46.873431,-86.974937,43.471477
256688,0.157412,-0.508834,0.243061,-52.785843,-87.05841,49.482148
256788,0.286462,-0.652923,0.152718,-59.804179,-87.195265,56.67355
256888,0.341741,-0.717302,0.08607,-67.808152,-87.334515,64.882555
256988,0.327565,-0.650206,0.031522,-75.520718,-87.43637,72.790911
257088,0.292788,-0.456529,-0.017891,-81.133918,-87.500772,78.577407
257188,0.262579,-0.205267,-0.060562,-83.61009,-87.552006,81.206378
257288,0.2471,0.013267,-0.11513,-83.14509,-87.617825,80.882574
257388,0.263476,0.165864,-0.17468,-80.375709,-87.704479,78.261881
257488,0.298733,0.26346,-0.211746,-75.844307,-87.793448,73.898193
257588,0.342644,0.295797,-0.237507,-70.343713,-87.875868,68.590055
257688,0.377963,0.266441,-0.25392,-64.755727,-87.953696,63.214996
257788,0.379333,0.173125,-0.262942,-60.055974,-88.043106,58.729776
257888,0.380106,0.09104,-0.252085,-56.250903,-88.140267,55.140426
257988,0.326006,0.106848,-0.238603,-52.011886,-88.217333,51.086078
258088,0.271249,0.136936,-0.225169,-47.207426,-88.267034,46.434776
258188,0.20307,0.12901,-0.198514,-42.68166,-88.297416,42.023315
258288,0.114782,0.094975,-0.164206,-39.01017,-88.320163,38.41596
258388,0.041933,0.062994,-0.132661,-36.169508,-88.340289,35.59807
258488,-0.000746,0.058819,-0.104281,-33.807383,-88.349233,33.23448
258588,-0.04517,0.084543,-0.081302,-31.570944,-88.335828,30.971165
258688,-0.068508,0.072392,-0.069238,-29.709939,-88.322481,29.070055
258788,-0.108911,0.043681,-0.079666,-27.986682,-88.32463,27.28359
258888,-0.120242,0.019121,-0.091038,-26.280933,-88.340657,25.508158
258988,-0.106135,0.006835,-0.089319,-24.669248,-88.361068,23.834933
259088,-0.083297,-0.011309,-0.091306,-23.11235,-88.390074,22.229632
259188,-0.054774,-0.047003,-0.099253,-21.601931,-88.438467,20.687208
259288,-0.030255,-0.070668,-0.108527,-19.967195,-88.500195,19.034519
259388,0.006446,-0.083119,-0.11816,-18.050676,-88.569013,17.121041
259488,0.023354,-0.084466,-0.125008,-15.783765,-88.63781,14.866818
259588,0.027559,-0.085175,-0.129067,-13.182916,-88.705102,12.281043
259688,0.014565,-0.093149,-0.128575,-10.364413,-88.773804,9.470187
259788,-0.001445,-0.101409,-0.118719,-7.538552,-88.843068,6.64287
259888,-0.0292,-0.108259,-0.096557,-5.062776,-88.911929,4.149873
259988,-0.061562,-0.101318,-0.074992,-2.960308,-88.973834,2.011756
260088,-0.073186,-0.065814,-0.078493,-0.47035,-89.013711,-0.520534
260188,-0.051783,0.008536,-0.091989,2.584592,-89.008523,-3.605613
260288,-0.033356,0.058067,-0.100909,5.734625,-88.971678,-6.775256
260388,-0.030304,0.079331,-0.098817,8.495169,-88.919984,-9.553638
260488,-0.019763,0.075497,-0.098444,11.009776,-88.868132,-12.080041
260588,-0.00837,0.084258,-0.102691,13.35976,-88.808775,-14.435305
260688,-0.004887,0.091125,-0.102121,15.41858,-88.743834,-16.497394
260788,-0.005853,0.079024,-0.094669,17.180167,-88.685259,-18.262777
260888,0.020125,0.042819,-0.090897,18.997008,-88.645838,-20.068574
260988,0.088622,0.021684,-0.102313,21.174689,-88.61411,-22.196082
261088,0.189951,0.04782,-0.125985,23.567337,-88.5614,-24.480582
261188,0.26666,0.055961,-0.148142,26.188728,-88.496742,-26.949993
261288,0.234235,0.069445,-0.159756,28.651295,-88.419386,-29.279185
261388,0.100574,0.154527,-0.153981,29.870316,-88.298985,-30.441051
261488,-0.059918,0.336183,-0.143872,29.087155,-88.090394,-29.691851
261588,-0.203545,0.571062,-0.139455,26.677958,-87.763054,-27.397798
261688,-0.264077,0.759893,-0.158667,24.078058,-87.329656,-24.947
261788,-0.255463,0.827043,-0.200593,22.333914,-86.847732,-23.347204
261888,-0.192544,0.817452,-0.240056,21.435332,-86.360853,-22.557588
261988,-0.13421,0.709347,-0.278225,21.367357,-85.923567,-22.566544
262088,-0.139967,0.459173,-0.303134,22.158759,-85.614526,-23.440518
262188,-0.225012,0.052995,-0.263687,23.684964,-85.527873,-25.100584
262288,-0.369526,-0.354892,-0.171074,25.747714,-85.672169,-27.381748
262388,-0.487554,-0.624801,-0.092459,28.35569,-85.967767,-30.276724
262488,-0.500254,-0.77183,-0.05699,31.800861,-86.335144,-34.016887
262588,-0.349572,-0.784118,-0.067749,36.274342,-86.686824,-38.699259
262688,-0.140498,-0.667964,-0.107763,41.401529,-86.947138,-43.91492
262788,0.015211,-0.47559,-0.135978,46.141337,-87.090593,-48.652366
262888,0.069835,-0.296372,-0.118864,49.629746,-87.154266,-52.105064
262988,0.065954,-0.233214,-0.07736,52.377647,-87.2041,-54.818412
263088,0.019346,-0.220554,-0.027233,54.724899,-87.26676,-57.157246
263188,-0.073761,-0.179618,0.029952,56.319203,-87.339273,-58.795571
263288,-0.158498,-0.140953,0.118314,56.934364,-87.440451,-59.50222
263388,-0.26004,-0.097235,0.20654,56.40953,-87.570176,-59.125962
263488,-0.344614,-0.180907,0.251408,56.428514,-87.747871,-59.342515
263588,-0.366785,-0.304316,0.250908,58.119849,-87.963534,-61.245271
263688,-0.329789,-0.383016,0.241396,61.585404,-88.193882,-64.901772
263788,-0.226421,-0.402166,0.219737,66.672087,-88.408216,-70.120415
263888,-0.096604,-0.383669,0.178411,73.22851,-88.579932,-76.734414
263988,0.009453,-0.34269,0.125502,80.689641,-88.694243,-84.192191
264088,0.075184,-0.313318,0.091743,88.665976,-88.762754,-92.127364
264188,0.093957,-0.296461,0.083934,96.906299,-88.801645,-100.315673
264288,0.080529,-0.276952,0.097082,105.069385,-88.824763,-108.434339
264388,0.041648,-0.256673,0.109053,112.967556,-88.834361,-116.310279
264488,-0.008902,-0.245449,0.118861,120.683053,-88.82987,-124.032478
264588,-0.05529,-0.23218,0.128303,128.047578,-88.813484,-131.430253
264688,-0.096877,-0.203175,0.139241,134.724835,-88.79432,-138.164498
264788,-0.107017,-0.172603,0.151161,140.834083,-88.777195,-144.336471
264888,-0.088847,-0.157176,0.156583,146.613613,-88.755569,-150.168286
264988,-0.058438,-0.166496,0.154619,152.223328,-88.716398,-155.81289
265088,-0.023114,-0.21049,0.152269,157.826513,-88.641797,-161.43085
265188,0.015027,-0.271173,0.14377,163.041157,-88.520924,-166.638521
265288,0.046301,-0.315609,0.136613,167.507724,-88.364,-171.08025
265388,0.061956,-0.341697,0.132551,171.18365,-88.183888,-174.722387
265488,0.064272,-0.333961,0.131397,174.157592,-88.00217,-177.661199
265588,0.05834,-0.296001,0.128469,176.550202,-87.837766,179.977984
265688,0.051075,-0.251242,0.127255,178.565618,-87.695926,177.990233
265788,0.04231,-0.203446,0.123034,-179.712892,-87.579138,176.291442
265888,0.015705,-0.138059,0.110014,-178.309841,-87.498213,174.895991
265988,0.001769,-0.057128,0.100402,-177.073912,-87.462628,173.659762
266088,-0.010194,0.013693,0.102142,-175.792511,-87.466424,172.371132
266188,-0.034495,0.055873,0.104498,-174.439429,-87.492983,170.996825
266288,-0.071527,0.064058,0.109317,-173.003798,-87.522528,169.518678
266388,-0.10632,0.057214,0.119236,-171.437386,-87.545829,167.889701
266488,-0.120493,0.062752,0.127635,-169.725594,-87.569559,166.10711
266588,-0.102318,0.079485,0.133338,-167.846964,-87.599747,164.167991
266688,-0.088885,0.106541,0.144302,-165.6748,-87.640743,161.942836
266788,-0.100469,0.117463,0.154957,-163.246682,-87.682441,159.454938
266888,-0.144519,0.117218,0.168299,-160.579717,-87.717126,156.702808
266988,-0.203662,0.094005,0.177288,-157.877429,-87.732411,153.881457
267088,-0.249082,0.1151,0.176581,-155.05106,-87.75367,150.909916
267188,-0.219527,0.229439,0.16749,-151.472467,-87.829462,147.202637
267288,-0.092735,0.42909,0.145215,-146.123358,-87.998769,141.796671
267388,0.058008,0.687894,0.118155,-136.976787,-88.268536,132.678408
267488,0.157175,0.928022,0.082258,-120.783129,-88.571222,116.568701
267588,0.149498,1.062945,0.090957,-95.336199,-88.716606,91.200489
267688,0.076662,1.102069,0.1351,-69.200952,-88.552733,65.101979
267788,0.039205,1.013199,0.191557,-53.127381,-88.174315,49.044454
267888,0.032781,0.687696,0.244241,-47.006617,-87.814857,42.938736
267988,0.060828,0.280937,0.252648,-46.497758,-87.600586,42.464313
268088,0.123151,-0.015718,0.206192,-48.444459,-87.521319,44.483355
268188,0.218758,-0.15062,0.139823,-51.0286,-87.517886,47.195318
268288,0.30509,-0.23282,0.06976,-53.888089,-87.569567,50.232331
268388,0.330636,-0.310693,0.024079,-57.4226,-87.660811,53.959431
268488,0.297228,-0.330547,0.001712,-61.35542,-87.758624,58.065743
268588,0.245328,-0.276735,-0.022172,-64.768506,-87.843921,61.621921
268688,0.217456,-0.187486,-0.049726,-67.006077,-87.915847,63.985614
268788,0.224328,-0.112479,-0.078478,-68.095339,-87.983966,65.204097
268888,0.250867,-0.08034,-0.104085,-68.590837,-88.05827,65.843625
268988,0.284266,-0.059155,-0.127583,-68.616782,-88.140544,66.032462
269088,0.32394,-0.013451,-0.146992,-67.713852,-88.223433,65.314693
269188,0.38853,0.027829,-0.171196,-65.77388,-88.309156,63.596466
269288,0.448519,0.058684,-0.191001,-62.862604,-88.395242,60.940997
269388,0.476381,0.068465,-0.222372,-59.103153,-88.48986,57.453127
269488,0.449265,0.0366,-0.245706,-55.194421,-88.599172,53.800554
269588,0.376824,-0.010689,-0.244316,-51.673171,-88.717817,50.494231
269688,0.27633,-0.019723,-0.229754,-47.994658,-88.828373,46.973168
269788,0.184439,-0.014525,-0.197928,-44.229718,-88.918582,43.313134
269888,0.100264,-0.022748,-0.164806,-40.861099,-88.994731,40.001353
269988,0.029834,-0.041967,-0.143903,-37.995748,-89.06832,37.152634
270088,-0.010673,-0.034426,-0.127668,-35.014728,-89.130257,34.165078
270188,-0.046052,-0.003777,-0.110663,-31.545519,-89.169322,30.669052
270288,-0.079328,0.010162,-0.099139,-27.920042,-89.194799,26.997706
270388,-0.105205,0.013986,-0.094573,-24.198859,-89.213668,23.215841
270488,-0.122799,0.007387,-0.09568,-20.376347,-89.232708,19.322577
270588,-0.124621,-0.007856,-0.098491,-16.449609,-89.256882,15.324058
270688,-0.102224,-0.033697,-0.102132,-12.354877,-89.292134,11.170393
270788,-0.069169,-0.084035,-0.109694,-7.802686,-89.352465,6.578223
270888,-0.04525,-0.16084,-0.121448,-1.824134,-89.452024,0.573394
270988,-0.023479,-0.217293,-0.135492,8.262283,-89.573977,-9.526859
271088,-0.012327,-0.236338,-0.145849,27.130675,-89.680119,-28.402722
271188,-0.016953,-0.253426,-0.147938,59.206056,-89.730272,-60.488239
271288,-0.033436,-0.261273,-0.140431,92.346556,-89.686539,-93.648321
271388,-0.038057,-0.249911,-0.127686,112.069971,-89.581985,-113.393946
271488,-0.041545,-0.217247,-0.107508,122.108854,-89.468748,-123.456987
271588,-0.046881,-0.16606,-0.089474,126.977511,-89.371316,-128.352767
271688,-0.038012,-0.112188,-0.075391,129.0353,-89.296679,-130.432483
271788,-0.023685,-0.066917,-0.070865,129.345385,-89.240116,-130.756169
271888,-0.002001,-0.031184,-0.073303,128.434883,-89.195461,-129.84673
271988,0.012789,-0.004866,-0.084469,126.551785,-89.154714,-127.956108
272088,0.007608,0.022341,-0.097933,123.723472,-89.115632,-125.12311
272188,0.00993,0.049689,-0.106759,120.142351,-89.078303,-121.535851
272288,0.02444,0.064532,-0.120771,116.192234,-89.034362,-117.571188
272388,0.074046,0.047076,-0.130317,113.027944,-88.977409,-114.363981
272488,0.154324,0.019944,-0.134879,110.971734,-88.909842,-112.218972
272588,0.249407,0.009169,-0.139858,109.458354,-88.83639,-110.562352
272688,0.350043,0.014228,-0.142609,108.041704,-88.761721,-108.944759
272788,0.425486,0.010724,-0.138117,106.95704,-88.688359,-107.615946
272888,0.431295,0.030586,-0.127064,105.617796,-88.623821,-106.02911
272988,0.380178,0.095301,-0.121545,102.966457,-88.57036,-103.159047
273088,0.304472,0.216751,-0.116774,97.822701,-88.52751,-97.839108
273188,0.219552,0.399757,-0.116577,89.019291,-88.474799,-88.906846
273288,0.128702,0.616379,-0.122917,76.666078,-88.360369,-76.475196
273388,0.07169,0.793436,-0.135715,63.554788,-88.130782,-63.31676
273488,0.051291,0.863729,-0.136897,52.869856,-87.801412,-52.595792
273588,0.042763,0.767516,-0.143036,46.103982,-87.452248,-45.799652
273688,0.004728,0.473655,-0.139465,43.242496,-87.202677,-42.932355
273788,-0.132705,0.084693,-0.130964,43.607118,-87.11584,-43.373544
273888,-0.271308,-0.269059,-0.126157,46.688002,-87.173551,-46.613871
273988,-0.291317,-0.566864,-0.121403,52.65226,-87.331186,-52.752042
274088,-0.249839,-0.755196,-0.13915,61.566861,-87.499766,-61.818923
274188,-0.210567,-0.788445,-0.169659,72.081119,-87.588178,-72.463504
274288,-0.229058,-0.651132,-0.178923,81.157362,-87.573846,-81.679131
274388,-0.278044,-0.411813,-0.15529,86.722801,-87.508917,-87.409121
274488,-0.308067,-0.177666,-0.117029,88.946441,-87.444235,-89.811585
274588,-0.3509,-0.010136,-0.071578,88.923909,-87.401728,-89.990275
274688,-0.35716,0.121316,-0.004435,87.225434,-87.395284,-88.494883
274788,-0.390403,0.185605,0.076727,84.621567,-87.43017,-86.112249
274888,-0.442044,0.139605,0.160987,82.374573,-87.511586,-84.116548
274988,-0.502437,0.022936,0.24926,81.349361,-87.650159,-83.378505
275088,-0.532665,-0.130883,0.313858,82.337928,-87.838033,-84.673209
275188,-0.505998,-0.259768,0.336824,85.670712,-88.044837,-88.298182
275288,-0.430977,-0.310372,0.31794,90.792042,-88.231695,-93.669214
275388,-0.317044,-0.31444,0.267537,97.104948,-88.371277,-100.166571
275488,-0.2022,-0.29338,0.219329,103.874594,-88.462963,-107.054655
275588,-0.098286,-0.271148,0.180295,110.672068,-88.51386,-113.910798
275688,-0.03407,-0.246815,0.156136,117.141027,-88.536451,-120.40141
275788,-0.01096,-0.21264,0.14624,122.970089,-88.545881,-126.238636
275888,-0.024043,-0.172254,0.146855,128.097142,-88.554794,-131.381115
275988,-0.041563,-0.150141,0.147192,132.870545,-88.560785,-136.179866
276088,-0.066214,-0.138719,0.151963,137.537599,-88.563366,-140.886365
276188,-0.0923,-0.142148,0.154715,142.269187,-88.555763,-145.672382
276288,-0.113082,-0.129731,0.15287,146.716618,-88.543739,-150.186094
276388,-0.110492,-0.120103,0.150365,150.910759,-88.527129,-154.444984
276488,-0.093235,-0.117246,0.152906,155.020897,-88.504815,-158.609997
276588,-0.066442,-0.143527,0.156586,159.277085,-88.461657,-162.905822
276688,-0.042941,-0.170621,0.158729,163.492144,-88.395948,-167.147149
276788,-0.018843,-0.181418,0.161162,167.459786,-88.316554,-171.1273
276888,-0.000687,-0.178888,0.160142,171.036726,-88.231248,-174.706342
276988,0.005697,-0.174006,0.150067,174.089426,-88.142011,-177.757398
277088,0.01596,-0.149414,0.133725,176.560433,-88.06166,179.779286
277188,0.032322,-0.113722,0.117118,178.554568,-87.998375,177.802391
277288,0.041011,-0.08003,0.087498,179.956907,-87.95233,176.422567
277388,0.030852,-0.027629,0.088158,-178.680407,-87.935281,175.076565
277488,0.02715,0.027131,0.093331,-177.220749,-87.94842,173.631401
277588,0.030596,0.064925,0.089591,-175.757601,-87.982073,172.184736
277688,0.017465,0.072687,0.08259,-174.357236,-88.019278,170.793393
277788,0.000145,0.058935,0.081624,-172.959678,-88.047578,169.394956
277888,0.002133,0.050891,0.08966,-171.406274,-88.069513,167.841741
277988,0.010004,0.081677,0.100173,-169.540104,-88.106359,165.980126
278088,0.038281,0.135198,0.116412,-167.094559,-88.169097,163.555095
278188,0.065861,0.174346,0.134468,-163.942205,-88.247148,160.438819
278288,0.073806,0.196992,0.153212,-160.008292,-88.328136,156.545326
278388,0.036867,0.211873,0.169719,-155.284087,-88.40449,151.840208
278488,-0.025007,0.21455,0.185367,-149.842305,-88.465985,146.38194
278588,-0.105989,0.237634,0.191281,-143.643441,-88.521404,140.120062
278688,-0.166074,0.316078,0.188712,-135.876017,-88.591954,132.25487
278788,-0.173031,0.468212,0.183078,-124.522401,-88.687911,120.798788
278888,-0.117032,0.660199,0.182724,-107.192572,-88.762342,103.397552
278988,-0.114832,0.800799,0.158415,-85.833376,-88.726422,81.967437
279088,-0.13124,0.886795,0.145024,-66.060277,-88.521792,62.113484
279188,-0.159338,0.849721,0.128324,-52.675967,-88.210259,48.632437
279288,-0.179829,0.678166,0.124372,-45.439115,-87.902888,41.288313
279388,-0.223656,0.444885,0.168921,-42.739373,-87.654134,38.458261
279488,-0.263025,0.135773,0.17112,-43.297435,-87.532338,38.865932
279588,-0.247228,-0.182993,0.141507,-46.476394,-87.551658,41.905977
279688,-0.189838,-0.436598,0.097887,-51.998146,-87.675115,47.323578
279788,-0.095922,-0.620396,0.043448,-59.968488,-87.856345,55.24487
279888,0.008172,-0.709241,-0.004043,-70.238923,-88.032723,65.52646
279988,0.088035,-0.687173,-0.041124,-81.544138,-88.154367,76.888255
280088,0.143361,-0.593814,-0.081232,-92.191581,-88.221523,87.623068
280188,0.18198,-0.475954,-0.108793,-101.203243,-88.253035,96.74319
280288,0.217805,-0.388481,-0.12376,-108.838454,-88.264692,104.506668
280388,0.274812,-0.296182,-0.142703,-114.992442,-88.277626,110.820887
280488,0.341513,-0.182855,-0.144687,-119.272221,-88.303714,115.298239
280588,0.397061,-0.080395,-0.147921,-121.967879,-88.353072,118.222556
280688,0.423649,-0.000527,-0.147974,-123.452213,-88.424024,119.950222
280788,0.451912,0.014176,-0.158641,-124.94368,-88.503488,121.701161
280888,0.46813,0.005777,-0.18517,-127.135789,-88.590895,124.162193
280988,0.46526,0.03137,-0.210629,-129.54898,-88.696314,126.842624
281088,0.403188,0.042914,-0.229201,-132.553499,-88.811054,130.078832
281188,0.334046,0.066985,-0.236963,-135.913861,-88.93459,133.631192
281288,0.279661,0.107523,-0.219554,-138.812189,-89.064506,136.690143
281388,0.231263,0.126507,-0.191712,-141.320355,-89.189899,139.331047
281488,0.174366,0.12,-0.17629,-144.376264,-89.304933,142.487065
281588,0.134611,0.083051,-0.17174,-149.501333,-89.397624,147.68953
281688,0.089255,0.029287,-0.166911,-157.469951,-89.45426,155.709632
281788,0.039708,-0.003026,-0.149277,-166.448437,-89.477685,164.711208
281888,0.001777,-0.004028,-0.119084,-174.110431,-89.485237,172.374487
281988,-0.020356,0.00749,-0.088311,-179.907818,-89.490333,178.160401
282088,-0.038637,0.018709,-0.071921,175.224837,-89.497481,-176.99424
282188,-0.038509,0.03353,-0.065321,170.524866,-89.510027,-172.316191
282288,-0.034411,0.055143,-0.06851,165.024931,-89.530755,-166.835811
282388,-0.028417,0.062338,-0.072654,158.610412,-89.549895,-160.437397
282488,-0.0227,0.04976,-0.084008,151.424683,-89.55361,-153.264482
282588,-0.012593,0.026662,-0.099061,144.325216,-89.53457,-146.172032
282688,9e-05,0.010442,-0.107639,138.171516,-89.498915,-140.018084
282788,0.014195,0.010207,-0.107771,132.894601,-89.458267,-134.732836
282888,0.018601,0.023372,-0.1016,128.015901,-89.421275,-129.843261
282988,0.017088,0.055165,-0.093992,122.539843,-89.394375,-124.35713
283088,0.024321,0.1054,-0.085028,115.428812,-89.380043,-117.231762
283188,0.047776,0.155061,-0.078987,106.396639,-89.36869,-108.171679
283288,0.061307,0.181411,-0.073677,96.609531,-89.347395,-98.348829
283388,0.055679,0.188282,-0.067797,87.334383,-89.311732,-89.041141
283488,0.05302,0.183894,-0.068809,79.356725,-89.25991,-81.03248
283588,0.068777,0.18553,-0.073405,72.53356,-89.192924,-74.169278
283688,0.09067,0.169245,-0.0802,67.488761,-89.116309,-69.071971
283788,0.131438,0.141462,-0.100218,64.442872,-89.030648,-65.95036
283888,0.188074,0.118314,-0.124402,62.91306,-88.936569,-64.312524
283988,0.263171,0.089561,-0.153111,62.777382,-88.835062,-64.025994
284088,0.339308,0.090191,-0.177018,62.982747,-88.721319,-64.036937
284188,0.405281,0.117196,-0.191975,62.799039,-88.592987,-63.620887
284288,0.41354,0.155489,-0.193281,61.955992,-88.453746,-62.540523
284388,0.33627,0.223966,-0.174466,59.886385,-88.304087,-60.277334
284488,0.219468,0.339311,-0.162801,56.281855,-88.121927,-56.545252
284588,0.112631,0.479547,-0.155427,51.46025,-87.887403,-51.65618
284688,0.032323,0.618032,-0.150067,46.146895,-87.588534,-46.320202
284788,0.022052,0.709958,-0.157833,41.371601,-87.23113,-41.527442
284888,0.038726,0.690311,-0.167163,37.925744,-86.864586,-38.054842
284988,0.074842,0.600506,-0.198613,35.965957,-86.520598,-36.048868
285088,0.073582,0.452102,-0.189611,35.03368,-86.24636,-35.072503
285188,0.061444,0.230205,-0.148901,34.991426,-86.089481,-34.994866
285288,0.069585,0.026638,-0.138914,35.856941,-86.031316,-35.822445
285388,0.100525,-0.169776,-0.132529,37.653845,-86.064427,-37.565859
285488,0.107371,-0.364425,-0.11378,40.425957,-86.186275,-40.282605
285588,0.033988,-0.535933,-0.090671,44.247193,-86.379045,-44.092307
285688,-0.069267,-0.612107,-0.049487,48.706101,-86.600689,-48.599267
285788,-0.12442,-0.569405,0.009382,53.0128,-86.811225,-52.984412
285888,-0.138662,-0.4692,0.053254,56.715492,-86.991019,-56.772014
285988,-0.136457,-0.350484,0.081719,59.52965,-87.136711,-59.668089
286088,-0.208212,-0.241297,0.115732,61.250787,-87.262434,-61.510659
286188,-0.269688,-0.149289,0.186047,61.671093,-87.396744,-62.086046
286288,-0.379293,-0.140229,0.252918,61.553606,-87.562375,-62.18591
286388,-0.437135,-0.193709,0.292246,61.815088,-87.762527,-62.698213
286488,-0.433697,-0.23896,0.301785,62.733031,-87.979469,-63.865388
286588,-0.370467,-0.248911,0.299626,64.119033,-88.197002,-65.464482
286688,-0.264932,-0.232894,0.290082,65.75485,-88.404218,-67.252829
286788,-0.143683,-0.212873,0.267384,67.737278,-88.593147,-69.318248
286888,-0.034695,-0.183094,0.243274,69.879911,-88.760896,-71.481303
286988,0.026911,-0.169101,0.219052,72.542241,-88.910642,-74.128737
287088,0.065541,-0.176248,0.202291,76.44093,-89.048899,-77.990469
287188,0.055643,-0.185147,0.196145,82.003789,-89.178543,-83.522098
287288,0.031915,-0.18926,0.18459,89.718136,-89.29108,-91.218839
287388,0.028432,-0.197874,0.176819,100.437248,-89.380959,-101.922379
287488,0.041317,-0.189342,0.165076,113.38916,-89.438476,-114.851311
287588,0.058261,-0.17545,0.152076,127.186619,-89.461064,-128.616036
287688,0.082867,-0.168048,0.133379,140.171729,-89.447433,-141.554273
287788,0.097272,-0.193307,0.128307,152.375474,-89.393441,-153.702931
287888,0.116899,-0.258303,0.128209,163.140296,-89.281422,-164.401516
287988,0.122914,-0.317248,0.127904,171.162329,-89.11787,-172.353932
288088,0.128828,-0.352909,0.124913,176.590681,-88.922157,-177.709293
288188,0.13633,-0.35321,0.118664,-179.819023,-88.719755,178.777726
288288,0.142538,-0.335913,0.108273,-177.417069,-88.524047,176.456705
288388,0.141416,-0.302678,0.093582,-175.813656,-88.34616,174.933672
288488,0.132792,-0.25394,0.078976,-174.701934,-88.196021,173.897471
288588,0.117121,-0.200599,0.070011,-173.819869,-88.076451,173.081979
288688,0.097768,-0.136329,0.063461,-173.029648,-87.993681,172.347231
288788,0.078625,-0.074664,0.056724,-172.287494,-87.946267,171.649568
288888,0.072063,-0.011785,0.051703,-171.515913,-87.934739,170.918677
288988,0.063303,0.032923,0.049249,-170.682858,-87.948488,170.121245
289088,0.051225,0.057354,0.045249,-169.840458,-87.976123,169.307546
289188,0.042905,0.070035,0.044883,-168.946574,-88.010636,168.437574
289288,0.019369,0.117854,0.049264,-167.794493,-88.071081,167.295784
289388,-0.002978,0.189888,0.065452,-166.000767,-88.168734,165.499245
289488,-0.0344,0.24503,0.093433,-163.218745,-88.290266,162.696035
289588,-0.08523,0.272024,0.118114,-159.378185,-88.416779,158.804898
289688,-0.150482,0.241811,0.139566,-154.786901,-88.514022,154.125576
289788,-0.228266,0.159728,0.142515,-150.525494,-88.558742,149.731803
289888,-0.277664,0.099952,0.130608,-147.041869,-88.570118,146.08779
289988,-0.277846,0.102162,0.111328,-143.845349,-88.583658,142.730879
290088,-0.226876,0.195106,0.093464,-139.471348,-88.640064,138.225401
290188,-0.130178,0.402254,0.08305,-130.932667,-88.77282,129.609794
290288,-0.027961,0.649317,0.084806,-113.935227,-88.93597,112.592855
290388,0.093951,0.807847,0.071931,-88.140767,-88.988483,86.848024
290488,0.062282,0.970786,0.065121,-60.542775,-88.799483,59.280718
290588,-0.020908,1.069562,0.118482,-42.707533,-88.362196,41.42817
290688,-0.06987,0.968433,0.218745,-35.090614,-87.851792,33.767079
290788,-0.079555,0.611305,0.277169,-33.476898,-87.474274,32.106374
290888,-0.075346,0.116009,0.254935,-35.324458,-87.338633,33.912572
290988,-0.021813,-0.32019,0.205025,-39.793649,-87.414645,38.373883
291088,0.068862,-0.658278,0.15216,-47.216803,-87.631102,45.84337
291188,0.131832,-0.900864,0.104007,-58.643709,-87.898631,57.354393
291288,0.143325,-1.005477,0.068224,-74.199087,-88.09753,73.001198
291388,0.119562,-0.947694,0.036639,-90.769851,-88.150195,89.649152
291488,0.113434,-0.776465,0.007422,-104.231353,-88.088677,103.182748
291588,0.09653,-0.565104,-0.014572,-113.307646,-87.992686,112.319543
291688,0.072859,-0.360878,-0.03652,-118.812686,-87.920738,117.869726
291788,0.079412,-0.173467,-0.070785,-121.762726,-87.905547,120.867132
291888,0.12519,0.001604,-0.09449,-122.544303,-87.951684,121.720878
291988,0.171042,0.160321,-0.107685,-121.224943,-88.052439,120.498662
292088,0.207779,0.265931,-0.135451,-118.330587,-88.195491,117.721758
292188,0.22475,0.289294,-0.172183,-114.836467,-88.358137,114.354782
292288,0.240525,0.241791,-0.211984,-111.902071,-88.52501,111.557056
292388,0.257149,0.160512,-0.24513,-110.436534,-88.689734,110.23836
292488,0.220595,0.063194,-0.274123,-111.496374,-88.849941,111.424758
292588,0.188728,-0.024342,-0.269402,-115.491844,-88.986507,115.528989
292688,0.098698,-0.103588,-0.252939,-122.905047,-89.084484,122.999697
292788,0.002697,-0.142065,-0.210854,-131.977463,-89.130874,132.074661
292888,-0.070026,-0.177252,-0.149193,-140.842631,-89.115577,140.900647
292988,-0.126359,-0.207275,-0.101395,-148.356012,-89.051277,148.342493
293088,-0.16849,-0.222693,-0.088298,-154.680009,-88.961832,154.5708
293188,-0.20125,-0.183861,-0.08908,-159.601194,-88.883067,159.377443
293288,-0.227511,-0.104198,-0.086364,-163.16348,-88.840752,162.809974
293388,-0.247882,-0.029608,-0.081568,-165.850644,-88.835362,165.355562
293488,-0.256365,0.012787,-0.084235,-168.342249,-88.851765,167.700689
293588,-0.246977,0.02326,-0.092668,-171.086143,-88.872837,170.303522
293688,-0.211588,0.010129,-0.108501,-174.408839,-88.884889,173.505537
293788,-0.179385,-0.03458,-0.137675,-178.669737,-88.868256,177.664394
293888,-0.144057,-0.079042,-0.162939,176.590716,-88.819577,-177.677708
293988,-0.124982,-0.120302,-0.176102,172.066416,-88.739257,-173.224061
294088,-0.101677,-0.148829,-0.177309,168.228222,-88.636121,-169.443181
294188,-0.092737,-0.158793,-0.165653,165.252936,-88.524155,-166.520174
294288,-0.083543,-0.1479,-0.149031,162.969186,-88.417774,-164.283527
294388,-0.083349,-0.111942,-0.123213,161.225735,-88.333692,-162.587172
294488,-0.079402,-0.05839,-0.101004,159.695652,-88.28162,-161.10195
294588,-0.063172,0.006974,-0.081611,158.149263,-88.267496,-159.591078
294688,-0.051329,0.068597,-0.063409,156.488825,-88.288855,-157.959314
294788,-0.052088,0.101768,-0.053253,154.69184,-88.328565,-156.1914
294888,-0.044233,0.101834,-0.051513,152.845833,-88.367181,-154.369973
294988,-0.02128,0.097913,-0.05633,150.8798,-88.400846,-152.415346
295088,0.018199,0.099382,-0.071882,148.561594,-88.428746,-150.085807
295188,0.07583,0.097151,-0.096993,145.783556,-88.44496,-147.263255
295288,0.15897,0.081745,-0.123917,142.745576,-88.441149,-144.133016
295388,0.259962,0.049673,-0.146922,139.857012,-88.410454,-141.094329
295488,0.368288,0.027587,-0.159928,137.262807,-88.361506,-138.287961
295588,0.447922,0.024833,-0.158148,134.939635,-88.308929,-135.707013
295688,0.469945,0.04711,-0.153513,132.529956,-88.26422,-133.026828
295788,0.435266,0.105835,-0.147758,129.460443,-88.240498,-129.706332
295888,0.374948,0.218467,-0.136881,124.858528,-88.254233,-124.887296
295988,0.291198,0.386003,-0.125218,117.456343,-88.308122,-117.314848
296088,0.207298,0.591278,-0.114154,105.817341,-88.373232,-105.552174
296188,0.176501,0.798831,-0.141906,89.561175,-88.35395,-89.188315
296288,0.169268,0.973642,-0.188397,72.042844,-88.155544,-71.565014
296388,0.12548,1.038887,-0.226,58.347342,-87.784851,-57.78917
296488,0.048923,0.899906,-0.24613,50.402767,-87.368048,-49.809542
296588,0.008503,0.632748,-0.236448,46.695211,-87.025703,-46.092711
296688,-0.07199,0.33526,-0.18785,45.481637,-86.814615,-44.918697
296788,-0.161951,0.045235,-0.146057,46.111789,-86.736518,-45.642775
296888,-0.158164,-0.268966,-0.126138,48.915887,-86.787476,-48.54209
296988,-0.127726,-0.552766,-0.11644,54.152046,-86.932605,-53.85935
297088,-0.11399,-0.743169,-0.120739,61.761072,-87.100295,-61.544006
297188,-0.14431,-0.781057,-0.121831,70.549759,-87.217379,-70.426184
297288,-0.203534,-0.63749,-0.094122,78.085474,-87.26352,-78.087313
297388,-0.250349,-0.380222,-0.04245,82.578866,-87.275015,-82.729358
297488,-0.28818,-0.109829,0.015027,83.754791,-87.289751,-84.071859
297588,-0.36247,0.098818,0.065763,82.303599,-87.318972,-82.826923
297688,-0.427942,0.250308,0.127397,78.801661,-87.36629,-79.566622
297788,-0.491072,0.302139,0.193752,74.297553,-87.433152,-75.339469
297888,-0.568759,0.22128,0.258191,70.257082,-87.534985,-71.621224
297988,-0.616222,0.08091,0.329933,67.288943,-87.694262,-69.003812
298088,-0.664481,-0.063272,0.387705,65.530196,-87.912429,-67.624695
298188,-0.668461,-0.195897,0.400575,65.432161,-88.168021,-67.909752
298288,-0.613077,-0.289653,0.379069,67.374725,-88.433688,-70.204522
298388,-0.516417,-0.324488,0.337445,71.40018,-88.680229,-74.527168
298488,-0.405261,-0.293559,0.292778,76.754833,-88.887572,-80.115227
298588,-0.300779,-0.241301,0.246579,82.913658,-89.050566,-86.447375
298688,-0.210415,-0.192913,0.199526,89.586848,-89.171002,-93.24192
298788,-0.154003,-0.153477,0.169175,96.469719,-89.261908,-100.213668
298888,-0.11906,-0.123971,0.149143,103.482734,-89.332187,-107.29543
298988,-0.118427,-0.091432,0.131718,110.012149,-89.38751,-113.893115
299088,-0.127074,-0.06373,0.125674,116.110661,-89.437411,-120.064771
299188,-0.156503,-0.047288,0.125906,122.409081,-89.484915,-126.45316
299288,-0.162751,-0.036211,0.122934,129.149823,-89.52763,-133.287427
299388,-0.148441,-0.038961,0.118972,137.029192,-89.559779,-141.252124
299488,-0.109253,-0.052502,0.109202,145.935382,-89.572743,-150.221196
299588,-0.051651,-0.099839,0.105078,156.36682,-89.549097,-160.682564
299688,0.010243,-0.174713,0.097534,166.230192,-89.469505,-170.540459
299788,0.059319,-0.256251,0.084032,173.197485,-89.331148,-177.474176
299888,0.104292,-0.323535,0.064643,177.117408,-89.147401,178.665277
299988,0.146869,-0.355846,0.040447,178.925911,-88.942536,176.940637
300088,0.186964,-0.343121,0.015555,179.529318,-88.74438,176.444192
300188,0.229365,-0.309587,-0.002481,179.589729,-88.565482,176.515148
300288,0.240163,-0.244206,-0.007951,179.53151,-88.424214,176.710959
300388,0.223095,-0.149282,-0.00117,179.598129,-88.337558,176.772102
300488,0.197654,-0.042321,0.017919,-179.9947,-88.312423,176.477961
300588,0.177626,0.062545,0.03862,-179.186882,-88.347379,175.771519
300688,0.153525,0.144733,0.060719,-177.852128,-88.428853,174.524135
300788,0.128329,0.166116,0.081233,-175.908927,-88.521023,172.653698
300888,0.104715,0.127655,0.103568,-173.311138,-88.588112,170.114995
300988,0.067218,0.103001,0.128484,-169.993198,-88.635844,166.8345
301088,0.027364,0.117685,0.152723,-165.800419,-88.683665,162.656148
301188,-0.021853,0.138658,0.179035,-160.530947,-88.730461,157.372701
301288,-0.087769,0.117789,0.201476,-154.649937,-88.749512,151.439854
301388,-0.15645,0.06419,0.21166,-149.190251,-88.72576,145.88906
301488,-0.192935,0.027675,0.212915,-144.509301,-88.673501,141.0962
301588,-0.183581,0.053049,0.201143,-140.037393,-88.628568,136.517699
301688,-0.110193,0.153977,0.176768,-134.568723,-88.626716,130.98416
301788,-0.016596,0.354075,0.14959,-125.629593,-88.694441,122.032945
301888,0.062606,0.615059,0.132575,-109.720924,-88.794545,106.15626
301988,0.101176,0.802254,0.140493,-87.408876,-88.785948,83.897237
302088,0.050531,0.883464,0.182296,-66.83444,-88.570055,63.346353
302188,-0.066113,0.914676,0.223489,-52.986757,-88.195407,49.455323
302288,-0.139179,0.835065,0.26209,-45.503549,-87.76975,41.8877
302388,-0.152046,0.538221,0.284933,-43.192826,-87.436495,39.487732
302488,-0.143495,0.113889,0.28278,-44.793662,-87.278746,41.007922
302588,-0.071641,-0.240177,0.248189,-48.973071,-87.271049,45.150911
302688,0.054842,-0.46595,0.180228,-54.774658,-87.357024,50.990253
302788,0.178957,-0.568893,0.107916,-61.545798,-87.479028,57.870812
302888,0.234918,-0.583529,0.052317,-68.780043,-87.594804,65.246356
302988,0.229865,-0.51709,0.016258,-75.585323,-87.678869,72.189131
303088,0.204469,-0.394874,-0.000346,-81.030701,-87.726843,77.756029
303188,0.191638,-0.244437,-0.016883,-84.457592,-87.755771,81.295373
303288,0.20702,-0.082092,-0.041254,-85.537671,-87.784867,82.494881
303388,0.246946,0.082153,-0.059377,-84.145569,-87.815882,81.243259
303488,0.284764,0.222649,-0.082879,-80.525004,-87.847338,77.783292
303588,0.329493,0.321892,-0.101421,-75.237609,-87.866992,72.681038
303688,0.346793,0.363546,-0.118748,-69.195734,-87.869939,66.83374
303788,0.336934,0.294989,-0.136482,-64.032755,-87.876697,61.860304
303888,0.292805,0.161934,-0.161387,-60.499355,-87.917727,58.492314
303988,0.20912,0.027146,-0.187595,-58.513143,-88.005041,56.624648
304088,0.177541,-0.08313,-0.204923,-57.817561,-88.132657,56.030361
304188,0.103082,-0.132389,-0.226847,-57.633791,-88.285881,55.905503
304288,0.043867,-0.125588,-0.224377,-57.360588,-88.435839,55.657245
304388,-0.006865,-0.117121,-0.202832,-57.166292,-88.572741,55.458865
