SampleTimeFine,Gyr_X,Gyr_Y,Gyr_Z,Roll,Pitch,Yaw
182619,-0.039744,0.006755,-0.017461,9.006185,-83.604737,-8.951051
182719,-0.038692,0.028787,-0.01758,9.075129,-83.589098,-9.039445
182819,-0.035428,0.033412,-0.013888,9.121359,-83.571291,-9.103614
182919,-0.036572,0.037279,-0.011849,9.151676,-83.550483,-9.152576
183019,-0.047896,0.029348,-0.006605,9.15344,-83.534559,-9.179773
183119,-0.049783,0.014556,-0.002054,9.148801,-83.526893,-9.200192
183219,-0.038505,-8.6e-05,-0.00243,9.156052,-83.529004,-9.228316
183319,-0.022509,-0.006619,-0.004175,9.193762,-83.534031,-9.276162
183419,-0.014321,-0.005993,-0.005786,9.24847,-83.539231,-9.335765
183519,-0.013568,-0.006486,-0.00916,9.317694,-83.54296,-9.409862
183619,-0.014939,-0.000338,-0.012623,9.380848,-83.54324,-9.481944
183719,-0.015673,0.003538,-0.014201,9.449007,-83.541678,-9.559915
183819,-0.01736,-0.00037,-0.01646,9.541598,-83.54076,-9.660553
183919,-0.019259,-0.006882,-0.015698,9.629026,-83.544499,-9.758641
184019,-0.017811,-0.007332,-0.015303,9.715779,-83.547466,-9.855018
184119,-0.005914,-0.007878,-0.016299,9.817766,-83.551465,-9.959782
184219,0.001265,-0.011133,-0.016246,9.917169,-83.557555,-10.059648
184319,0.000129,-0.017195,-0.019661,10.041585,-83.564788,-10.183782
184419,-0.003909,-0.020434,-0.024003,10.19263,-83.573479,-10.336222
184519,-0.003289,-0.028801,-0.028837,10.387534,-83.586736,-10.530478
184619,0.001518,-0.039606,-0.029925,10.59342,-83.604815,-10.734123
184719,0.002708,-0.037504,-0.027343,10.788277,-83.622494,-10.92595
184819,0.010478,-0.022287,-0.029716,10.981277,-83.632249,-11.112821
184919,0.011705,-0.011924,-0.026084,11.15338,-83.635642,-11.276223
185019,0.009188,-0.013484,-0.022315,11.307087,-83.640042,-11.422404
185119,0.000932,-0.022979,-0.017756,11.442198,-83.65056,-11.555279
185219,-0.001305,-0.028963,-0.020076,11.601441,-83.663504,-11.712246
185319,0.00093,-0.028157,-0.02737,11.80681,-83.676467,-11.913594
185419,0.007814,-0.023827,-0.033275,12.032916,-83.685426,-12.133194
185519,0.012169,-0.024474,-0.038742,12.291722,-83.693528,-12.382928
185619,0.010468,-0.03032,-0.040196,12.562537,-83.705226,-12.646152
185719,0.006183,-0.038985,-0.040571,12.83703,-83.722022,-12.917557
185819,-0.003671,-0.034656,-0.036878,13.093895,-83.737367,-13.175021
185919,-0.012017,-0.042162,-0.025983,13.288644,-83.757383,-13.37593
186019,-0.031209,-0.022338,-0.006085,13.35768,-83.768006,-13.459254
186119,-0.022909,0.002679,0.006481,13.33392,-83.766917,-13.445006
186219,-0.013816,0.019603,0.012008,13.257243,-83.757825,-13.374816
186319,-0.017177,0.029954,0.004762,13.210025,-83.741859,-13.334343
186419,-0.031186,0.025092,-0.003931,13.200298,-83.727391,-13.340687
186519,-0.051499,-0.007129,-0.003821,13.218354,-83.7311,-13.386049
186619,-0.058961,-0.028895,0.001691,13.221558,-83.747864,-13.422691
186719,-0.046125,-0.032893,0.000989,13.241608,-83.767059,-13.468803
186819,-0.027834,-0.021562,-0.002759,13.27385,-83.779651,-13.517439
186919,-0.013547,-0.006012,-0.003186,13.298431,-83.783361,-13.549823
187019,-0.004398,0.000165,-0.005059,13.329095,-83.783287,-13.583271
187119,-0.001439,-0.015568,-0.008444,13.397946,-83.791286,-13.653231
187219,-0.006672,-0.045874,-0.010536,13.513284,-83.816172,-13.772876
187319,-0.014229,-0.069021,-0.010995,13.654242,-83.853665,-13.922975
187419,-0.02149,-0.079432,-0.001389,13.756181,-83.898429,-14.038075
187519,-0.028349,-0.074222,0.000316,13.840508,-83.940375,-14.139286
187619,-0.028394,-0.056069,0.000726,13.900585,-83.972206,-14.216073
187719,-0.030675,-0.037399,0.003787,13.918847,-83.994081,-14.252253
187819,-0.041784,-0.026601,0.007798,13.895815,-84.010624,-14.253332
187919,-0.053586,-0.02346,0.01127,13.84373,-84.025774,-14.231892
188019,-0.064424,-0.021533,0.013345,13.772632,-84.040267,-14.197478
188119,-0.064631,-0.020747,0.016313,13.682583,-84.054757,-14.144448
188219,-0.056618,-0.022711,0.015604,13.604251,-84.070149,-14.098355
188319,-0.053009,-0.025266,0.014552,13.536118,-84.086743,-14.0605
188419,-0.04579,-0.019191,0.01381,13.467085,-84.09996,-14.017789
188519,-0.042934,-0.02788,0.013082,13.416102,-84.117836,-13.991298
188619,-0.046989,-0.038767,0.010297,13.390963,-84.14134,-13.993248
188719,-0.055635,-0.043578,0.011942,13.356938,-84.167895,-13.991524
188819,-0.051821,-0.045825,0.015459,13.310336,-84.196369,-13.974758
188919,-0.040035,-0.043583,0.017312,13.2562,-84.223676,-13.943726
189019,-0.035705,-0.03797,0.015904,13.206667,-84.247809,-13.914551
189119,-0.0371,-0.036708,0.015687,13.156811,-84.271188,-13.885636
189219,-0.040775,-0.028557,0.010254,13.124476,-84.289513,-13.876461
189319,-0.039057,-0.025018,0.002098,13.1328,-84.304712,-13.907341
189419,-0.029957,-0.032936,-0.006586,13.20778,-84.323163,-13.999567
189519,-0.01704,-0.037494,-0.014034,13.340333,-84.343082,-14.141888
189619,-0.004627,-0.039958,-0.017192,13.502304,-84.36435,-14.306836
189719,0.000748,-0.037199,-0.016572,13.659369,-84.383566,-14.463842
189819,-0.005782,-0.03376,-0.009936,13.769629,-84.401794,-14.577856
189919,-0.012768,-0.025291,-0.005336,13.841087,-84.416029,-14.656539
190019,-0.025687,-0.014308,-0.001989,13.868965,-84.424609,-14.699216
190119,-0.036931,-0.00447,0.001358,13.857253,-84.428147,-14.708594
190219,-0.040284,0.003042,0.002627,13.825489,-84.427336,-14.699639
190319,-0.036046,0.002787,-0.000791,13.814827,-84.426364,-14.709742
190419,-0.027753,-0.002348,-0.00506,13.841513,-84.42768,-14.752458
190519,-0.018766,-0.010848,-0.00981,13.912494,-84.433018,-14.8345
190619,-0.009825,-0.018116,-0.011768,14.009575,-84.442105,-14.937741
190719,-0.010518,-0.013464,-0.011592,14.098955,-84.44859,-15.033628
190819,-0.015559,-0.002616,-0.006765,14.14231,-84.449646,-15.086156
190919,-0.026068,0.009089,-0.004179,14.147628,-84.44456,-15.106569
191019,-0.036621,0.024896,-0.002434,14.113905,-84.430965,-15.093899
191119,-0.04426,0.038354,-0.003988,14.066277,-84.409732,-15.071568
191219,-0.051212,0.033489,-0.005393,14.02958,-84.390932,-15.064234
191319,-0.052772,0.021882,-0.006668,14.015889,-84.378402,-15.080895
191419,-0.054614,0.015097,-0.008026,14.018257,-84.369466,-15.114779
191519,-0.053496,0.007517,-0.009242,14.038749,-84.364555,-15.166218
191619,-0.05439,0.018215,-0.012034,14.059174,-84.353291,-15.218105
191719,-0.051032,0.042592,-0.008897,14.029272,-84.328934,-15.217533
191819,-0.043637,0.052883,-0.009046,13.990165,-84.298785,-15.203427
191919,-0.039003,0.044454,-0.01328,13.989028,-84.272773,-15.22485
192019,-0.038499,0.029822,-0.022138,14.057448,-84.253687,-15.315885
192119,-0.046074,-0.002539,-0.030119,14.210434,-84.251458,-15.496239
192219,-0.04617,-0.018485,-0.028547,14.376423,-84.258187,-15.689808
192319,-0.037278,-0.011939,-0.02456,14.517217,-84.261818,-15.852833
192419,-0.018539,0.011663,-0.021544,14.617729,-84.252742,-15.964657
192519,-0.007338,0.04054,-0.018413,14.665311,-84.228092,-16.016839
192619,-2.5e-05,0.054164,-0.012065,14.66149,-84.196793,-16.013277
192719,-0.007179,0.047018,-0.013055,14.669714,-84.169276,-16.025822
192819,-0.011816,0.008593,-0.018691,14.761195,-84.162366,-16.124659
192919,-0.007961,-0.020533,-0.026767,14.939046,-84.170378,-16.308332
193019,0.00667,-0.023038,-0.035999,15.178954,-84.178251,-16.54603
193119,0.010401,-0.012159,-0.039028,15.422523,-84.179504,-16.785119
193219,0.004631,-0.004313,-0.033982,15.62263,-84.177195,-16.984071
193319,-0.005234,0.002391,-0.027649,15.771439,-84.172182,-17.137335
193419,-0.010631,0.007016,-0.023984,15.891888,-84.1651,-17.264852
193519,-0.009216,0.00753,-0.022692,16.004877,-84.157882,-17.384059
193619,-0.003147,0.000279,-0.022976,16.133592,-84.154526,-17.515579
193719,0.004035,-0.004469,-0.023662,16.277731,-84.153659,-17.658414
193819,0.009487,-0.008094,-0.024193,16.431902,-84.154807,-17.808548
193919,0.004073,-0.006791,-0.018806,16.553033,-84.155952,-17.928348
194019,-0.004238,-0.002212,-0.015528,16.646137,-84.155087,-18.024485
194119,-0.012391,-0.008437,-0.009467,16.711275,-84.158673,-18.097398
194219,-0.018015,-0.018126,-0.01117,16.799277,-84.167269,-18.196372
194319,-0.02217,-0.023843,-0.013795,16.908881,-84.178433,-18.319379
194419,-0.020097,-0.027074,-0.016613,17.04089,-84.190897,-18.463715
194519,-0.004173,-0.028746,-0.019443,17.200691,-84.203787,-18.626833
194619,0.01239,-0.019802,-0.015955,17.3368,-84.212315,-18.756567
194719,0.019826,-0.005938,-0.011725,17.431019,-84.213974,-18.839921
194819,0.015709,0.002941,-0.003136,17.461284,-84.212253,-18.86136
194919,-0.006145,0.008318,0.008729,17.405712,-84.209638,-18.809113
195019,-0.031476,-0.001725,0.018652,17.299061,-84.214199,-18.72011
195119,-0.047619,-0.02865,0.022111,17.209781,-84.23405,-18.657861
195219,-0.057478,-0.057456,0.020655,17.171229,-84.269396,-18.652272
195319,-0.068874,-0.061934,0.01979,17.138714,-84.307027,-18.659306
195419,-0.075724,-0.057232,0.015978,17.11551,-84.34143,-18.679638
195519,-0.072946,-0.051255,0.015268,17.087747,-84.37244,-18.693787
195619,-0.062984,-0.047672,0.019683,17.034679,-84.402234,-18.676774
195719,-0.050989,-0.048047,0.025602,16.955183,-84.433229,-18.626307
195819,-0.034018,-0.053912,0.020113,16.925456,-84.466522,-18.616083
195919,-0.010261,-0.058918,0.015312,16.94483,-84.501759,-18.641517
196019,0.012045,-0.056807,0.004956,17.03272,-84.5341,-18.722946
196119,0.030064,-0.057185,-0.00361,17.181926,-84.565179,-18.855594
196219,0.027792,-0.058281,-0.004773,17.34029,-84.59662,-18.998742
196319,0.01622,-0.052462,0.000766,17.451107,-84.625791,-19.100782
196419,-0.002503,-0.042148,0.007791,17.492453,-84.650523,-19.143816
196519,-0.022308,-0.028547,0.016355,17.447532,-84.669301,-19.111601
196619,-0.032126,-0.020916,0.02009,17.360605,-84.68455,-19.04285
196719,-0.036609,-0.018217,0.020671,17.26216,-84.698412,-18.965115
196819,-0.037985,-0.021819,0.018,17.184749,-84.713779,-18.9093
196919,-0.033545,-0.025771,0.012754,17.147815,-84.730413,-18.89158
197019,-0.026523,-0.027752,0.010878,17.129538,-84.747812,-18.888557
197119,-0.02005,-0.018128,0.00736,17.118214,-84.759342,-18.888794
197219,-0.02382,-0.004539,0.008596,17.072392,-84.763632,-18.856555
197319,-0.028593,0.000368,0.015967,16.970924,-84.766456,-18.771182
197419,-0.035046,0.011394,0.02256,16.806629,-84.764304,-18.626428
197519,-0.063973,0.012119,0.023699,16.618273,-84.761898,-18.474149
197619,-0.093359,0.011794,0.02211,16.423763,-84.75937,-18.332592
197719,-0.109348,0.003841,0.018849,16.253956,-84.760651,-18.225039
197819,-0.11505,-0.026068,0.014309,16.160223,-84.777633,-18.19716
197919,-0.10647,-0.045245,0.009629,16.132768,-84.804409,-18.230901
198019,-0.088371,-0.032509,0.002426,16.136941,-84.823023,-18.285987
198119,-0.072633,-0.000826,-0.004915,16.13898,-84.823038,-18.329877
198219,-0.063832,0.026502,-0.012295,16.142585,-84.80685,-18.37028
198319,-0.065081,0.045491,-0.014609,16.125956,-84.779856,-18.391085
198419,-0.072331,0.029227,-0.011653,16.115576,-84.762299,-18.422337
198519,-0.075284,-0.016678,-0.004344,16.139313,-84.771181,-18.489548
198619,-0.065652,-0.058404,0.006975,16.173568,-84.804824,-18.561777
198719,-0.054387,-0.071709,0.012707,16.203705,-84.846688,-18.623385
198819,-0.050749,-0.061351,0.015781,16.199334,-84.883337,-18.648251
198919,-0.052727,-0.042315,0.010782,16.190745,-84.908713,-18.670018
199019,-0.058023,-0.027921,0.004308,16.193407,-84.925137,-18.706127
199119,-0.060404,-0.032996,0.000414,16.228176,-84.943734,-18.775838
199219,-0.062511,-0.042147,-0.006191,16.319972,-84.966302,-18.904008
199319,-0.066241,-0.04995,-0.01008,16.449348,-84.992513,-19.072045
199419,-0.073636,-0.048353,-0.011305,16.580631,-85.017617,-19.246244
199519,-0.072538,-0.043882,-0.00539,16.668078,-85.041211,-19.375805
199619,-0.071835,-0.039088,0.001163,16.70614,-85.063241,-19.455388
199719,-0.065956,-0.041457,0.009706,16.698167,-85.087973,-19.485382
199819,-0.063253,-0.049999,0.01957,16.645016,-85.119011,-19.468477
199919,-0.063472,-0.046067,0.023741,16.556776,-85.148567,-19.416483
200019,-0.070959,-0.045564,0.026313,16.445718,-85.178255,-19.345897
200119,-0.070439,-0.047298,0.021919,16.366033,-85.208173,-19.306498
200219,-0.06892,-0.051759,0.015151,16.33982,-85.239443,-19.319888
200319,-0.065203,-0.045052,0.008421,16.347295,-85.265936,-19.364944
200419,-0.062069,-0.036294,0.002456,16.379473,-85.286651,-19.432984
200519,-0.063186,-0.035273,0.000148,16.424897,-85.30643,-19.514955
200619,-0.065611,-0.039403,0.000918,16.472536,-85.3286,-19.60054
200719,-0.066479,-0.045683,0.003311,16.516731,-85.3546,-19.683167
200819,-0.065691,-0.045757,0.005554,16.546958,-85.381001,-19.751325
200919,-0.065321,-0.04312,0.007194,16.561318,-85.406213,-19.80335
201019,-0.070789,-0.035205,0.008691,16.546307,-85.427317,-19.829054
201119,-0.079024,-0.020816,0.008877,16.49573,-85.440545,-19.823813
201219,-0.082939,-0.01053,0.010481,16.410516,-85.448386,-19.786076
201319,-0.079498,-0.004204,0.012917,16.297257,-85.453146,-19.71823
201419,-0.065726,-0.006491,0.01166,16.205033,-85.458962,-19.663568
201519,-0.057035,-0.021546,0.010428,16.156558,-85.472865,-19.647798
201619,-0.056524,-0.035186,0.010736,16.133752,-85.494323,-19.657483
201719,-0.061085,-0.049299,0.01657,16.096063,-85.524468,-19.654858
201819,-0.065373,-0.054546,0.021791,16.029393,-85.558317,-19.62563
201919,-0.067819,-0.054438,0.026597,15.925987,-85.592846,-19.560965
202019,-0.069331,-0.045222,0.028206,15.789881,-85.622522,-19.464377
202119,-0.068545,-0.028777,0.024514,15.645855,-85.642527,-19.359398
202219,-0.069292,-0.016664,0.022423,15.490908,-85.655494,-19.243901
202319,-0.065801,-0.015065,0.019588,15.354584,-85.667119,-19.145076
202419,-0.056668,-0.018179,0.01495,15.263033,-85.679748,-19.085907
202519,-0.047796,-0.021512,0.017355,15.165181,-85.694578,-19.015321
202619,-0.041049,-0.031741,0.017874,15.087215,-85.715139,-18.960801
202719,-0.041633,-0.04169,0.020259,15.010381,-85.741555,-18.907754
202819,-0.043265,-0.049536,0.021497,14.938045,-85.772486,-18.86016
202919,-0.036207,-0.030824,0.023991,14.812501,-85.79341,-18.755162
203019,-0.033865,-0.012935,0.025917,14.636906,-85.804677,-18.598636
203119,-0.040753,-0.006094,0.022481,14.468917,-85.811625,-18.453697
203219,-0.04654,-0.001815,0.023204,14.283243,-85.816268,-18.294352
203319,-0.053189,-0.014095,0.022214,14.124482,-85.827554,-18.165813
203419,-0.052356,-0.033882,0.021862,14.006096,-85.84976,-18.077279
203519,-0.037958,-0.044488,0.02037,13.926894,-85.877647,-18.019761
203619,-0.023018,-0.038434,0.017527,13.865986,-85.901781,-17.972004
203719,-0.013176,-0.029692,0.014586,13.81626,-85.920659,-17.929804
203819,-0.012594,-0.015702,0.015945,13.728857,-85.931937,-17.849499
203919,-0.019042,-0.012338,0.019438,13.603292,-85.941807,-17.734642
204019,-0.031347,-0.033928,0.025429,13.463572,-85.964488,-17.612665
204119,-0.049641,-0.058709,0.031332,13.31162,-86.001739,-17.48894
204219,-0.063497,-0.076046,0.034785,13.154133,-86.049079,-17.367629
204319,-0.071532,-0.088274,0.032272,13.032684,-86.102882,-17.287063
204419,-0.070814,-0.08488,0.026793,12.948182,-86.154056,-17.243121
204519,-0.068481,-0.069188,0.014226,12.938903,-86.194841,-17.273231
204619,-0.066886,-0.046905,0.002605,12.98572,-86.221685,-17.358645
204719,-0.067646,-0.031137,-0.005894,13.074003,-86.238626,-17.486051
204819,-0.065337,-0.03475,-0.009247,13.200118,-86.257138,-17.650044
204919,-0.064782,-0.050577,-0.007551,13.345374,-86.284681,-17.832896
205019,-0.062733,-0.068068,-0.000801,13.47192,-86.32284,-17.995818
205119,-0.077422,-0.080797,0.011112,13.515429,-86.369665,-18.08396
205219,-0.094711,-0.090999,0.018697,13.505021,-86.423179,-18.128002
205319,-0.102793,-0.107541,0.03037,13.42071,-86.487454,-18.102636
205419,-0.111797,-0.111052,0.036523,13.280099,-86.554482,-18.026037
205519,-0.128109,-0.101978,0.03933,13.079553,-86.616791,-17.898764
205619,-0.155602,-0.106591,0.03805,12.879887,-86.681473,-17.78816
205719,-0.172213,-0.127347,0.029001,12.800269,-86.75657,-17.807341
205819,-0.171393,-0.144765,0.023823,12.812338,-86.840731,-17.917881
205919,-0.1667,-0.155025,0.022775,12.865952,-86.930472,-18.067326
206019,-0.155971,-0.150087,0.0187,12.963415,-87.016909,-18.254515
206119,-0.143267,-0.131786,0.004132,13.189965,-87.091203,-18.563662
206219,-0.123656,-0.113231,-0.013751,13.592449,-87.152692,-19.037696
206319,-0.109061,-0.103575,-0.021677,14.085379,-87.207547,-19.593892
206419,-0.109199,-0.121869,-0.013011,14.553763,-87.273565,-20.125564
206519,-0.125267,-0.15641,0.011352,14.856577,-87.362099,-20.500669
206619,-0.144301,-0.194189,0.04259,14.908803,-87.476095,-20.635819
206719,-0.162956,-0.208801,0.06708,14.68704,-87.601775,-20.507416
206819,-0.177323,-0.200071,0.077728,14.257347,-87.724098,-20.179161
206919,-0.190283,-0.177261,0.075028,13.734259,-87.833243,-19.764899
207019,-0.187207,-0.165414,0.058312,13.378965,-87.933409,-19.516813
207119,-0.168976,-0.157277,0.037214,13.315271,-88.026212,-19.550072
207219,-0.142835,-0.156979,0.024012,13.488621,-88.117101,-19.80552
207319,-0.124863,-0.165797,0.01788,13.842479,-88.212037,-20.231252
207419,-0.123516,-0.184635,0.024516,14.206027,-88.318283,-20.665885
207519,-0.135688,-0.204717,0.038813,14.431861,-88.437634,-20.969704
207619,-0.144656,-0.214598,0.052955,14.440116,-88.564459,-21.060995
207719,-0.145492,-0.205098,0.065802,14.085995,-88.687819,-20.790283
207819,-0.139885,-0.183672,0.070889,13.395734,-88.79987,-20.180153
207919,-0.127732,-0.167779,0.069826,12.50636,-88.902704,-19.36393
208019,-0.114305,-0.164556,0.058301,11.800368,-89.002093,-18.723455
208119,-0.111377,-0.174464,0.049444,11.337307,-89.105889,-18.324286
208219,-0.10906,-0.190163,0.036182,11.43322,-89.216968,-18.482837
208319,-0.096751,-0.195207,0.02252,12.284686,-89.329232,-19.389945
208419,-0.088784,-0.189012,0.01087,14.070331,-89.436219,-21.226703
208519,-0.09562,-0.18326,0.006863,16.851219,-89.538559,-24.062629
208619,-0.109101,-0.178969,0.009532,20.838994,-89.637422,-28.11316
208719,-0.124832,-0.17941,0.015402,27.140244,-89.734964,-34.48617
208819,-0.138186,-0.186766,0.024873,39.881833,-89.832354,-47.307165
208919,-0.142889,-0.197492,0.039283,79.918811,-89.91266,-87.426243
209019,-0.144298,-0.210857,0.044719,149.795263,-89.877637,-157.38561
209119,-0.150302,-0.22054,0.046031,171.050486,-89.764773,-178.727193
209219,-0.169237,-0.223505,0.043206,177.852563,-89.639045,174.373522
209319,-0.153959,-0.236439,0.037743,-179.282612,-89.503493,171.420247
209419,-0.171082,-0.257202,0.028253,-178.205944,-89.355545,170.245339
209519,-0.178431,-0.286981,0.020226,-177.932963,-89.1906,169.869932
209619,-0.173511,-0.304116,0.015505,-177.947404,-89.015952,169.784779
209719,-0.162597,-0.301126,0.018119,-177.888592,-88.842983,169.632606
209819,-0.148515,-0.288058,0.019268,-177.807552,-88.677489,169.466257
209919,-0.138887,-0.276879,0.017849,-177.769312,-88.518442,169.348224
210019,-0.142613,-0.271327,0.008035,-177.939879,-88.36281,169.436928
210119,-0.152784,-0.268867,3.9e-05,-178.238531,-88.208757,169.647946
210219,-0.170665,-0.26925,-0.004645,-178.586205,-88.054552,169.897775
210319,-0.185173,-0.267916,-0.002657,-178.866884,-87.901068,170.072268
210419,-0.192746,-0.254036,-0.000275,-179.082845,-87.755514,170.177666
210519,-0.185731,-0.22903,0.001992,-179.239351,-87.624282,170.22759
210619,-0.180709,-0.210118,0.004487,-179.346493,-87.503887,170.230985
210719,-0.176315,-0.196016,0.002301,-179.471532,-87.3916,170.254813
210819,-0.172234,-0.200393,0.001744,-179.595073,-87.276821,170.279482
210919,-0.163319,-0.204344,6.3e-05,-179.727014,-87.159804,170.317674
211019,-0.154794,-0.198563,0.001098,-179.835352,-87.046116,170.337125
211119,-0.15393,-0.185567,0.01325,-179.807573,-86.939882,170.220767
211219,-0.144434,-0.167069,0.028334,-179.621351,-86.844222,169.951166
211319,-0.13441,-0.149203,0.042084,-179.301762,-86.758688,169.553718
211419,-0.122872,-0.138656,0.04707,-178.943035,-86.679045,169.123653
211519,-0.11145,-0.136041,0.044095,-178.624683,-86.600812,168.740552
211619,-0.103346,-0.141951,0.035892,-178.39689,-86.51923,168.45279
211719,-0.103528,-0.142796,0.027696,-178.257134,-86.43727,168.2531
211819,-0.107725,-0.143987,0.026795,-178.136205,-86.354641,168.069842
211919,-0.11574,-0.143052,0.026027,-178.033223,-86.272567,167.899946
212019,-0.121448,-0.133281,0.030937,-177.894006,-86.195993,167.690442
212119,-0.1184,-0.111838,0.038177,-177.691299,-86.131523,167.419036
212219,-0.110228,-0.093099,0.042122,-177.451731,-86.07764,167.115357
212319,-0.101186,-0.082983,0.042912,-177.203719,-86.029463,166.808386
212419,-0.093157,-0.080483,0.04044,-176.976944,-85.982728,166.527296
212519,-0.087415,-0.074704,0.035016,-176.793981,-85.93943,166.293407
212619,-0.082993,-0.069698,0.03252,-176.630564,-85.899065,166.081639
212719,-0.083417,-0.06561,0.030783,-176.482808,-85.861098,165.885315
212819,-0.083553,-0.053485,0.032819,-176.316115,-85.829999,165.669916
212919,-0.086182,-0.037929,0.038327,-176.102555,-85.807582,165.406004
213019,-0.085756,-0.014415,0.042718,-175.843962,-85.798394,165.097176
213119,-0.076801,0.009281,0.0436,-175.560547,-85.802639,164.768599
213219,-0.061288,0.028287,0.040723,-175.278211,-85.817782,164.450019
213319,-0.041745,0.031533,0.027106,-175.087561,-85.835356,164.234601
213419,-0.026318,0.021566,0.011096,-175.019748,-85.848006,164.151209
213519,-0.021018,0.018803,0.000672,-175.0328,-85.859608,164.151938
213619,-0.023831,0.02353,-0.000931,-175.05693,-85.874014,164.162157
213719,-0.026654,0.031992,0.004411,-175.034454,-85.893016,164.124028
213819,-0.029142,0.046744,0.010159,-174.956857,-85.920179,164.029207
213919,-0.029043,0.065533,0.013503,-174.837686,-85.957906,163.892767
214019,-0.029026,0.076946,0.014749,-174.697769,-86.002074,163.735545
214119,-0.034828,0.083389,0.00494,-174.63439,-86.050426,163.651723
214219,-0.04677,0.079179,-0.004936,-174.662503,-86.09691,163.652753
214319,-0.061761,0.069401,-0.004888,-174.707277,-86.13782,163.661874
214419,-0.06205,0.071094,0.000714,-174.703852,-86.179402,163.622521
214519,-0.0456,0.077525,0.003144,-174.664448,-86.22451,163.556558
214619,-0.014136,0.077462,0.00169,-174.61839,-86.269643,163.501999
214719,0.032941,0.081044,-0.006824,-174.616237,-86.317267,163.518472
214819,0.077616,0.065793,-0.021287,-174.730627,-86.356955,163.677377
214919,0.105214,0.030867,-0.031919,-174.955654,-86.377232,163.962981
215019,0.112789,-0.006493,-0.040096,-175.28024,-86.376499,164.352693
215119,0.108331,-0.029294,-0.040042,-175.621271,-86.362607,164.756327
215219,0.103676,-0.031678,-0.035314,-175.920146,-86.347011,165.115055
215319,0.100971,-0.026092,-0.024367,-176.115696,-86.334068,165.368701
215419,0.105838,-0.017733,-0.014891,-176.216758,-86.325486,165.530466
215519,0.128728,-0.016741,-0.013635,-176.291493,-86.317397,165.678995
215619,0.167297,-0.039066,-0.014245,-176.360651,-86.296541,165.844084
215719,0.193838,-0.08287,-0.026529,-176.543507,-86.251047,166.13836
215819,0.292567,-0.114761,-0.020104,-176.623891,-86.187064,166.386649
215919,0.309222,-0.150606,-0.039186,-176.865789,-86.1032,166.806402
216019,0.299462,-0.122005,-0.038239,-177.079169,-86.035625,167.191999
216119,0.283359,-0.107688,-0.030782,-177.225137,-85.976008,167.500797
216219,0.273711,-0.119244,-0.02935,-177.362453,-85.909744,167.795401
216319,0.271673,-0.121266,-0.037779,-177.561283,-85.842533,168.150527
216419,0.269531,-0.115416,-0.054993,-177.884759,-85.779001,168.629425
216519,0.281698,-0.133001,-0.071657,-178.320986,-85.705536,169.228411
216619,0.29532,-0.163758,-0.085866,-178.843195,-85.61434,169.921514
216719,0.308437,-0.185654,-0.094878,-179.400596,-85.510245,170.657535
216819,0.319554,-0.209219,-0.096892,-179.936451,-85.39217,171.378437
216919,0.319775,-0.242433,-0.084683,179.645969,-85.254663,171.980922
217019,0.316127,-0.264646,-0.065872,179.383433,-85.104288,172.425837
217119,0.304736,-0.275853,-0.046761,179.26096,-84.947552,172.723705
217219,0.289332,-0.281329,-0.029454,179.252018,-84.787835,172.898794
217319,0.273442,-0.280207,-0.012434,179.343459,-84.628951,172.963967
217419,0.257841,-0.272879,-0.000134,179.497888,-84.474413,172.956901
217519,0.249792,-0.267888,0.0099,179.701152,-84.322841,172.896125
217619,0.242315,-0.259965,0.017338,179.935107,-84.175873,172.800178
217719,0.234426,-0.253876,0.023881,-179.807452,-84.032428,172.676048
217819,0.224316,-0.250472,0.028856,-179.537779,-83.890945,172.533756
217919,0.206067,-0.246684,0.038899,-179.234807,-83.751582,172.347413
218019,0.191392,-0.245224,0.046196,-178.913149,-83.612966,172.133759
218119,0.185895,-0.246073,0.047054,-178.60161,-83.473806,171.927057
218219,0.190433,-0.244721,0.043265,-178.316536,-83.335443,171.749555
218319,0.194634,-0.237643,0.033008,-178.086478,-83.201313,171.629823
218419,0.197804,-0.226555,0.019099,-177.924945,-83.073856,171.580903
218519,0.195913,-0.224211,0.00928,-177.813279,-82.948035,171.581113
218619,0.189403,-0.219196,-0.00027,-177.74979,-82.825404,171.626109
218719,0.18445,-0.199046,-0.006767,-177.714983,-82.71457,171.697162
218819,0.179439,-0.171532,-0.006993,-177.678712,-82.619609,171.763851
218919,0.175569,-0.138641,-0.010007,-177.651691,-82.543662,171.837639
219019,0.16566,-0.098043,-0.012508,-177.633602,-82.491129,171.914712
219119,0.149919,-0.064131,-0.019528,-177.648496,-82.458289,172.015959
219219,0.153472,-0.028874,-0.028114,-177.691857,-82.445937,172.147972
219319,0.152929,1.2e-05,-0.044114,-177.799547,-82.450575,172.344557
219419,0.142514,0.011123,-0.061652,-177.987497,-82.461993,172.616072
219519,0.134494,0.036303,-0.074881,-178.234621,-82.488067,172.942621
219619,0.12076,0.060324,-0.07715,-178.498561,-82.527871,173.278165
219719,0.107531,0.069014,-0.065281,-178.720019,-82.572431,173.563183
219819,0.116088,0.078979,-0.050541,-178.873256,-82.622537,173.784316
219919,0.141939,0.103853,-0.040458,-178.967023,-82.686857,173.960389
220019,0.168593,0.129594,-0.036671,-179.02866,-82.765984,174.119432
220119,0.1897,0.166114,-0.045248,-179.117122,-82.866227,174.317665
220219,0.202395,0.206903,-0.058124,-179.259722,-82.990046,174.577724
220319,0.208676,0.241482,-0.066141,-179.442388,-83.133789,174.881686
220419,0.202843,0.277646,-0.073123,-179.67179,-83.298295,175.229242
220519,0.189569,0.315112,-0.071646,-179.915754,-83.484224,175.583668
220619,0.190756,0.347528,-0.058952,179.888669,-83.688673,175.889943
220719,0.195448,0.377983,-0.039002,179.785363,-83.910593,176.10598
220819,0.208849,0.401854,-0.023503,179.763876,-84.146259,176.247379
220919,0.238501,0.406342,-0.010436,179.829302,-84.384564,176.318447
221019,0.277092,0.391163,-0.002646,179.965062,-84.614208,176.341043
221119,0.323053,0.367642,0.006628,-179.808119,-84.830365,176.298637
221219,0.361371,0.32846,0.020967,-179.453706,-85.023967,176.1502
221319,0.370964,0.280759,0.034281,-178.986726,-85.189991,175.89435
221419,0.338577,0.224642,0.033634,-178.526486,-85.323637,175.626709
221519,0.266781,0.178252,0.025409,-178.156005,-85.430636,175.407903
221619,0.192652,0.146603,0.015917,-177.892316,-85.519586,175.25365
221719,0.121657,0.152385,0.012396,-177.685845,-85.611894,175.116008
221819,0.038119,0.195194,0.007034,-177.547476,-85.728851,174.998678
221919,-0.051462,0.260248,-4.6e-05,-177.487274,-85.883261,174.908278
222019,-0.130062,0.333038,0.001827,-177.424325,-86.079318,174.769997
222119,-0.194042,0.383992,0.010036,-177.294762,-86.304296,174.528249
222219,-0.251249,0.376867,0.02473,-177.040065,-86.524652,174.128345
222319,-0.314572,0.301996,0.041357,-176.656696,-86.701381,173.563293
222419,-0.366183,0.20364,0.038592,-176.347557,-86.821602,173.043063
222519,-0.387718,0.105265,0.036662,-176.113629,-86.885346,172.585857
222619,-0.386241,0.010788,0.028576,-176.025016,-86.895171,172.275052
222719,-0.37094,-0.069871,0.014803,-176.133048,-86.859287,172.169966
222819,-0.359782,-0.106677,0.001592,-176.397243,-86.802752,172.227682
222919,-0.327432,-0.110656,-0.012888,-176.787114,-86.744317,172.429844
223019,-0.278342,-0.120512,-0.031035,-177.323978,-86.680589,172.807428
223119,-0.236919,-0.133005,-0.041529,-177.92716,-86.60965,173.275244
223219,-0.199823,-0.135113,-0.05103,-178.578416,-86.537286,173.812548
223319,-0.171349,-0.133586,-0.058472,-179.258465,-86.465432,174.395085
223419,-0.166171,-0.140633,-0.059815,-179.923108,-86.389072,174.965205
223519,-0.205376,-0.156682,-0.057108,179.440633,-86.303077,175.484423
223619,-0.264778,-0.174386,-0.046764,178.889138,-86.206657,175.88464
223719,-0.312725,-0.178234,-0.035745,178.427415,-86.107944,176.16739
223819,-0.341883,-0.167569,-0.028436,178.024269,-86.015334,176.374706
223919,-0.352871,-0.161738,-0.03362,177.58455,-85.92585,176.612392
224019,-0.343304,-0.154442,-0.038599,177.122197,-85.840283,176.878287
224119,-0.336755,-0.152075,-0.045121,176.626325,-85.755711,177.181575
224219,-0.324481,-0.162545,-0.050955,176.113773,-85.664745,177.508673
224319,-0.305128,-0.175295,-0.060482,175.566065,-85.565873,177.882186
224419,-0.288189,-0.180848,-0.059824,175.056222,-85.463605,178.227501
224519,-0.270718,-0.168232,-0.044509,174.674801,-85.36912,178.454067
224619,-0.261808,-0.139222,-0.026512,174.415529,-85.292069,178.563223
224719,-0.281361,-0.125657,-0.007139,174.27388,-85.223826,178.543121
224819,-0.291551,-0.10513,0.005261,174.197492,-85.168014,178.451664
224919,-0.29829,-0.087389,0.01455,174.166607,-85.122882,178.310652
225019,-0.31259,-0.105011,0.023475,174.196645,-85.068236,178.100255
225119,-0.313179,-0.146042,0.025727,174.264226,-84.990329,177.851808
225219,-0.297827,-0.161101,0.023835,174.332287,-84.903716,177.611672
225319,-0.259404,-0.169955,0.014962,174.366068,-84.811537,177.428021
225419,-0.212033,-0.172998,0.004399,174.35914,-84.717021,177.312471
225519,-0.163392,-0.149435,-0.002586,174.321129,-84.635558,177.256108
225619,-0.123005,-0.112902,-0.011527,174.230008,-84.574429,177.276323
225719,-0.080587,-0.082544,-0.015894,174.119578,-84.530357,177.340345
225819,-0.033076,-0.076094,-0.019113,174.014435,-84.489775,177.426404
225919,0.012401,-0.07108,-0.014177,173.962297,-84.452373,177.485389
226019,0.051695,-0.057922,-0.00822,173.959769,-84.422883,177.517148
226119,0.062167,-0.037697,-0.003262,173.979623,-84.405283,177.532443
226219,0.046984,-0.013648,0.007966,174.041165,-84.402132,177.497106
226319,0.001038,0.017317,0.026945,174.168033,-84.417818,177.369674
226419,-0.048197,0.077105,0.046149,174.344752,-84.468738,177.163815
226519,-0.085858,0.138036,0.062592,174.566148,-84.555316,176.891416
226619,-0.104529,0.179662,0.073071,174.824816,-84.666144,176.570874
226719,-0.102078,0.196553,0.074733,175.097602,-84.786598,176.237622
226819,-0.10094,0.196482,0.071603,175.364384,-84.906749,175.911116
226919,-0.105858,0.196706,0.073314,175.652886,-85.026986,175.560038
227019,-0.100227,0.189059,0.079747,176.006551,-85.142978,175.146858
227119,-0.088501,0.188329,0.086748,176.433556,-85.258604,174.666896
227219,-0.074781,0.187465,0.089855,176.912736,-85.373556,174.142552
227319,-0.044227,0.196311,0.087687,177.41596,-85.493192,173.611741
227419,-0.000291,0.233205,0.08484,177.941229,-85.63357,173.084164
227519,0.058676,0.304042,0.086228,178.531978,-85.814215,172.524921
227619,0.12023,0.388093,0.096984,179.28945,-86.042703,171.834046
227719,0.164354,0.452346,0.114102,-179.685426,-86.307305,170.900476
227819,0.174871,0.451636,0.126652,-178.383704,-86.570098,169.696101
227919,0.138417,0.420463,0.132026,-176.859065,-86.813012,168.247851
228019,0.082072,0.423869,0.135441,-175.083702,-87.05523,166.516544
228119,0.024604,0.409754,0.137412,-173.029026,-87.286002,164.473002
228219,-0.027331,0.333202,0.141156,-170.74439,-87.468944,162.169843
228319,-0.097515,0.198454,0.130423,-168.668995,-87.572718,160.036142
228419,-0.181003,0.042986,0.093223,-167.451307,-87.590905,158.713145
228519,-0.241817,-0.068931,0.050342,-167.168539,-87.551097,158.291031
228619,-0.27129,-0.121489,0.016161,-167.506199,-87.48614,158.473008
228719,-0.283317,-0.155877,-0.01008,-168.254942,-87.404946,159.05959
228819,-0.262446,-0.188812,-0.036352,-169.343176,-87.307705,159.998033
228919,-0.198031,-0.21594,-0.074833,-170.82177,-87.197959,161.364311
229019,-0.08686,-0.220278,-0.120944,-172.650434,-87.087654,163.14499
229119,0.037444,-0.191084,-0.155813,-174.621633,-86.993249,165.139867
229219,0.138032,-0.133053,-0.168382,-176.507286,-86.929065,167.106932
229319,0.211246,-0.068333,-0.153568,-178.091863,-86.898292,168.814583
229419,0.265716,-0.028399,-0.118213,-179.234154,-86.887611,170.110593
229519,0.311483,0.001688,-0.065,-179.778966,-86.892739,170.834517
229619,0.324637,0.039192,0.003325,-179.590629,-86.918895,170.83177
229719,0.302809,0.086658,0.079928,-178.576404,-86.971437,169.989451
229819,0.258076,0.126491,0.158254,-176.667207,-87.043673,168.225336
229919,0.182835,0.160108,0.210314,-174.083674,-87.128978,165.742987
230019,0.11929,0.199049,0.247928,-170.879279,-87.227073,162.602783
230119,0.055206,0.204555,0.2518,-167.431659,-87.318696,159.182581
230219,-0.043595,0.157141,0.238328,-164.142342,-87.376136,155.864401
230319,-0.133962,0.064903,0.200749,-161.597828,-87.381499,153.240063
230419,-0.190687,-0.005719,0.144255,-160.050465,-87.354986,151.581376
230519,-0.199575,-0.036193,0.077548,-159.440354,-87.323895,150.855819
230619,-0.165372,-0.058917,0.015463,-159.627865,-87.292913,150.948365
230719,-0.114333,-0.059957,-0.034792,-160.354306,-87.271185,151.609726
230819,-0.05946,-0.049588,-0.078618,-161.494181,-87.262773,152.716472
230919,0.001943,-0.04209,-0.113691,-162.965186,-87.263397,154.189947
231019,0.059377,-0.044909,-0.134165,-164.647456,-87.263818,155.907868
231119,0.109903,-0.047916,-0.140487,-166.380641,-87.261046,157.705743
231219,0.140439,-0.041692,-0.133812,-167.996251,-87.258412,159.403423
231319,0.15284,-0.032912,-0.117305,-169.385759,-87.256748,160.881854
231419,0.148145,-0.012814,-0.092442,-170.441342,-87.262437,162.023279
231519,0.122787,0.000337,-0.053843,-171.032114,-87.271232,162.684811
231619,0.091343,-0.013068,-0.016047,-171.21787,-87.268885,162.922828
231719,0.047285,-0.046412,0.019584,-171.067124,-87.244514,162.798688
231819,0.014664,-0.101449,0.037867,-170.827047,-87.187333,162.566396
231919,-0.007638,-0.170025,0.043715,-170.669363,-87.090809,162.403791
232019,-0.012873,-0.213504,0.040223,-170.638906,-86.970051,162.365564
232119,-0.016079,-0.213407,0.030528,-170.711485,-86.850301,162.428676
232219,-0.007667,-0.187011,0.019283,-170.842795,-86.746568,162.555444
232319,-0.006497,-0.166,0.002106,-171.098712,-86.656313,162.807705
232419,0.009319,-0.127737,-0.017122,-171.458853,-86.589394,163.173466
232519,0.025013,-0.083031,-0.03202,-171.874902,-86.548983,163.604261
232619,0.038904,-0.052608,-0.045944,-172.364162,-86.526795,164.116384
232719,0.053102,-0.052002,-0.055725,-172.928572,-86.505447,164.711955
232819,0.059609,-0.068815,-0.065939,-173.593661,-86.47489,165.412141
232919,0.063314,-0.065445,-0.076158,-174.335082,-86.446403,166.19095
233019,0.066817,-0.035344,-0.090539,-175.170032,-86.435237,167.065491
233119,0.06332,-0.007142,-0.106192,-176.127073,-86.440051,168.060348
233219,0.05495,-0.009317,-0.121939,-177.237067,-86.443047,169.20364
233319,0.053672,-0.038253,-0.134299,-178.469962,-86.428302,170.469341
233419,0.052942,-0.07402,-0.141057,-179.755022,-86.39142,171.786919
233519,0.076188,-0.087426,-0.139463,179.017321,-86.345092,173.06038
233619,0.131707,-0.060823,-0.132688,177.905442,-86.312511,174.249753
233719,0.198023,-0.019067,-0.121052,176.935767,-86.302805,175.334726
233819,0.244883,0.042911,-0.107762,176.0793,-86.327975,176.333148
233919,0.253642,0.114031,-0.091993,175.304948,-86.393659,177.254264
234019,0.20419,0.183514,-0.068278,174.629751,-86.499599,178.047552
234119,0.109818,0.263384,-0.038845,174.057093,-86.652369,178.683832
234219,0.018976,0.362923,-0.020964,173.438774,-86.862692,179.313588
234319,-0.032215,0.436957,-0.0174,172.63277,-87.115012,-179.898232
234419,-0.051794,0.489305,-0.038961,171.296284,-87.394534,-178.590383
234519,-0.066657,0.5133,-0.077637,169.031896,-87.681708,-176.3626
234619,-0.090793,0.502912,-0.105693,165.724301,-87.954493,-173.105136
234719,-0.113278,0.427261,-0.127166,161.47896,-88.173289,-168.922773
234819,-0.128519,0.278788,-0.14165,157.021649,-88.297936,-164.537464
234919,-0.15897,0.095953,-0.139759,153.601177,-88.317957,-161.207048
235019,-0.206245,-0.080618,-0.11593,152.126523,-88.249752,-159.850369
235119,-0.209317,-0.251628,-0.099782,152.44397,-88.098552,-160.288371
235219,-0.15268,-0.39003,-0.107553,153.60977,-87.874357,-161.542821
235319,-0.075635,-0.414433,-0.120209,154.573092,-87.633572,-162.550649
235419,-0.046843,-0.321166,-0.120655,154.865918,-87.440562,-162.871013
235519,-0.081146,-0.190686,-0.094472,154.714168,-87.321538,-162.766058
235619,-0.139916,-0.064904,-0.052704,154.343386,-87.27778,-162.475531
235719,-0.192149,0.045483,-0.006602,153.8688,-87.302223,-162.111038
235819,-0.231239,0.090893,0.027883,153.495407,-87.358429,-161.870267
235919,-0.222162,0.066555,0.044467,153.441299,-87.40617,-161.943903
236019,-0.212994,0.017876,0.059542,153.844751,-87.432573,-162.470289
236119,-0.192579,-0.023311,0.087865,154.828242,-87.444311,-163.565563
236219,-0.160823,-0.044874,0.109211,156.204911,-87.448767,-165.036174
236319,-0.12329,-0.052857,0.126082,157.848779,-87.450997,-166.752708
236419,-0.105513,-0.067216,0.131614,159.636429,-87.444369,-168.602966
236519,-0.083919,-0.107856,0.12031,161.453743,-87.410986,-170.470556
236619,-0.060155,-0.11618,0.096999,162.987552,-87.366498,-172.040769
236719,-0.043208,-0.132784,0.062625,164.128584,-87.305617,-173.208124
236819,-0.024123,-0.133888,0.043008,165.006079,-87.240167,-174.100757
236919,-0.031867,-0.136842,0.031379,165.714711,-87.170799,-174.828819
237019,-0.044672,-0.127124,0.019495,166.223815,-87.1048,-175.364496
237119,-0.055972,-0.109429,0.022253,166.686987,-87.048798,-175.860693
237219,-0.068723,-0.07847,0.032922,167.16294,-87.011243,-176.377027
237319,-0.081503,-0.027425,0.04636,167.64284,-87.003676,-176.904657
237419,-0.101628,0.020767,0.059299,168.138592,-87.024399,-177.4597
237519,-0.129392,0.050757,0.064107,168.612248,-87.062215,-178.00853
237619,-0.144872,0.032806,0.070399,169.19784,-87.090312,-178.678301
237719,-0.151029,-0.015118,0.06874,169.868759,-87.090804,-179.437029
237819,-0.144275,-0.060939,0.062458,170.557944,-87.064307,179.789822
237919,-0.12681,-0.100745,0.056778,171.248303,-87.014271,179.025493
238019,-0.106212,-0.131704,0.05073,171.908315,-86.945696,178.303331
238119,-0.083755,-0.147139,0.042562,172.486476,-86.867296,177.675976
238219,-0.051619,-0.142937,0.033597,172.956864,-86.790307,177.174954
238319,-0.022972,-0.133387,0.022629,173.300543,-86.717792,176.817245
238419,0.011061,-0.11485,0.013061,173.534542,-86.6551,176.588906
238519,0.029193,-0.087833,0.007368,173.686753,-86.607398,176.452888
238619,0.045128,-0.058804,0.010398,173.84264,-86.576413,176.322325
238719,0.057793,-0.027629,0.01555,174.020657,-86.563495,176.176858
238819,0.067936,-0.000651,0.023714,174.254491,-86.566414,175.981293
238919,0.078392,0.009238,0.029835,174.543695,-86.575265,175.736262
239019,0.080107,0.007466,0.036231,174.897786,-86.583362,175.427215
239119,0.061151,-0.001072,0.042837,175.31248,-86.586785,175.04658
239219,0.034061,0.008749,0.053813,175.810534,-86.596131,174.566889
239319,0.011365,0.032573,0.069248,176.432324,-86.61943,173.950228
239419,0.004107,0.059787,0.088558,177.233502,-86.65847,173.149723
239519,0.007943,0.087921,0.09945,178.154268,-86.713177,172.23167
239619,0.01674,0.111133,0.106111,179.174757,-86.78038,171.21884
239719,0.02137,0.1232,0.113173,-179.685182,-86.853435,170.088982
239819,0.007472,0.129169,0.120619,-178.418668,-86.928517,168.824593
239919,-0.026354,0.141016,0.129698,-177.0032,-87.008557,167.391731
240019,-0.070551,0.161146,0.137952,-175.42564,-87.097795,165.77132
240119,-0.101766,0.172916,0.140382,-173.723641,-87.191206,164.008541
240219,-0.092662,0.177117,0.140169,-171.895133,-87.284287,162.124474
240319,-0.058755,0.192184,0.130392,-170.005775,-87.383805,160.199093
240419,-0.022041,0.212152,0.116683,-168.068058,-87.493033,158.246524
240519,0.021967,0.233142,0.109153,-165.960358,-87.611841,156.149229
240619,0.066469,0.263595,0.11355,-163.423103,-87.743136,153.647742
240719,0.107956,0.324592,0.122186,-160.110994,-87.900814,150.394882
240819,0.168221,0.437021,0.133437,-155.280874,-88.106624,145.658029
240919,0.234758,0.532742,0.153988,-147.98359,-88.336793,138.49158
241019,0.258833,0.536118,0.164397,-138.331094,-88.529848,128.983628
241119,0.238246,0.535527,0.171162,-126.166239,-88.667235,116.951493
241219,0.181812,0.574967,0.168903,-111.116265,-88.743497,102.001712
241319,0.097428,0.560274,0.166665,-95.781958,-88.727337,86.719353
241419,-0.001147,0.469728,0.160631,-83.981094,-88.636005,74.914551
241519,-0.088148,0.345276,0.138636,-76.604755,-88.525583,67.485268
241619,-0.124502,0.189405,0.084535,-73.100158,-88.451802,63.907936
241719,-0.115193,0.028713,0.026838,-72.676045,-88.433657,63.417491
241819,-0.105456,-0.114122,-0.021166,-74.858294,-88.465077,65.539948
241919,-0.089248,-0.231679,-0.052044,-79.520183,-88.525257,70.152144
242019,-0.07476,-0.349987,-0.082425,-87.22508,-88.597244,77.816463
242119,-0.016334,-0.438552,-0.120616,-97.807788,-88.657419,88.392674
242219,0.08773,-0.448745,-0.15981,-109.465896,-88.687924,100.104006
242319,0.215258,-0.377391,-0.191679,-119.974045,-88.699259,110.73807
242419,0.343686,-0.265983,-0.204321,-128.279895,-88.712526,119.242828
242519,0.441515,-0.140318,-0.188585,-133.968003,-88.742719,125.185198
242619,0.500182,-0.035105,-0.159506,-137.393963,-88.793639,128.898431
242719,0.514281,0.012404,-0.122081,-139.431127,-88.84664,131.230587
242819,0.490499,0.019364,-0.060991,-140.155583,-88.878764,132.236115
242919,0.449964,0.021845,0.018139,-139.099465,-88.882556,131.437499
243019,0.390528,0.042497,0.091962,-136.081309,-88.865924,128.642405
243119,0.325626,0.024175,0.133185,-132.778499,-88.822009,125.52538
243219,0.257136,-0.054988,0.147275,-131.105478,-88.739058,123.999194
243319,0.173851,-0.156729,0.148088,-131.525811,-88.616904,124.519128
243419,0.103878,-0.232505,0.130413,-133.376267,-88.472677,126.42957
243519,0.053637,-0.289893,0.099628,-136.145868,-88.315959,129.230852
243619,0.02589,-0.335676,0.068244,-139.407605,-88.147973,132.50883
243719,0.009059,-0.357987,0.034989,-142.776138,-87.976449,135.884326
243819,0.001195,-0.346084,0.001789,-145.92485,-87.815377,139.035688
243919,0.004488,-0.318735,-0.031416,-148.831236,-87.671906,141.946741
244019,0.023596,-0.278837,-0.06284,-151.497165,-87.551845,144.628356
244119,0.061504,-0.238092,-0.084785,-153.90986,-87.453472,147.078454
244219,0.097238,-0.215852,-0.092203,-156.089745,-87.364241,149.316177
244319,0.12252,-0.20448,-0.081,-157.930835,-87.274997,151.229397
244419,0.129143,-0.195547,-0.060126,-159.382223,-87.183628,152.756401
244519,0.127438,-0.18169,-0.029388,-160.360218,-87.092107,153.808565
244619,0.094614,-0.179015,0.002184,-160.957817,-86.995325,154.461083
244719,0.045476,-0.166047,0.041941,-161.101226,-86.897947,154.63063
244819,-0.015424,-0.146192,0.08648,-160.770774,-86.803002,154.290668
244919,-0.077093,-0.130507,0.118184,-160.14395,-86.710291,153.618438
245019,-0.126671,-0.118085,0.136336,-159.373346,-86.620194,152.77367
245119,-0.149919,-0.113936,0.140089,-158.610319,-86.530888,151.92307
245219,-0.157916,-0.118543,0.133809,-157.961677,-86.439834,151.182399
245319,-0.147974,-0.123822,0.120431,-157.47081,-86.348444,150.605451
245419,-0.128233,-0.117109,0.097311,-157.158122,-86.265471,150.218332
245519,-0.092854,-0.082441,0.073064,-156.914714,-86.206103,149.920926
245619,-0.062789,-0.031891,0.056308,-156.621972,-86.177053,149.591328
245719,-0.038033,-0.003437,0.044522,-156.313642,-86.165529,149.260317
245819,-0.036138,0.021601,0.03587,-155.985918,-86.168997,148.910957
245919,-0.047419,0.049843,0.030139,-155.608177,-86.188408,148.504999
246019,-0.04691,0.058419,0.026574,-155.222503,-86.212932,148.091395
246119,-0.03797,0.055321,0.025204,-154.848314,-86.23597,147.694448
246219,-0.021245,0.042217,0.02296,-154.526545,-86.252585,147.359648
246319,0.009507,0.014823,0.016426,-154.339771,-86.256539,147.177796
246419,0.056537,0.002327,0.002533,-154.282422,-86.257448,147.152652
246519,0.108637,0.002963,-0.01442,-154.326147,-86.262881,147.258716
246619,0.164434,0.025363,-0.028918,-154.367331,-86.283459,147.39427
246719,0.211085,0.067704,-0.039893,-154.307334,-86.328621,147.455215
246819,0.216108,0.124904,-0.047705,-154.081881,-86.40525,147.353252
246919,0.176985,0.187754,-0.052066,-153.648471,-86.51529,147.020486
247019,0.085829,0.234366,-0.051617,-153.033953,-86.648922,146.454009
247119,-0.015279,0.260055,-0.05594,-152.347168,-86.796411,145.757201
247219,-0.082446,0.267301,-0.057142,-151.607794,-86.947412,144.969282
247319,-0.106743,0.281022,-0.065436,-150.810107,-87.107021,144.109144
247419,-0.117785,0.312996,-0.081951,-149.902125,-87.286556,143.13237
247519,-0.163247,0.318236,-0.098935,-149.042699,-87.472841,142.178276
247619,-0.224694,0.262016,-0.107315,-148.588821,-87.633487,141.594987
247719,-0.258909,0.122033,-0.11309,-149.222584,-87.72712,142.080668
247819,-0.305944,-0.042407,-0.108564,-151.074372,-87.737214,143.758341
247919,-0.286565,-0.16576,-0.107414,-153.712431,-87.68168,146.234056
248019,-0.242008,-0.255369,-0.124063,-156.89945,-87.578448,149.284893
248119,-0.210304,-0.306809,-0.1402,-160.229556,-87.444106,152.497401
248219,-0.188711,-0.296762,-0.147881,-163.267116,-87.309079,155.42978
248319,-0.182945,-0.197361,-0.151713,-165.769312,-87.22325,157.829757
248419,-0.176871,-0.046223,-0.140129,-167.616086,-87.215936,159.577117
248519,-0.180303,0.079725,-0.106793,-168.781478,-87.273157,160.640298
248619,-0.206477,0.168684,-0.070769,-169.372621,-87.375733,161.113519
248719,-0.233748,0.233141,-0.046595,-169.561663,-87.511926,161.168553
248819,-0.243653,0.250727,-0.026311,-169.448033,-87.655886,160.914958
248919,-0.231824,0.217884,0.004175,-168.952131,-87.777996,160.285598
249019,-0.213786,0.173456,0.038265,-168.00454,-87.870905,159.214611
249119,-0.196154,0.129856,0.077786,-166.5006,-87.933532,157.597067
249219,-0.197432,0.067781,0.104174,-164.752658,-87.956219,155.734676
249319,-0.218698,-0.018438,0.115552,-163.207136,-87.927679,154.062639
249419,-0.24816,-0.087255,0.106553,-162.18692,-87.861695,152.899321
249519,-0.252932,-0.118115,0.077035,-161.796561,-87.783625,152.363522
249619,-0.236248,-0.133656,0.039535,-162.007611,-87.703761,152.439133
249719,-0.215727,-0.150135,0.007177,-162.69245,-87.620525,153.000698
249819,-0.1989,-0.158456,-0.021902,-163.729065,-87.53723,153.924034
249919,-0.191796,-0.13856,-0.043003,-164.89306,-87.467475,154.978996
250019,-0.191511,-0.103885,-0.054959,-166.037684,-87.417789,156.014777
250119,-0.204085,-0.079858,-0.058321,-167.121891,-87.381079,156.982901
250219,-0.223124,-0.07794,-0.061903,-168.226789,-87.345068,157.960845
250319,-0.244019,-0.091471,-0.06238,-169.351762,-87.300654,158.946932
250419,-0.265401,-0.120734,-0.056877,-170.448039,-87.238306,159.892068
250519,-0.285925,-0.173657,-0.056399,-171.59581,-87.145097,160.877048
250619,-0.297498,-0.231274,-0.057662,-172.77795,-87.018321,161.889895
250719,-0.292057,-0.27508,-0.062325,-173.96557,-86.865884,162.911478
250819,-0.254804,-0.300904,-0.066206,-175.09082,-86.69787,163.892126
250919,-0.20528,-0.305752,-0.07617,-176.183549,-86.526497,164.868785
251019,-0.169514,-0.304211,-0.087959,-177.26433,-86.355337,165.854178
251119,-0.138214,-0.301694,-0.10129,-178.348806,-86.184799,166.861431
251219,-0.114927,-0.296603,-0.105305,-179.363227,-86.016069,167.812035
251319,-0.090017,-0.298001,-0.098699,179.768392,-85.84551,168.630731
251419,-0.045716,-0.272526,-0.086699,179.07926,-85.688864,169.295309
251519,-0.003116,-0.230301,-0.069418,178.580546,-85.556129,169.793514
251619,0.036977,-0.202218,-0.053256,178.242773,-85.43947,170.153406
251719,0.055395,-0.194567,-0.037742,178.039494,-85.327352,170.389009
251819,0.051608,-0.206704,-0.025379,177.93183,-85.208485,170.526528
251919,0.032591,-0.222218,-0.012991,177.905524,-85.080989,170.571485
252019,0.027784,-0.225839,-0.004464,177.934195,-84.951614,170.558494
252119,0.035174,-0.219921,0.000448,177.995457,-84.825748,170.517026
252219,0.046883,-0.192142,0.006392,178.091596,-84.71593,170.447259
252319,0.048497,-0.147761,0.010435,178.201045,-84.631626,170.365038
252419,0.040052,-0.092945,0.01873,178.342729,-84.578881,170.245564
252519,0.018645,-0.024984,0.030831,178.531375,-84.565259,170.066586
252619,-0.011045,0.043738,0.041986,178.759989,-84.591128,169.83037
252719,-0.055217,0.095312,0.054319,179.035003,-84.646612,169.522139
252819,-0.099648,0.141587,0.069624,179.381857,-84.728602,169.116222
252919,-0.116966,0.181183,0.086741,179.837683,-84.833115,168.590974
253019,-0.084355,0.212731,0.099597,-179.583033,-84.955286,167.960625
253119,-0.016216,0.252004,0.106201,-178.885591,-85.099313,167.250986
253219,0.065383,0.316741,0.107296,-178.076115,-85.279628,166.476005
253319,0.143167,0.413831,0.105464,-177.137254,-85.514602,165.616163
253419,0.198238,0.502261,0.108216,-175.998711,-85.798808,164.588019
253519,0.225198,0.531097,0.136323,-174.430161,-86.096242,163.144665
253619,0.220304,0.530079,0.177741,-172.245839,-86.38686,161.081916
253719,0.203854,0.551355,0.222658,-169.230168,-86.678954,158.177524
253819,0.18862,0.549222,0.262008,-165.259811,-86.953643,154.309074
253919,0.166483,0.47443,0.275311,-160.696434,-87.168317,149.835007
254019,0.122239,0.333225,0.249741,-156.451031,-87.294627,145.654564
254119,0.05625,0.13142,0.19911,-153.569799,-87.315451,142.802202
254219,-0.013399,-0.058999,0.142483,-152.393719,-87.249,141.616903
254319,-0.067744,-0.165491,0.095685,-152.36358,-87.140314,141.547653
254419,-0.102973,-0.196794,0.066532,-152.802331,-87.023411,141.927679
254519,-0.101814,-0.189468,0.043068,-153.39734,-86.91617,142.46488
254619,-0.052671,-0.161511,0.015748,-154.053164,-86.829923,143.091234
254719,0.024954,-0.11848,-0.023248,-154.801686,-86.775146,143.855018
254819,0.112206,-0.052584,-0.066811,-155.599707,-86.764532,144.718476
254919,0.201509,0.020732,-0.100588,-156.356845,-86.799483,145.592227
255019,0.280647,0.080861,-0.121636,-157.044411,-86.870182,146.441672
255119,0.351275,0.122166,-0.128396,-157.625094,-86.963632,147.224543
255219,0.394697,0.145215,-0.113707,-157.975505,-87.065716,147.801677
255319,0.414813,0.154775,-0.076566,-157.906844,-87.164736,147.970701
255419,0.391917,0.136292,-0.017823,-157.289799,-87.241115,147.577546
255519,0.343906,0.101003,0.051032,-156.075799,-87.282932,146.559237
255619,0.284367,0.075055,0.11405,-154.302567,-87.294768,144.946944
255719,0.228592,0.067766,0.164492,-152.04686,-87.287106,142.819647
255819,0.171939,0.062787,0.203827,-149.461374,-87.26167,140.329673
255919,0.107556,0.034515,0.221166,-146.974329,-87.211982,137.901244
256019,0.025481,-0.015566,0.22343,-144.934938,-87.133182,135.873798
256119,-0.058692,-0.05614,0.207361,-143.466818,-87.037875,134.369916
256219,-0.112007,-0.093297,0.173055,-142.65666,-86.935863,133.494181
256319,-0.115017,-0.107291,0.128899,-142.353407,-86.842455,133.124287
256419,-0.100006,-0.107252,0.08368,-142.422337,-86.76485,133.135737
256519,-0.059692,-0.116448,0.036117,-142.897048,-86.6996,133.576763
256619,0.000943,-0.129575,-0.009803,-143.755967,-86.643759,134.437471
256719,0.055453,-0.1532,-0.044494,-144.958679,-86.587622,135.673907
256819,0.115692,-0.157728,-0.066771,-146.285774,-86.534966,137.069597
256919,0.174204,-0.132956,-0.074891,-147.477687,-86.494923,138.363511
257019,0.202514,-0.103846,-0.074971,-148.484659,-86.467552,139.488433
257119,0.209771,-0.083503,-0.068918,-149.327026,-86.447267,140.452632
257219,0.182735,-0.079978,-0.056354,-150.057977,-86.424287,141.289701
257319,0.137313,-0.08726,-0.037482,-150.686855,-86.391732,141.998447
257419,0.085015,-0.094211,-0.017422,-151.204963,-86.349687,142.566206
257519,0.032211,-0.101879,-0.000649,-151.641658,-86.298906,143.022097
257619,0.003687,-0.100978,0.017068,-151.941859,-86.243608,143.324855
257719,-0.012509,-0.097101,0.029774,-152.13001,-86.186787,143.506039
257819,-0.024389,-0.083246,0.035409,-152.222187,-86.135463,143.584223
257919,-0.039082,-0.080105,0.031682,-152.335504,-86.086729,143.675164
258019,-0.036337,-0.084748,0.026351,-152.501085,-86.037052,143.820078
258119,-0.027687,-0.094385,0.020974,-152.732419,-85.98387,144.035886
258219,-0.008048,-0.089355,0.01401,-152.977634,-85.935032,144.276905
258319,0.007431,-0.071788,0.006418,-153.198491,-85.897096,144.502413
258419,0.027648,-0.044713,-0.003683,-153.378614,-85.875592,144.698706
258519,0.038304,-0.0264,-0.012532,-153.548343,-85.865725,144.890708
258619,0.047935,-0.007797,-0.023688,-153.725218,-85.868226,145.095409
258719,0.0638,0.009206,-0.036584,-153.925381,-85.8827,145.332573
258819,0.082549,0.031724,-0.051464,-154.144383,-85.912454,145.599393
258919,0.096305,0.040376,-0.063883,-154.418838,-85.949685,145.929701
259019,0.085094,0.019075,-0.07018,-154.825319,-85.977298,146.385914
259119,0.066527,-0.013672,-0.076076,-155.403618,-85.989037,147.003697
259219,0.067158,-0.044637,-0.083018,-156.139072,-85.985738,147.779385
259319,0.097378,-0.063467,-0.095429,-157.008406,-85.974615,148.706651
259419,0.154783,-0.061716,-0.103623,-157.895375,-85.965232,149.684586
259519,0.215817,-0.041075,-0.111106,-158.738165,-85.967394,150.653299
259619,0.258772,0.001927,-0.111393,-159.436086,-85.991723,151.501448
259719,0.270684,0.053651,-0.10569,-159.946177,-86.042102,152.168123
259819,0.258594,0.102825,-0.101865,-160.308876,-86.117912,152.680071
259919,0.218394,0.15613,-0.1012,-160.553842,-86.222239,153.050887
260019,0.165079,0.224115,-0.10269,-160.658879,-86.363583,153.250817
260119,0.104604,0.300563,-0.111323,-160.650511,-86.54796,153.30237
260219,0.059501,0.374311,-0.127748,-160.580739,-86.775396,153.266514
260319,0.045136,0.448646,-0.146176,-160.429305,-87.046562,153.14064
260419,0.057168,0.529259,-0.163681,-160.10899,-87.364602,152.852613
260519,0.068739,0.592439,-0.171271,-159.48601,-87.717996,152.268355
260619,0.066696,0.564626,-0.15979,-158.634146,-88.05376,151.454024
260719,0.05185,0.431908,-0.134883,-157.987717,-88.313067,150.836866
260819,0.032331,0.237732,-0.109302,-158.233487,-88.463477,151.101137
260919,-0.017202,0.031897,-0.082545,-159.665935,-88.498066,152.524104
261019,-0.077422,-0.151548,-0.072118,-162.232037,-88.429883,155.046628
261119,-0.099536,-0.315178,-0.086975,-165.694247,-88.270342,158.453092
261219,-0.09665,-0.412014,-0.111934,-169.305188,-88.053892,162.010351
261319,-0.085943,-0.400264,-0.143472,-172.636362,-87.840417,165.294249
261419,-0.089205,-0.278808,-0.166293,-175.552116,-87.69147,168.160926
261519,-0.11309,-0.112437,-0.175342,-178.17569,-87.63281,170.721684
261619,-0.140509,0.079854,-0.168657,179.377426,-87.679743,173.089882
261719,-0.169332,0.244548,-0.15307,176.916048,-87.817079,175.455898
261819,-0.199543,0.331138,-0.124368,174.441587,-88.000942,177.817427
261919,-0.217513,0.322891,-0.088488,172.134051,-88.178667,-179.998623
262019,-0.212495,0.256166,-0.040932,170.502755,-88.319997,-178.488541
262119,-0.209013,0.158541,0.009333,170.00259,-88.410104,-178.108139
262219,-0.207749,0.027579,0.059531,170.983799,-88.430937,-179.208953
262319,-0.208232,-0.101567,0.099681,173.161908,-88.380741,178.49259
262419,-0.18343,-0.177351,0.130142,175.918309,-88.286215,175.629734
262519,-0.133523,-0.200822,0.125601,178.333275,-88.174438,173.136929
262619,-0.080834,-0.206731,0.089959,179.887507,-88.056359,171.535364
262719,-0.031762,-0.206924,0.048004,-179.381,-87.937259,170.785056
262819,-0.028247,-0.21902,0.014266,-179.23941,-87.811273,170.627009
262919,-0.041117,-0.230447,-0.01069,-179.477612,-87.678914,170.841648
263019,-0.065462,-0.248335,-0.023408,-179.876575,-87.53631,171.203243
263119,-0.068877,-0.243097,-0.032315,179.650897,-87.396597,171.636549
263219,-0.081291,-0.220663,-0.040755,179.112022,-87.26953,172.129194
263319,-0.091269,-0.194345,-0.040188,178.61239,-87.15735,172.576872
263419,-0.109552,-0.17216,-0.033682,178.202905,-87.057818,172.923838
263519,-0.128598,-0.1463,-0.018246,177.964062,-86.973301,173.089032
263619,-0.14157,-0.145653,0.003378,177.956448,-86.889578,173.015233
263719,-0.153459,-0.172649,0.022092,178.141088,-86.790751,172.742056
263819,-0.1601,-0.220461,0.036349,178.461542,-86.664709,172.329
263919,-0.153343,-0.264362,0.044328,178.842127,-86.513477,171.859519
264019,-0.140867,-0.290717,0.043752,179.191703,-86.346964,171.428181
264119,-0.109382,-0.291915,0.038684,179.480879,-86.179593,171.075362
264219,-0.083181,-0.274116,0.033556,179.714537,-86.022318,170.793164
264319,-0.065643,-0.239446,0.025626,179.874695,-85.884854,170.594665
264419,-0.04476,-0.213909,0.018607,179.980619,-85.762016,170.462503
264519,-0.032823,-0.201405,0.012558,-179.959095,-85.646362,170.38294
264619,-0.031174,-0.190336,0.012187,-179.904426,-85.53707,170.30994
264719,-0.035792,-0.178006,0.012716,-179.85179,-85.43486,170.236306
264819,-0.037671,-0.172709,0.020222,-179.750637,-85.335682,170.112899
264919,-0.036157,-0.163641,0.028063,-179.599452,-85.241669,169.940133
265019,-0.032959,-0.1546,0.034461,-179.409387,-85.152779,169.730158
265119,-0.023467,-0.149864,0.038783,-179.192385,-85.066531,169.498571
265219,-0.006982,-0.15025,0.043893,-178.940703,-84.979968,169.241617
265319,0.020215,-0.140214,0.046341,-178.665118,-84.899074,168.976273
265419,0.059798,-0.100093,0.053659,-178.321837,-84.840992,168.665701
265519,0.090473,-0.054564,0.069471,-177.858478,-84.808559,168.252184
265619,0.097791,-0.008674,0.095421,-177.219915,-84.801465,167.66694
265719,0.080107,0.032367,0.124199,-176.396292,-84.816311,166.885707
265819,0.047085,0.06924,0.146593,-175.427217,-84.850256,165.93946
265919,0.020628,0.107428,0.16154,-174.341898,-84.903742,164.861344
266019,0.014288,0.127958,0.161747,-173.221092,-84.967088,163.744047
266119,0.039276,0.139203,0.145158,-172.156575,-85.03619,162.697728
266219,0.079947,0.162185,0.125662,-171.145035,-85.118338,161.728081
266319,0.130904,0.191249,0.10814,-170.154993,-85.217152,160.809432
266419,0.172257,0.232542,0.097809,-169.118032,-85.338997,159.867623
266519,0.201604,0.310667,0.100291,-167.87594,-85.502939,158.737085
266619,0.219544,0.410554,0.111199,-166.275581,-85.719053,157.257838
266719,0.220292,0.451855,0.124602,-164.318711,-85.95254,155.422007
266819,0.186668,0.421707,0.140861,-162.098633,-86.16182,153.303541
266919,0.115637,0.410937,0.151017,-159.622252,-86.357259,150.887946
267019,0.048559,0.454108,0.156148,-156.70748,-86.566993,147.995162
267119,-0.008122,0.429403,0.145587,-153.666432,-86.756857,144.943957
267219,-0.066789,0.331635,0.129301,-150.955039,-86.892234,142.189731
267319,-0.104915,0.210413,0.112837,-148.872075,-86.965654,140.043225
267419,-0.122798,0.071843,0.084538,-147.782545,-86.976716,138.881358
267519,-0.116628,-0.040535,0.053639,-147.622806,-86.942051,138.654115
267619,-0.106431,-0.123192,0.036286,-148.082743,-86.872516,139.053286
267719,-0.073113,-0.176136,0.020404,-148.925765,-86.781542,139.855277
267819,-0.033755,-0.21672,-0.000253,-150.079556,-86.675695,140.991206
267919,0.023369,-0.258618,-0.029902,-151.569961,-86.555631,142.497253
268019,0.120266,-0.242276,-0.073968,-153.19788,-86.453145,144.196869
268119,0.2338,-0.158558,-0.126135,-154.771085,-86.403987,145.906982
268219,0.350465,-0.053004,-0.161539,-156.14094,-86.415504,147.480362
268319,0.443638,0.067933,-0.168977,-157.098714,-86.49025,148.694296
268419,0.482354,0.191625,-0.148264,-157.447222,-86.624833,149.319963
268519,0.460067,0.28882,-0.118613,-157.192143,-86.804122,149.328175
268619,0.400102,0.343864,-0.07787,-156.311431,-87.003082,148.675448
268719,0.328989,0.375738,-0.017212,-154.560988,-87.203281,147.111212
268819,0.256753,0.396895,0.057445,-151.643657,-87.39153,144.337621
268919,0.17957,0.408908,0.118473,-147.556662,-87.559694,140.34936
269019,0.084611,0.401889,0.150769,-142.64942,-87.699706,135.486148
269119,-0.015793,0.369271,0.15446,-137.507294,-87.805887,130.330708
269219,-0.124676,0.298852,0.131621,-133.003516,-87.875248,125.751926
269319,-0.220583,0.224094,0.094937,-129.568601,-87.920047,122.187893
269419,-0.267133,0.17402,0.052558,-127.074233,-87.959315,119.538415
269519,-0.268445,0.148843,0.011723,-125.207255,-88.005344,117.516029
269619,-0.243617,0.141653,-0.028564,-123.712334,-88.06598,115.880218
269719,-0.208585,0.140467,-0.068032,-122.484001,-88.143836,114.531297
269819,-0.147975,0.147769,-0.097077,-121.269336,-88.23705,113.230865
269919,-0.094069,0.164379,-0.119924,-119.821747,-88.345371,111.728386
270019,-0.047949,0.180464,-0.13989,-118.038072,-88.466816,109.916223
270119,-0.014608,0.163911,-0.142086,-116.293908,-88.583383,108.162805
270219,-0.015994,0.117345,-0.127187,-115.141971,-88.679437,107.001078
270319,-0.035455,0.057477,-0.103719,-115.007909,-88.748402,106.846376
270419,-0.06163,0.011712,-0.074342,-115.663206,-88.790908,107.466224
270519,-0.086245,-0.027438,-0.042682,-116.955909,-88.806951,108.709511
270619,-0.094846,-0.061408,-0.012443,-118.71144,-88.797864,110.410803
270719,-0.0949,-0.094452,0.001842,-121.00522,-88.770986,112.650448
270819,-0.088594,-0.130058,0.007269,-123.885594,-88.728407,115.480474
270919,-0.074043,-0.157099,0.008183,-127.088143,-88.673177,118.641154
271019,-0.056895,-0.166185,0.001718,-130.279239,-88.613672,121.800285
271119,-0.048465,-0.156293,-0.00021,-133.059562,-88.554954,124.553434
271219,-0.049235,-0.141077,-0.007105,-135.490576,-88.50213,126.956791
271319,-0.053968,-0.13322,-0.012901,-137.731945,-88.452398,129.167787
271419,-0.045716,-0.134661,-0.022645,-139.996634,-88.403459,131.4069
271519,-0.038474,-0.145172,-0.026624,-142.308676,-88.348859,133.697598
271619,-0.022872,-0.148183,-0.030046,-144.546435,-88.291526,135.922997
271719,-0.008438,-0.159757,-0.038794,-146.879697,-88.229002,138.25229
271819,0.020283,-0.161197,-0.047444,-149.178743,-88.165625,140.563899
271919,0.050003,-0.157542,-0.060397,-151.468577,-88.104917,142.883413
272019,0.078289,-0.147488,-0.071451,-153.685896,-88.049362,145.146672
272119,0.100842,-0.125193,-0.084423,-155.805987,-88.005746,147.325647
272219,0.114892,-0.096495,-0.097365,-157.840863,-87.977525,149.427461
272319,0.121293,-0.072121,-0.103142,-159.76343,-87.961044,151.420601
272419,0.117832,-0.061436,-0.105799,-161.639745,-87.948558,153.365498
272519,0.124834,-0.069713,-0.10919,-163.5743,-87.929868,155.372711
272619,0.150127,-0.074641,-0.112012,-165.517677,-87.906505,157.403288
272719,0.185886,-0.057258,-0.115834,-167.392316,-87.890953,159.385614
272819,0.213257,-0.010243,-0.119634,-169.141149,-87.899996,161.257754
272919,0.217797,0.039833,-0.125957,-170.873961,-87.935902,163.116447
273019,0.205987,0.076588,-0.135653,-172.755135,-87.99138,165.116777
273119,0.191948,0.103405,-0.153576,-175.012116,-88.060735,167.485015
273219,0.161223,0.14967,-0.174653,-177.792018,-88.153796,170.358735
273319,0.119733,0.246109,-0.190132,178.783854,-88.297096,173.853013
273419,0.049863,0.366306,-0.195756,174.332991,-88.501395,178.334056
273519,-0.022661,0.45293,-0.202253,167.858146,-88.741621,-175.202367
273619,-0.055637,0.49368,-0.225282,157.334215,-88.975222,-164.708408
273719,-0.065357,0.515267,-0.252655,140.17704,-89.155598,-147.586612
273819,-0.04615,0.490326,-0.260893,117.889272,-89.218075,-125.323266
273919,0.002051,0.439026,-0.251187,97.686582,-89.156765,-105.117579
274019,0.054331,0.335382,-0.222806,85.247193,-89.032754,-92.645685
274119,0.098444,0.160524,-0.184115,80.861876,-88.916166,-88.203408
274219,0.087032,-0.109161,-0.120779,84.51914,-88.854901,-91.811625
274319,0.054045,-0.374335,-0.058834,95.120607,-88.821325,-102.384412
274419,0.095361,-0.535261,-0.059066,108.860511,-88.723525,-116.0729
274519,0.251505,-0.592423,-0.104691,120.790191,-88.525291,-127.861947
274619,0.40534,-0.512756,-0.147461,128.012071,-88.28893,-134.854383
274719,0.432576,-0.341102,-0.163029,131.129211,-88.092116,-137.725235
274819,0.313743,-0.165093,-0.151304,131.686558,-87.964212,-138.103196
274919,0.139678,-0.00475,-0.123139,130.517439,-87.908817,-136.853412
275019,-0.013676,0.09403,-0.10707,128.291678,-87.895007,-134.634193
275119,-0.131981,0.104114,-0.094581,126.019447,-87.887064,-132.436299
275219,-0.206459,0.063452,-0.076382,124.403904,-87.871347,-130.938233
275319,-0.219653,0.026408,-0.042783,123.563585,-87.858475,-130.223479
275419,-0.184471,-0.023512,0.009002,123.826335,-87.854263,-130.592381
275519,-0.151258,-0.076601,0.064689,125.261717,-87.858893,-132.115683
275619,-0.099599,-0.09355,0.105861,127.324123,-87.875082,-134.236803
275719,-0.057548,-0.127393,0.117766,129.963242,-87.881265,-136.910897
275819,0.005224,-0.134209,0.110458,132.649978,-87.877134,-139.596643
275919,0.056251,-0.113808,0.082749,134.826432,-87.865403,-141.742512
276019,0.102048,-0.105542,0.06139,136.678445,-87.845719,-143.537481
276119,0.09431,-0.116469,0.052264,138.497016,-87.815721,-145.303455
276219,0.047584,-0.109451,0.055902,140.212956,-87.788064,-146.993555
276319,-0.003081,-0.08721,0.070187,141.818695,-87.773578,-148.602454
276419,-0.043176,-0.050141,0.08255,143.198385,-87.778621,-150.00814
276519,-0.073387,-0.01502,0.084975,144.291017,-87.799516,-151.143874
276619,-0.102468,0.006648,0.083949,145.188107,-87.829429,-152.100586
276719,-0.125416,0.018132,0.084299,146.003028,-87.864327,-152.988214
276819,-0.136209,0.023646,0.084022,146.788805,-87.901296,-153.852848
276919,-0.131458,-0.000851,0.086845,147.852192,-87.9268,-154.992535
277019,-0.124772,-0.045772,0.09556,149.432615,-87.931954,-156.64575
277119,-0.11263,-0.099383,0.102472,151.529472,-87.9104,-158.808786
277219,-0.084868,-0.147722,0.103928,153.945384,-87.861526,-161.275227
277319,-0.055034,-0.182876,0.10115,156.436904,-87.789845,-163.800324
277419,-0.0212,-0.196098,0.092215,158.734347,-87.705272,-166.111934
277519,0.018147,-0.186117,0.073882,160.602324,-87.61918,-167.971302
277619,0.058253,-0.161942,0.062483,162.117517,-87.541943,-169.45469
277719,0.084764,-0.126025,0.055023,163.329015,-87.481648,-170.618974
277819,0.101299,-0.075436,0.048372,164.236992,-87.447232,-171.470001
277919,0.115893,-0.022677,0.062222,165.127119,-87.443524,-172.294804
278019,0.131861,0.010017,0.080282,166.14762,-87.459962,-173.240948
278119,0.142082,0.012355,0.101435,167.447984,-87.479664,-174.461352
278219,0.154407,0.008179,0.119146,169.012863,-87.497786,-175.939442
278319,0.166599,0.003675,0.124634,170.686742,-87.512126,-177.519624
278419,0.175823,0.002838,0.126417,172.40813,-87.524133,-179.142056
278519,0.184548,-0.000911,0.125376,174.140557,-87.531845,179.229478
278619,0.20076,0.004817,0.123698,175.863258,-87.540649,177.62005
278719,0.204323,0.00719,0.122253,177.57769,-87.54871,176.020953
278819,0.216359,0.006743,0.13198,179.438961,-87.554547,174.281792
278919,0.238449,-0.001072,0.137414,-178.609911,-87.553439,172.465362
279019,0.268251,-0.003142,0.138084,-176.638291,-87.548512,170.645504
279119,0.280774,0.015867,0.134183,-174.698084,-87.552008,168.864269
279219,0.279929,0.04426,0.13431,-172.705645,-87.5691,167.030281
279319,0.272344,0.092542,0.130798,-170.634192,-87.611124,165.112896
279419,0.227911,0.130634,0.14133,-168.268191,-87.670388,162.875304
279519,0.208606,0.141132,0.143979,-165.723522,-87.73121,160.447922
279619,0.202235,0.127431,0.139793,-163.16943,-87.780757,158.007544
279719,0.202937,0.10143,0.132498,-160.73965,-87.813268,155.692036
279819,0.237854,0.08342,0.124414,-158.43747,-87.83406,153.52428
279919,0.283319,0.095592,0.119262,-156.066159,-87.859095,151.313441
280019,0.326279,0.139271,0.120562,-153.298442,-87.902735,148.730608
280119,0.366759,0.225329,0.122164,-149.686761,-87.983955,145.326584
280219,0.397149,0.317805,0.124429,-144.84937,-88.099912,140.713772
280319,0.410244,0.355663,0.127279,-138.938991,-88.216709,135.035244
280419,0.412599,0.359247,0.132158,-132.1772,-88.312159,128.5066
280519,0.40049,0.371908,0.138189,-124.458182,-88.383689,121.013677
280619,0.359548,0.347992,0.141837,-116.630594,-88.416484,113.388866
280719,0.273949,0.247766,0.136436,-110.665727,-88.403196,107.578453
280819,0.154971,0.100479,0.10743,-107.937824,-88.365543,104.938004
280919,0.035726,-0.051119,0.057975,-108.532517,-88.326279,105.553118
281019,-0.052691,-0.16862,0.01116,-111.576694,-88.288587,108.5681
281119,-0.102061,-0.248908,-0.023316,-116.146834,-88.244496,113.081493
281219,-0.121026,-0.334076,-0.0499,-122.047094,-88.177629,118.914905
281319,-0.08743,-0.406206,-0.086742,-128.827514,-88.084176,125.648456
281419,-0.031335,-0.427522,-0.129036,-135.602175,-87.975114,132.408804
281519,0.051458,-0.411016,-0.177889,-141.996105,-87.865621,138.836097
281619,0.177342,-0.34582,-0.211868,-147.539908,-87.774198,144.485258
281719,0.290944,-0.234556,-0.2296,-152.022579,-87.724533,149.137895
281819,0.35411,-0.120595,-0.231284,-155.61121,-87.721102,152.932104
281919,0.379805,-0.052999,-0.212252,-158.551869,-87.740435,156.09256
282019,0.379789,-0.031042,-0.173592,-160.896944,-87.758011,158.656936
282119,0.349957,-0.032442,-0.120659,-162.554731,-87.761703,160.516383
282219,0.295674,-0.040734,-0.058728,-163.410983,-87.748799,161.542563
282319,0.237557,-0.051845,0.002437,-163.48545,-87.719418,161.753034
282419,0.172352,-0.082843,0.040183,-163.20778,-87.666784,161.573691
282519,0.093746,-0.13169,0.057367,-162.956482,-87.584434,161.375647
282619,0.008376,-0.169054,0.066384,-162.801132,-87.480046,161.224655
282719,-0.066517,-0.185047,0.067524,-162.746626,-87.366687,161.131632
282819,-0.121522,-0.200266,0.071895,-162.733976,-87.244245,161.048944
282919,-0.150061,-0.219904,0.069316,-162.836181,-87.11149,161.064863
283019,-0.173652,-0.236616,0.05932,-163.103424,-86.971257,161.232502
283119,-0.193376,-0.241862,0.034605,-163.623287,-86.832146,161.641831
283219,-0.195833,-0.236949,0.008847,-164.338106,-86.699588,162.245069
283319,-0.190582,-0.200528,-0.017566,-165.153298,-86.59071,162.951939
283419,-0.178781,-0.166566,-0.039237,-166.033775,-86.503171,163.73106
283519,-0.171013,-0.150928,-0.045375,-166.891045,-86.424466,164.491463
283619,-0.171158,-0.14049,-0.031739,-167.57343,-86.349247,165.076617
283719,-0.181254,-0.127129,-0.002936,-167.9631,-86.277679,165.362708
283819,-0.201077,-0.101983,0.03448,-167.989261,-86.215683,165.273155
283919,-0.232779,-0.088539,0.071101,-167.704649,-86.156799,164.853934
284019,-0.267108,-0.081856,0.105542,-167.155248,-86.097174,164.149581
284119,-0.294155,-0.077761,0.125885,-166.468302,-86.036678,163.29178
284219,-0.322297,-0.061179,0.142836,-165.652965,-85.982314,162.289058
284319,-0.338614,-0.077876,0.153492,-164.823764,-85.916156,161.262995
284419,-0.362204,-0.091752,0.1626,-163.998796,-85.839908,160.227538
284519,-0.369915,-0.100396,0.159805,-163.25171,-85.758357,159.265642
284619,-0.365737,-0.112313,0.146339,-162.658806,-85.671731,158.460661
284719,-0.348527,-0.110973,0.133633,-162.169941,-85.587483,157.769826
284819,-0.331945,-0.090227,0.122008,-161.726055,-85.516192,157.133572
284919,-0.303187,-0.058803,0.110028,-161.290911,-85.463792,156.522573
285019,-0.272566,-0.02931,0.096413,-160.872197,-85.429564,155.945633
285119,-0.241233,-0.016006,0.089558,-160.45655,-85.403504,155.389767
285219,-0.225038,-0.008879,0.082281,-160.067683,-85.382392,154.870073
285319,-0.219064,0.003141,0.079014,-159.670983,-85.368108,154.345954
285419,-0.215659,0.007095,0.081656,-159.247329,-85.355111,153.796752
285519,-0.201907,0.000822,0.088046,-158.792222,-85.337101,153.223896
285619,-0.184212,-0.001454,0.092778,-158.305718,-85.316495,152.629705
285719,-0.150813,-0.016038,0.085001,-157.89295,-85.289413,152.128686
285819,-0.096155,-0.018651,0.059883,-157.621216,-85.266155,151.800596
285919,-0.028123,0.00022,0.026224,-157.477333,-85.260172,151.63991
286019,0.039112,0.039055,-0.006627,-157.401149,-85.281953,151.585823
286119,0.095158,0.09683,-0.031521,-157.296374,-85.339789,151.535285
286219,0.127889,0.151162,-0.05454,-157.171318,-85.431447,151.483233
286319,0.136457,0.218663,-0.070107,-156.948723,-85.562214,151.338285
286419,0.108157,0.30034,-0.074313,-156.512868,-85.736901,150.963239
286519,0.052506,0.356626,-0.08125,-155.941607,-85.9425,150.420554
286619,-0.000182,0.384262,-0.087578,-155.292463,-86.163641,149.769683
286719,-0.032571,0.406478,-0.086064,-154.484037,-86.395397,148.940763
286819,-0.026516,0.425488,-0.070417,-153.341449,-86.632066,147.780742
286919,-0.030311,0.404319,-0.060567,-152.04137,-86.853793,146.461062
287019,-0.068905,0.299808,-0.064171,-151.168256,-87.022301,145.547049
287119,-0.132494,0.129241,-0.069513,-151.240789,-87.106223,145.543539
287219,-0.176594,-0.033501,-0.07729,-152.307051,-87.110037,146.509714
287319,-0.203881,-0.157717,-0.093346,-154.172893,-87.053146,148.260863
287419,-0.224028,-0.240203,-0.122171,-156.627781,-86.9568,150.59041
287519,-0.237426,-0.256229,-0.155902,-159.329237,-86.853807,153.159397
287619,-0.237656,-0.199195,-0.181653,-161.927694,-86.780268,155.625298
287719,-0.249769,-0.084724,-0.184465,-164.130821,-86.764302,157.688385
287819,-0.287172,0.015366,-0.158412,-165.829816,-86.795919,159.225054
287919,-0.331376,0.060991,-0.110261,-166.994671,-86.844273,160.201326
288019,-0.36541,0.056588,-0.070851,-167.816524,-86.884247,160.814502
288119,-0.354577,0.025917,-0.044556,-168.442964,-86.903442,161.238167
288219,-0.322823,0.000937,-0.013028,-168.781067,-86.904794,161.391284
288319,-0.28013,-0.014409,0.02022,-168.781624,-86.893748,161.230851
288419,-0.237147,-0.02654,0.043627,-168.542533,-86.873205,160.855076
288519,-0.2076,-0.059457,0.056194,-168.232573,-86.832625,160.425272
288619,-0.220192,-0.130037,0.068528,-167.966713,-86.750884,160.032391
288719,-0.260928,-0.182368,0.078655,-167.752276,-86.638503,159.667606
288819,-0.274572,-0.212714,0.069425,-167.710452,-86.510197,159.467871
288919,-0.249157,-0.254775,0.062885,-167.801748,-86.359129,159.416075
289019,-0.206302,-0.30487,0.042767,-168.127268,-86.182403,159.623594
289119,-0.151709,-0.324745,0.01392,-168.663106,-85.997763,160.073311
289219,-0.102409,-0.319497,-0.011039,-169.312446,-85.818523,160.665233
289319,-0.072287,-0.287267,-0.024136,-169.948612,-85.658367,161.261372
289419,-0.07282,-0.242728,-0.02042,-170.460926,-85.522594,161.733097
289519,-0.093413,-0.193689,-0.01545,-170.865839,-85.413826,162.085321
289619,-0.126762,-0.152837,-0.014216,-171.220137,-85.327912,162.367636
289719,-0.158266,-0.127903,-0.010224,-171.528435,-85.25567,162.585709
289819,-0.194943,-0.128329,-0.002059,-171.795358,-85.182432,162.741194
289919,-0.227735,-0.158154,0.009427,-172.026546,-85.091299,162.841973
290019,-0.246686,-0.216655,0.01762,-172.261531,-84.966291,162.935675
290119,-0.235722,-0.269869,0.019387,-172.515841,-84.81091,163.0551
290219,-0.202961,-0.296693,0.01851,-172.767222,-84.640337,163.190456
290319,-0.158868,-0.303643,0.013246,-173.018011,-84.466171,163.350624
290419,-0.114917,-0.283939,0.001244,-173.286767,-84.304011,163.554187
290519,-0.061104,-0.242807,-0.007555,-173.535151,-84.165797,163.768307
290619,-0.001561,-0.197134,-0.012567,-173.739293,-84.053866,163.972289
290719,0.043355,-0.169995,-0.011319,-173.888278,-83.957288,164.14672
290819,0.086716,-0.162216,-0.016553,-174.031105,-83.865445,164.339966
290919,0.113886,-0.127888,-0.020371,-174.15533,-83.793381,164.530185
291019,0.115446,-0.088227,-0.006404,-174.181982,-83.74311,164.623165
291119,0.125551,-0.062418,0.021127,-174.046284,-83.705959,164.558644
291219,0.15277,-0.044539,0.048232,-173.747211,-83.677325,164.345432
291319,0.176877,-0.051825,0.072982,-173.314585,-83.6428,164.011725
291419,0.209372,-0.074323,0.098768,-172.751167,-83.593374,163.565112
291519,0.236749,-0.082788,0.124762,-172.055398,-83.536647,163.001046
291619,0.250818,-0.077944,0.151463,-171.226555,-83.479633,162.311098
291719,0.26,-0.050238,0.175672,-170.263917,-83.434877,161.491706
291819,0.263682,0.004384,0.193539,-169.174108,-83.41746,160.546377
291919,0.251868,0.066696,0.208955,-167.957963,-83.431149,159.467061
292019,0.217613,0.136002,0.219565,-166.626038,-83.479525,158.251517
292119,0.182117,0.196627,0.225775,-165.187856,-83.557408,156.908713
292219,0.171156,0.253937,0.227384,-163.63233,-83.662744,155.441751
292319,0.188213,0.319552,0.221682,-161.939239,-83.800362,153.846565
292419,0.220129,0.405907,0.213103,-160.03973,-83.980915,152.062646
292519,0.255601,0.499097,0.201308,-157.873301,-84.206958,150.031482
292619,0.277077,0.567071,0.197059,-155.384307,-84.461106,147.6894
292719,0.264392,0.586394,0.200157,-152.603957,-84.713566,145.048366
292819,0.228273,0.591638,0.206511,-149.527837,-84.953863,142.09063
292919,0.166435,0.615283,0.211659,-146.078485,-85.188522,138.723797
293019,0.116044,0.56944,0.218667,-142.484241,-85.381263,135.183657
293119,0.065334,0.457042,0.205565,-139.240603,-85.511016,131.966874
293219,0.025724,0.327983,0.168037,-136.708192,-85.587126,129.441136
293319,0.00348,0.199864,0.120011,-135.045342,-85.622411,127.77491
293419,-0.006136,0.10348,0.072033,-134.136915,-85.635572,126.859825
293519,0.009476,0.036244,0.036762,-133.764204,-85.635702,126.490987
293619,0.048381,-0.01071,0.008846,-133.769167,-85.628619,126.523277
293719,0.104766,-0.038283,-0.028484,-134.084611,-85.625907,126.89936
293819,0.165436,-0.051986,-0.065217,-134.631146,-85.632475,127.542079
293919,0.22123,-0.04116,-0.099199,-135.271675,-85.656638,128.311121
294019,0.26849,0.001225,-0.130634,-135.840255,-85.71008,129.035138
294119,0.302095,0.069305,-0.152388,-136.162974,-85.799764,129.531866
294219,0.332935,0.14484,-0.1576,-136.098787,-85.922583,129.658335
294319,0.353379,0.207789,-0.141359,-135.563848,-86.064776,129.32463
294419,0.355888,0.242773,-0.114936,-134.619683,-86.210096,128.582274
294519,0.344597,0.247813,-0.080488,-133.369353,-86.342171,127.526751
294619,0.320996,0.233303,-0.035302,-131.866751,-86.447813,126.205053
294719,0.292004,0.209105,0.009844,-130.193802,-86.522438,124.696179
294819,0.239218,0.176335,0.050653,-128.485327,-86.564263,123.12151
294919,0.17403,0.137953,0.079315,-126.905845,-86.576874,121.638688
295019,0.101339,0.088959,0.075012,-125.76477,-86.572714,120.553329
295119,0.022906,0.035899,0.055744,-125.192882,-86.558928,119.993138
295219,-0.044689,-0.018436,0.031156,-125.220798,-86.538554,119.995019
295319,-0.093852,-0.051057,0.001475,-125.689525,-86.521208,120.410292
295419,-0.121488,-0.074874,-0.020196,-126.470098,-86.505603,121.122129
295519,-0.125983,-0.103201,-0.0334,-127.531297,-86.485593,122.112551
295619,-0.122191,-0.112597,-0.047031,-128.725087,-86.467228,123.238015
295719,-0.10924,-0.105578,-0.064152,-129.950308,-86.457555,124.402426
295819,-0.089262,-0.088729,-0.078254,-131.124978,-86.458801,125.52767
295919,-0.071016,-0.082755,-0.102163,-132.397499,-86.471062,126.761424
296019,-0.063234,-0.074525,-0.12165,-133.743348,-86.492961,128.073096
296119,-0.043768,-0.051377,-0.132234,-135.009945,-86.526634,129.316511
296219,-0.026863,-0.035452,-0.13416,-136.198371,-86.565973,130.491279
296319,-0.022874,-0.04698,-0.128657,-137.446856,-86.596823,131.72847
296419,-0.029744,-0.065448,-0.117779,-138.759541,-86.613982,133.026012
296519,-0.045727,-0.076662,-0.096214,-140.002657,-86.616509,134.244689
296619,-0.078178,-0.101881,-0.072119,-141.23592,-86.59756,135.434892
296719,-0.106193,-0.119735,-0.049302,-142.401842,-86.561032,136.541597
296819,-0.11529,-0.120487,-0.037601,-143.46357,-86.51886,137.538751
296919,-0.118631,-0.115259,-0.031071,-144.423839,-86.475873,138.432394
297019,-0.112761,-0.104533,-0.033343,-145.318441,-86.437811,139.263665
297119,-0.102753,-0.091264,-0.035846,-146.139535,-86.406105,140.027073
297219,-0.095431,-0.085985,-0.037295,-146.926353,-86.376749,140.760382
297319,-0.092211,-0.091206,-0.038937,-147.73546,-86.344775,141.517913
297419,-0.079728,-0.092276,-0.03722,-148.514766,-86.311129,142.252791
297519,-0.067519,-0.106273,-0.038968,-149.348615,-86.270498,143.04938
297619,-0.04278,-0.10439,-0.049886,-150.224206,-86.233218,143.902051
297719,-0.048521,-0.088041,-0.069032,-151.161873,-86.208636,144.813675
297819,-0.046876,-0.068746,-0.08392,-152.12138,-86.196881,145.74816
297919,-0.053025,-0.063488,-0.10222,-153.197695,-86.191559,146.796198
298019,-0.049644,-0.038542,-0.121883,-154.327552,-86.202741,147.89984
298119,-0.040532,-0.007916,-0.136364,-155.461681,-86.231923,149.012981
298219,-0.035178,0.018606,-0.14711,-156.603397,-86.276065,150.136761
298319,-0.015216,0.027653,-0.155646,-157.799694,-86.325408,151.326645
298419,0.02069,0.027245,-0.160687,-159.050469,-86.373974,152.59168
298519,0.060587,0.025755,-0.167129,-160.371173,-86.421225,153.94963
298619,0.097161,0.037638,-0.167744,-161.675739,-86.47308,155.312353
298719,0.132404,0.089826,-0.162176,-162.802514,-86.550655,156.517109
298819,0.170645,0.1482,-0.148298,-163.67037,-86.6567,157.484346
298919,0.18878,0.197644,-0.133446,-164.306337,-86.786911,158.229629
299019,0.179301,0.22908,-0.11873,-164.766152,-86.931889,158.792973
299119,0.137401,0.270229,-0.10863,-165.072155,-87.098015,159.178186
299219,0.06424,0.361856,-0.104937,-165.138617,-87.314383,159.281543
299319,-0.007748,0.484105,-0.115744,-164.980978,-87.600145,159.119262
299419,-0.053565,0.594457,-0.154945,-164.951561,-87.952879,159.05905
299519,-0.048626,0.694235,-0.208337,-165.415847,-88.368776,159.495616
299619,-0.018122,0.748413,-0.249533,-166.923109,-88.820199,160.992834
299719,0.004185,0.699466,-0.267642,-171.406037,-89.243716,165.478653
299819,0.013695,0.533524,-0.265922,174.838157,-89.556615,179.24288
299919,-0.012577,0.287444,-0.236407,147.527007,-89.672215,-153.452719
300019,-0.096151,0.024678,-0.182568,132.952832,-89.615491,-138.933483
300119,-0.178941,-0.175563,-0.137237,135.06463,-89.488632,-141.148002
300219,-0.199555,-0.335666,-0.126281,141.841244,-89.295887,-148.039463
300319,-0.144592,-0.466284,-0.141158,147.753791,-89.030067,-154.035622
300419,-0.087992,-0.511051,-0.151986,151.42628,-88.732743,-157.759382
300519,-0.103908,-0.39629,-0.15279,152.556009,-88.490595,-158.949166
300619,-0.175562,-0.183711,-0.136157,151.714889,-88.360508,-158.208546
300719,-0.261895,0.019852,-0.108624,149.467311,-88.339236,-156.110359
300819,-0.319996,0.187664,-0.071316,146.024223,-88.407675,-152.849527
300919,-0.359512,0.265715,-0.027692,141.980381,-88.520731,-149.010534
301019,-0.416627,0.240247,0.006995,138.301182,-88.628017,-145.569234
301119,-0.409572,0.174396,0.055234,136.120596,-88.721749,-143.623055
301219,-0.405889,0.090066,0.096671,136.065666,-88.796151,-143.800986
301319,-0.383476,0.036845,0.119386,137.564458,-88.857125,-145.520116
301419,-0.354006,0.02138,0.124511,139.683837,-88.912213,-147.843028
301519,-0.320814,-0.032858,0.118307,142.93486,-88.938609,-151.278732
301619,-0.269833,-0.070272,0.098827,146.510998,-88.937133,-155.010382
301719,-0.208843,-0.073701,0.061201,149.157697,-88.918737,-157.777497
301819,-0.159949,-0.071777,0.026948,150.815838,-88.889535,-159.527884
301919,-0.130489,-0.067497,-0.001844,151.612787,-88.853832,-160.400055
302019,-0.128932,-0.064964,-0.011373,152.091698,-88.816657,-160.953246
302119,-0.134112,-0.071302,0.004159,152.984322,-88.780247,-161.923223
302219,-0.137472,-0.065214,0.029731,154.352906,-88.753088,-163.371213
302319,-0.148087,-0.025975,0.058993,155.929932,-88.752606,-165.033792
302419,-0.158857,0.01858,0.078416,157.522019,-88.778996,-166.717604
302519,-0.165464,0.055655,0.094733,159.239291,-88.827545,-168.530393
302619,-0.158641,0.066724,0.106384,161.329531,-88.883048,-170.712283
302719,-0.149157,0.037845,0.119133,164.265583,-88.922954,-173.734666
302819,-0.142102,-0.011167,0.135562,168.248053,-88.934249,-177.799578
302919,-0.12586,-0.071703,0.150408,172.990532,-88.906861,177.384669
303019,-0.094747,-0.142898,0.163258,177.935543,-88.831776,172.384094
303119,-0.050402,-0.194367,0.169382,-177.619353,-88.719351,167.908786
303219,-0.015976,-0.207639,0.170764,-173.895141,-88.592779,164.174085
303319,-0.002996,-0.192501,0.170074,-170.753647,-88.469876,161.02952
303419,-0.014362,-0.161839,0.162681,-168.111779,-88.361159,158.378076
303519,-0.03727,-0.13767,0.156505,-165.818432,-88.263725,156.062021
303619,-0.057429,-0.128074,0.147617,-163.890091,-88.170537,154.099462
303719,-0.062032,-0.117938,0.139035,-162.242036,-88.082531,152.414591
303819,-0.047833,-0.114682,0.129017,-160.871327,-87.996743,151.015269
303919,-0.028642,-0.112788,0.116407,-159.780156,-87.913454,149.906586
304019,-0.013949,-0.096985,0.105084,-158.839103,-87.840291,148.956484
304119,-0.011782,-0.069706,0.10172,-157.853727,-87.781828,147.963223
304219,-0.010916,-0.044034,0.106259,-156.712495,-87.735271,146.814445
304319,-0.00583,-0.031449,0.116056,-155.413927,-87.692111,145.511086
304419,-0.000978,-0.022714,0.126029,-153.982157,-87.649834,144.077161
304519,0.001619,-0.016735,0.13993,-152.39305,-87.605527,142.48721
304619,0.01398,-6.8e-05,0.154244,-150.577341,-87.563795,140.6775
304719,0.037661,0.024447,0.169812,-148.464846,-87.527092,138.584267
304819,0.057903,0.052083,0.190305,-145.980348,-87.493817,136.130241
304919,0.059354,0.077236,0.208605,-143.179744,-87.461367,133.360581
305019,0.043799,0.119334,0.227468,-139.934868,-87.434745,130.137229
305119,0.014417,0.165645,0.242266,-136.243395,-87.413609,126.449918
305219,-0.004932,0.180228,0.253035,-132.411344,-87.383096,122.610711
305319,0.003939,0.155314,0.253225,-128.916644,-87.332146,119.11417
305419,0.055978,0.127439,0.237164,-125.91999,-87.269788,116.145913
305519,0.138484,0.126282,0.218708,-123.146305,-87.208841,113.448061
305619,0.23354,0.156559,0.198791,-120.255876,-87.160403,110.687732
305719,0.324061,0.219246,0.182494,-116.864328,-87.130006,107.477508
305819,0.401131,0.32667,0.183854,-112.381971,-87.113655,103.219266
305919,0.45726,0.475837,0.194021,-106.299624,-87.100496,97.391165
306019,0.503751,0.602925,0.222099,-98.857985,-87.052863,90.228549
306119,0.494038,0.66672,0.257195,-91.066213,-86.94021,82.709252
306219,0.474621,0.680508,0.293532,-83.843073,-86.755813,75.74727
306319,0.478965,0.611834,0.312626,-78.137482,-86.524967,70.306491
306419,0.47112,0.419054,0.321854,-74.827877,-86.290696,67.260536
306519,0.430881,0.175321,0.317515,-73.860965,-86.089699,66.538575
306619,0.372098,-0.077429,0.279195,-74.878989,-85.948949,67.772415
306719,0.327274,-0.2914,0.229817,-77.397439,-85.862493,70.484921
306819,0.283131,-0.412731,0.187417,-80.705223,-85.803389,73.963721
306919,0.224938,-0.485673,0.149133,-84.471185,-85.755967,77.86873
307019,0.191107,-0.542581,0.103942,-88.580787,-85.716752,82.099099
307119,0.241436,-0.539608,0.045744,-92.563711,-85.688802,86.231529
307219,0.333558,-0.489708,-0.030811,-96.112467,-85.686466,89.981571
307319,0.463683,-0.395674,-0.114241,-98.966408,-85.722818,93.109531
307419,0.567652,-0.242589,-0.17329,-100.731354,-85.797974,95.205031
307519,0.5981,-0.099884,-0.187866,-101.461544,-85.893583,96.280329
307619,0.573738,-0.017178,-0.165643,-101.550524,-85.985521,96.698702
307719,0.532733,0.032305,-0.116316,-101.189119,-86.05533,96.642025
307819,0.482641,0.055195,-0.046187,-100.549443,-86.088052,96.277667
307919,0.442454,0.060181,0.038125,-99.761342,-86.07337,95.741462
308019,0.403801,0.068252,0.112995,-98.837894,-86.016534,95.047361
308119,0.354015,0.063369,0.168152,-97.942986,-85.927269,94.353202
308219,0.284738,0.017895,0.191589,-97.452919,-85.820637,94.025041
308319,0.197,-0.045836,0.184794,-97.52324,-85.713038,94.208334
308419,0.105993,-0.10726,0.175502,-98.102485,-85.605871,94.849734
308519,0.036056,-0.164134,0.150449,-99.130153,-85.507358,95.900793
308619,-0.005128,-0.188207,0.115782,-100.34974,-85.424523,97.120826
308719,-0.01785,-0.199864,0.073497,-101.673063,-85.36208,98.437738
308819,-0.014864,-0.202848,0.034244,-103.040834,-85.318774,99.801061
308919,-0.003105,-0.195141,0.008394,-104.368723,-85.288303,101.131203
309019,0.006733,-0.187691,-0.009081,-105.656091,-85.266125,102.426397
309119,0.019032,-0.178709,-0.024527,-106.895304,-85.251533,103.680381
309219,0.010456,-0.179244,-0.034337,-108.155517,-85.239952,104.950535
309319,-0.01348,-0.175421,-0.037877,-109.405795,-85.2287,106.19698
309419,-0.046024,-0.162442,-0.029199,-110.563895,-85.21315,107.332243
309519,-0.088396,-0.152892,-0.015585,-111.643288,-85.19046,108.364195
309619,-0.134314,-0.149262,-0.01382,-112.71102,-85.166018,109.358083
309719,-0.162393,-0.141754,-0.015552,-113.742093,-85.142671,110.299075
309819,-0.169632,-0.134725,-0.009768,-114.70815,-85.11658,111.170695
309919,-0.179781,-0.126654,-0.002343,-115.599668,-85.087405,111.961713
310019,-0.199771,-0.113885,0.011559,-116.375354,-85.053283,112.625025
310119,-0.206149,-0.10379,0.032321,-117.023157,-85.010403,113.156358
310219,-0.204179,-0.108454,0.052771,-117.624541,-84.955359,113.642287
310319,-0.192501,-0.105874,0.071207,-118.136647,-84.891234,114.045366
310419,-0.177247,-0.106667,0.072869,-118.627612,-84.825726,114.43605
310519,-0.157353,-0.110662,0.065046,-119.14136,-84.762717,114.861111
310619,-0.140573,-0.125157,0.053589,-119.746811,-84.700957,115.387974
310719,-0.128366,-0.133579,0.038295,-120.423449,-84.643813,115.99342
310819,-0.114614,-0.136685,0.022555,-121.143585,-84.592817,116.650534
310919,-0.095461,-0.119301,0.009847,-121.791056,-84.552485,117.245741
311019,-0.084267,-0.111867,-0.003705,-122.428631,-84.520348,117.837495
311119,-0.067281,-0.104557,-0.013216,-123.043462,-84.494428,118.416216
311219,-0.045571,-0.100767,-0.0223,-123.651094,-84.473444,119.000235
311319,-0.017256,-0.082735,-0.03173,-124.180885,-84.462139,119.522376
311419,0.011321,-0.061118,-0.044452,-124.629481,-84.463404,119.979411
311519,0.040152,-0.040498,-0.059544,-125.012691,-84.478178,120.387362
311619,0.071845,-0.015264,-0.069475,-125.291147,-84.50568,120.708318
311719,0.105814,0.024088,-0.080914,-125.400435,-84.551441,120.878882
311819,0.141366,0.063776,-0.096301,-125.349241,-84.617522,120.908705
311919,0.17108,0.0903,-0.11457,-125.211856,-84.700915,120.869071
312019,0.179853,0.132446,-0.141094,-124.944907,-84.810614,120.704394
312119,0.149096,0.204643,-0.16839,-124.401684,-84.95663,120.244686
312219,0.090688,0.30904,-0.190708,-123.361308,-85.146089,119.252497
312319,0.026686,0.407145,-0.215985,-121.783855,-85.376093,117.684899
312419,-0.016843,0.460397,-0.247712,-119.842036,-85.633336,115.727324
312519,-0.032428,0.486211,-0.276584,-117.592372,-85.906484,113.452793
312619,-0.016795,0.524807,-0.286643,-114.750647,-86.186907,110.594547
312719,0.000749,0.572603,-0.281207,-111.025385,-86.463436,106.861942
312819,0.006146,0.546974,-0.269249,-106.898144,-86.71168,102.730792
312919,0.005613,0.41617,-0.255811,-103.45824,-86.915991,99.288666
313019,-0.021791,0.209665,-0.236721,-101.813329,-87.074928,97.628861
313119,-0.058971,-0.00635,-0.213898,-102.445732,-87.194231,98.228094
313219,-0.085581,-0.151384,-0.197176,-104.810082,-87.283799,100.545965
313319,-0.093225,-0.228226,-0.194075,-108.233014,-87.353398,103.919035
313419,-0.058392,-0.259783,-0.206806,-112.238008,-87.413252,107.894565
313519,-0.009152,-0.228264,-0.22888,-116.142598,-87.479444,111.797625
313619,0.005551,-0.136589,-0.246696,-119.281566,-87.568357,114.942533
313719,-0.030473,-0.042804,-0.246422,-121.551727,-87.677884,117.196983
313819,-0.098756,0.025625,-0.230513,-123.105113,-87.797536,118.694745
313919,-0.163129,0.085419,-0.203489,-123.853003,-87.921995,119.349397
314019,-0.206838,0.113129,-0.179239,-124.104244,-88.04361,119.481962
314119,-0.219449,0.092767,-0.161025,-124.506595,-88.150009,119.758464
314219,-0.207759,0.046366,-0.132621,-125.349266,-88.227729,120.482182
314319,-0.162129,0.003021,-0.091353,-126.439646,-88.271309,121.479855
314419,-0.119927,-0.048438,-0.046186,-127.81326,-88.275753,122.785069
314519,-0.096168,-0.13095,-0.006961,-129.908054,-88.231788,124.825435
314619,-0.091366,-0.217878,0.013677,-132.798606,-88.143322,127.664783
314719,-0.091463,-0.291821,0.010397,-136.323285,-88.021535,131.138723
314819,-0.077499,-0.344425,-0.018218,-140.291335,-87.880788,135.064593
314919,-0.040345,-0.371169,-0.059837,-144.448338,-87.732879,139.201216
315019,1.1e-05,-0.39683,-0.096704,-148.665712,-87.573192,143.421833
315119,0.023948,-0.416906,-0.127219,-152.790678,-87.399897,147.564195
315219,0.034619,-0.412551,-0.144621,-156.544947,-87.221103,151.342149
315319,0.008696,-0.385525,-0.141036,-159.705421,-87.045612,154.511258
315419,-0.042492,-0.350625,-0.124896,-162.260282,-86.878383,157.04502
315519,-0.106261,-0.312365,-0.096393,-164.211388,-86.722327,158.937879
315619,-0.157658,-0.271891,-0.073681,-165.709479,-86.582216,160.347728
315719,-0.190689,-0.241271,-0.053868,-166.869054,-86.454612,161.399666
315819,-0.215431,-0.229017,-0.040755,-167.828052,-86.331072,162.236566
315919,-0.228571,-0.230959,-0.0308,-168.654996,-86.204489,162.933697
316019,-0.234928,-0.240528,-0.02888,-169.435466,-86.071701,163.580698
316119,-0.228956,-0.25837,-0.029572,-170.196278,-85.928356,164.211522
316219,-0.210978,-0.273987,-0.038667,-170.988861,-85.776459,164.884635
316319,-0.180506,-0.293606,-0.047578,-171.800814,-85.613551,165.594807
316419,-0.136591,-0.314921,-0.055662,-172.611357,-85.438441,166.328955
316519,-0.096501,-0.318647,-0.063721,-173.400768,-85.261007,167.065116
316619,-0.058646,-0.30158,-0.071008,-174.150604,-85.092984,167.783506
316719,-0.018305,-0.265369,-0.074179,-174.828436,-84.945081,168.452988
316819,0.007002,-0.214721,-0.064791,-175.369097,-84.825058,168.999445
316919,0.015793,-0.1675,-0.051739,-175.77824,-84.731067,169.418985
317019,0.004713,-0.134771,-0.037815,-176.080823,-84.655,169.725184
317119,-0.016412,-0.121081,-0.028211,-176.323897,-84.58628,169.959482
317219,-0.028269,-0.108202,-0.021913,-176.525827,-84.524633,170.145642
317319,-0.034304,-0.078767,-0.023745,-176.72811,-84.479848,170.328683
317419,-0.029456,-0.044757,-0.025637,-176.92527,-84.454556,170.509367
317519,-0.014876,-0.00593,-0.027757,-177.113634,-84.45153,170.6896
317619,0.001123,0.046772,-0.021119,-177.238787,-84.478479,170.815527
317719,0.007008,0.112611,-0.004296,-177.242949,-84.542683,170.823284
317819,0.004713,0.178341,0.017126,-177.098588,-84.643948,170.680533
317919,0.001361,0.243404,0.043562,-176.763364,-84.781622,170.344207
318019,-0.005344,0.316004,0.069053,-176.219162,-84.959735,169.794292
318119,-0.007743,0.399463,0.095687,-175.41272,-85.183895,168.979954
318219,-0.028491,0.46617,0.116861,-174.342613,-85.443927,167.889428
318319,-0.054479,0.495963,0.129309,-173.036285,-85.718306,166.54744
318419,-0.05202,0.514549,0.130656,-171.515421,-86.000576,164.992245
318519,-0.031935,0.54778,0.130588,-169.699344,-86.298326,163.153246
318619,-0.000919,0.580736,0.139867,-167.391839,-86.608963,160.840312
318719,0.025676,0.59331,0.152941,-164.438732,-86.91793,157.896754
318819,0.042791,0.602032,0.161685,-160.699521,-87.219989,154.176733
318919,0.048658,0.618661,0.17594,-155.812732,-87.512785,149.312232
319019,0.032813,0.581685,0.189884,-149.791551,-87.760539,143.304287
319119,-0.00778,0.457706,0.199479,-143.479436,-87.917733,136.982748
319219,-0.080863,0.262124,0.191513,-138.5626,-87.966357,132.015876
319319,-0.140791,0.070292,0.165453,-135.977866,-87.932493,129.348238
319419,-0.158833,-0.082437,0.130176,-135.556564,-87.847504,128.83503
319519,-0.151208,-0.175921,0.103653,-136.396305,-87.734599,129.588117
319619,-0.12301,-0.258956,0.077913,-138.174882,-87.59606,131.297037
319719,-0.072454,-0.343049,0.048135,-140.718784,-87.429418,133.801176
319819,0.007345,-0.392806,0.005748,-143.668925,-87.250067,136.7581
319919,0.114304,-0.366533,-0.044816,-146.501244,-87.092928,139.658839
320019,0.238394,-0.276887,-0.086208,-148.848337,-86.985558,142.145252
320119,0.344266,-0.179234,-0.109464,-150.677897,-86.928596,144.174357
320219,0.424784,-0.10087,-0.105839,-151.970855,-86.907055,145.71238
320319,0.463942,-0.009884,-0.079115,-152.530455,-86.923114,146.538479
320419,0.457986,0.113267,-0.035527,-152.071319,-86.989927,146.340977
320519,0.406063,0.213093,0.024278,-150.500124,-87.090181,145.000175
320619,0.317822,0.262419,0.102606,-147.797197,-87.188987,142.475741
320719,0.230322,0.270897,0.182214,-144.122265,-87.259093,138.928156
320819,0.147139,0.283106,0.24385,-139.650709,-87.300504,134.535499
320919,0.085334,0.290032,0.277792,-134.752018,-87.314426,129.679874
321019,0.031073,0.239201,0.277604,-130.344434,-87.290159,125.284732
321119,-0.030848,0.126231,0.240426,-127.416821,-87.228668,122.33555
321219,-0.091533,7.2e-05,0.193271,-126.157993,-87.140444,121.022142
321319,-0.133026,-0.09981,0.13708,-126.266799,-87.043767,121.054198
321419,-0.144342,-0.163413,0.078703,-127.301837,-86.952066,122.007251
321519,-0.143709,-0.186932,0.025231,-128.819692,-86.875118,123.444249
321619,-0.117438,-0.186181,-0.019029,-130.539128,-86.815836,125.098296
321719,-0.084833,-0.181574,-0.058451,-132.410846,-86.772433,126.923657
321819,-0.053043,-0.170969,-0.082645,-134.306283,-86.739973,128.791092
321919,-0.028231,-0.152662,-0.0912,-136.082825,-86.715059,130.553741
322019,-0.013508,-0.121249,-0.08412,-137.560354,-86.697657,132.025383
322119,-0.013341,-0.096602,-0.069135,-138.748882,-86.683089,133.207678
322219,-0.015612,-0.081849,-0.04477,-139.65032,-86.664558,134.10113
322319,-0.029152,-0.07939,-0.020641,-140.351668,-86.637501,134.786416
322419,-0.047436,-0.081968,0.008177,-140.851172,-86.598409,135.259047
322519,-0.069142,-0.092604,0.032528,-141.233884,-86.545596,135.602255
322619,-0.08532,-0.100403,0.052859,-141.510843,-86.481908,135.830261
322719,-0.104114,-0.098068,0.067505,-141.670338,-86.414007,135.92982
322819,-0.115825,-0.095275,0.077746,-141.743171,-86.34372,135.935844
322919,-0.13181,-0.105419,0.083844,-141.835722,-86.266711,135.95247
323019,-0.139133,-0.120875,0.082588,-142.019746,-86.183186,136.056582
323119,-0.133965,-0.127713,0.080129,-142.245321,-86.097435,136.205335
323219,-0.126335,-0.11167,0.074412,-142.414408,-86.020961,136.301879
323319,-0.110813,-0.075964,0.062242,-142.470952,-85.964983,136.294541
323419,-0.091684,-0.031595,0.047851,-142.389449,-85.93422,136.159811
323519,-0.063365,0.024376,0.035249,-142.097062,-85.933238,135.82994
323619,-0.044204,0.080185,0.01666,-141.631494,-85.96386,135.337479
323719,-0.046598,0.097271,0.004196,-141.151142,-86.00632,134.828856
323819,-0.069787,0.078462,-0.009575,-140.860061,-86.045136,134.49668
323919,-0.089064,0.057229,-0.009457,-140.685192,-86.074389,134.269949
324019,-0.097194,0.035661,-0.003113,-140.585526,-86.09173,134.11395
324119,-0.078925,0.000568,0.006195,-140.600929,-86.090122,134.083795
324219,-0.053868,-0.042864,0.005952,-140.833014,-86.069319,134.285235
324319,-0.023302,-0.103826,-0.004159,-141.425609,-86.024829,134.865628
324419,0.011818,-0.147728,-0.010452,-142.244002,-85.962277,135.692605
324519,0.064251,-0.146034,-0.020316,-143.061176,-85.903091,136.548569
324619,0.134645,-0.090817,-0.036136,-143.65591,-85.873954,137.222037
324719,0.199266,-0.001358,-0.057583,-143.925423,-85.893084,137.606601
324819,0.225345,0.111253,-0.073553,-143.752012,-85.969722,137.562108
324919,0.19979,0.21312,-0.081126,-143.132225,-86.095864,137.055519
325019,0.143824,0.28905,-0.090436,-142.166621,-86.259415,136.170305
325119,0.074899,0.357614,-0.107206,-140.879259,-86.458613,134.9233
325219,0.00646,0.434816,-0.122916,-139.102254,-86.695418,133.146783
325319,-0.045035,0.517968,-0.142234,-136.623641,-86.971019,130.638484
325419,-0.059717,0.594351,-0.162481,-133.164041,-87.278332,127.140204
325519,-0.042774,0.631674,-0.178787,-128.573091,-87.593773,122.520053
325619,-0.027358,0.629129,-0.161984,-122.530733,-87.880156,116.457214
325719,-0.034125,0.509901,-0.137867,-116.417815,-88.09379,110.320858
325819,-0.056835,0.297587,-0.109566,-112.432845,-88.222244,106.301124
325919,-0.108605,0.038462,-0.078417,-112.397825,-88.2728,106.20369
326019,-0.17131,-0.200267,-0.041186,-116.273695,-88.247528,109.982988
326119,-0.226399,-0.339617,-0.024485,-122.070467,-88.165254,115.652632
326219,-0.231286,-0.383013,-0.027813,-127.950627,-88.052593,121.403189
326319,-0.166726,-0.353808,-0.050645,-133.023915,-87.943203,126.383743
326419,-0.080323,-0.262138,-0.092039,-137.027929,-87.874412,130.344099
326519,-0.036091,-0.104023,-0.119924,-139.529908,-87.875876,132.826809
326619,-0.03951,0.075284,-0.12002,-140.266058,-87.953391,133.540474
326719,-0.052845,0.189772,-0.127443,-139.93489,-88.083857,133.178475
326819,-0.062432,0.21427,-0.119945,-139.161984,-88.222045,132.369032
326919,-0.081669,0.185889,-0.088988,-138.186537,-88.33582,131.345982
327019,-0.109853,0.131462,-0.031645,-136.982202,-88.403704,130.077852
327119,-0.125558,0.043135,0.034592,-135.975198,-88.40793,128.998165
327219,-0.123372,-0.071375,0.080256,-135.931034,-88.346427,128.882959
327319,-0.103928,-0.161551,0.119827,-136.520472,-88.231871,129.412791
327419,-0.083203,-0.209059,0.121711,-137.56477,-88.096413,130.409637
327519,-0.045087,-0.200807,0.090581,-138.740923,-87.975796,131.560339
327619,-0.002153,-0.169759,0.042483,-140.020963,-87.885845,132.839674
327719,0.032375,-0.165514,-0.000469,-141.639531,-87.812222,134.477625
327819,0.054493,-0.182461,-0.045925,-143.816688,-87.74468,136.687322
327919,0.063979,-0.194742,-0.082021,-146.379258,-87.679739,139.288262
328019,0.061282,-0.190593,-0.101527,-148.99939,-87.618173,141.945366
328119,0.047165,-0.167762,-0.100083,-151.326279,-87.562914,144.300978
328219,0.033168,-0.136299,-0.092798,-153.282378,-87.51803,146.277518
328319,0.023042,-0.106027,-0.082636,-154.886102,-87.483599,147.895602
328419,0.009079,-0.09938,-0.071757,-156.290515,-87.448223,149.30622
328519,-0.003671,-0.117755,-0.057754,-157.587448,-87.398555,150.601986
328619,-0.01565,-0.163196,-0.045678,-158.904984,-87.320819,151.911571
328719,-0.023444,-0.219161,-0.04183,-160.333495,-87.210828,153.327883
328819,-0.015547,-0.267615,-0.045041,-161.854531,-87.073467,154.841504
328919,0.003948,-0.299896,-0.051041,-163.388382,-86.917529,156.379334
329019,0.031536,-0.310059,-0.05618,-164.835447,-86.754778,157.846297
329119,0.048167,-0.298035,-0.05477,-166.09257,-86.596665,159.132772
329219,0.045719,-0.290038,-0.049821,-167.177086,-86.440907,160.245121
329319,0.024634,-0.278939,-0.047631,-168.142156,-86.28996,161.225859
329419,-0.016966,-0.269006,-0.044991,-169.01646,-86.143371,162.091905
329519,-0.051137,-0.259131,-0.042521,-169.812233,-86.001325,162.859747
329619,-0.062809,-0.229378,-0.039351,-170.49769,-85.875154,163.510402
329719,-0.077163,-0.196606,-0.040735,-171.123634,-85.767177,164.093217
329819,-0.084535,-0.176468,-0.046211,-171.743257,-85.670666,164.665517
329919,-0.096446,-0.1637,-0.04838,-172.347382,-85.581166,165.215483
330019,-0.113076,-0.165897,-0.044968,-172.915753,-85.489787,165.720085
330119,-0.13645,-0.170763,-0.035042,-173.410106,-85.394653,166.137057
330219,-0.159876,-0.143709,-0.015014,-173.740029,-85.313465,166.375638
330319,-0.168788,-0.104614,0.007236,-173.884639,-85.253154,166.423174
330419,-0.156728,-0.064135,0.022052,-173.890082,-85.215052,166.337999
330519,-0.134711,-0.015116,0.035159,-173.758582,-85.204111,166.128062
330619,-0.098814,0.054851,0.060073,-173.383252,-85.231385,165.694097
330719,-0.07491,0.128601,0.08358,-172.763785,-85.298713,165.028943
330819,-0.068707,0.183098,0.109128,-171.888673,-85.394346,164.110953
330919,-0.070022,0.200658,0.137588,-170.751879,-85.496175,162.929832
331019,-0.084569,0.206464,0.160137,-169.397586,-85.597037,161.52236
331119,-0.084009,0.237703,0.181886,-167.766884,-85.710159,159.838207
331219,-0.069608,0.290096,0.197568,-165.819716,-85.846494,157.845279
331319,-0.028802,0.365106,0.206903,-163.470845,-86.017358,155.473462
331419,0.025595,0.462447,0.222348,-160.4791,-86.230617,152.489099
331519,0.080341,0.592456,0.235139,-156.523208,-86.498033,148.57092
331619,0.143906,0.669188,0.251158,-151.392196,-86.780547,143.513259
331719,0.186121,0.61272,0.267123,-145.521533,-87.000982,137.740354
331819,0.163443,0.527728,0.285336,-139.306398,-87.142188,131.610489
331919,0.127118,0.54281,0.311879,-132.212683,-87.241715,124.580808
332019,0.087515,0.532606,0.340918,-124.638757,-87.279684,117.048057
332119,0.027684,0.415629,0.348217,-118.220748,-87.234847,110.63818
332219,-0.047446,0.246841,0.323908,-114.019783,-87.131747,106.404489
332319,-0.085845,0.061367,0.264525,-112.288403,-87.007575,104.621126
332419,-0.101326,-0.103424,0.198248,-112.577167,-86.881351,104.851664
332519,-0.09836,-0.201368,0.144739,-113.969888,-86.760936,106.189568
332619,-0.08197,-0.245191,0.090873,-115.869862,-86.655832,108.045101
332719,-0.04189,-0.255982,0.037128,-117.961449,-86.571718,110.115758
332819,0.005761,-0.260227,-0.0204,-120.228531,-86.510603,112.38974
332919,0.070051,-0.230541,-0.079185,-122.437654,-86.481759,114.642675
333019,0.145173,-0.152618,-0.1328,-124.248934,-86.498266,116.54017
333119,0.214993,-0.072767,-0.168586,-125.622324,-86.554489,118.038988
333219,0.275443,-0.016834,-0.19263,-126.713747,-86.638707,119.289941
333319,0.311273,0.024413,-0.201735,-127.573346,-86.739999,120.329141
333419,0.319344,0.065252,-0.19364,-128.104189,-86.851164,121.043602
333519,0.296926,0.086522,-0.167801,-128.340893,-86.957891,121.450564
333619,0.255429,0.092425,-0.121756,-128.254863,-87.045916,121.510511
333719,0.208896,0.104201,-0.066635,-127.702514,-87.113164,121.07684
333819,0.148834,0.123653,-0.007051,-126.566787,-87.15955,120.024634
333919,0.0716,0.12296,0.05485,-125.029697,-87.175652,118.526301
334019,0.013239,0.08108,0.104013,-123.600076,-87.152983,117.102086
334119,-0.061351,-0.001395,0.122605,-122.913059,-87.094148,116.378567
334219,-0.136153,-0.078189,0.111363,-123.077348,-87.01656,116.464513
334319,-0.184277,-0.131513,0.075271,-123.953015,-86.939288,117.235217
334419,-0.202091,-0.188142,0.025542,-125.581943,-86.86605,118.750109
334519,-0.167111,-0.221535,-0.019033,-127.666573,-86.799296,120.741569
334619,-0.128754,-0.246902,-0.074051,-130.193813,-86.743593,123.198468
334719,-0.069743,-0.251445,-0.135249,-133.044712,-86.705993,126.01353
334819,-0.014876,-0.228793,-0.198883,-136.089309,-86.695314,129.054171
334919,0.026991,-0.212589,-0.245359,-139.324874,-86.699907,132.310142
335019,0.068639,-0.191269,-0.26902,-142.592449,-86.711931,135.622064
335119,0.102423,-0.156398,-0.275339,-145.709196,-86.731694,138.802265
335219,0.128984,-0.125545,-0.270066,-148.631572,-86.755095,141.802974
335319,0.158661,-0.089732,-0.256593,-151.276394,-86.784117,144.54266
335419,0.163642,-0.0492,-0.236591,-153.591595,-86.821747,146.954997
335519,0.144666,-0.036032,-0.220415,-155.759363,-86.856974,149.208718
335619,0.120158,-0.03336,-0.177366,-157.556968,-86.879539,151.077614
335719,0.063975,-0.067779,-0.147302,-159.242494,-86.87434,152.802025
335819,0.025979,-0.105967,-0.119586,-160.799398,-86.840525,154.375861
335919,-0.007418,-0.127798,-0.105944,-162.275328,-86.790137,155.84951
336019,-0.023378,-0.130659,-0.095693,-163.622413,-86.734509,157.185041
336119,-0.029441,-0.127239,-0.094869,-164.909944,-86.678978,158.457531
336219,-0.024186,-0.123148,-0.09569,-166.14925,-86.6243,159.684819
336319,-0.005769,-0.107474,-0.107699,-167.416877,-86.578445,160.951131
336419,0.032713,-0.077157,-0.12194,-168.703777,-86.549667,162.258907
336519,0.063732,-0.047196,-0.134182,-170.015055,-86.537334,163.608952
336619,0.086687,-0.03048,-0.143386,-171.364793,-86.533456,165.010729
336719,0.104783,-0.020517,-0.15022,-172.752044,-86.533788,166.460491
336819,0.117387,-0.003211,-0.154476,-174.154488,-86.542153,167.932716
336919,0.117069,0.01988,-0.153417,-175.535733,-86.561516,169.383512
337019,0.113617,0.03466,-0.147506,-176.869451,-86.587068,170.784692
337119,0.098757,0.043004,-0.141884,-178.17426,-86.615362,172.148357
337219,0.079314,0.039101,-0.135349,-179.448213,-86.639552,173.469926
337319,0.062345,0.026978,-0.130541,179.298969,-86.655108,174.760566
337419,0.073012,0.030083,-0.129623,178.049333,-86.670834,176.054132
337519,0.106471,0.064407,-0.130394,176.781104,-86.704552,177.385503
337619,0.164601,0.107352,-0.129272,175.498097,-86.761161,178.764999
337719,0.222153,0.151618,-0.118712,174.265175,-86.84186,-179.872705
337819,0.260099,0.197795,-0.100554,173.120749,-86.948459,-178.577352
337919,0.266347,0.255904,-0.091639,171.899512,-87.087356,-177.201616
338019,0.236669,0.33678,-0.081302,170.493286,-87.271389,-175.657872
338119,0.174332,0.444555,-0.075427,168.636762,-87.514648,-173.699389
338219,0.101425,0.54903,-0.074006,165.973348,-87.812901,-170.975569
338319,0.051146,0.652377,-0.076608,161.835764,-88.160687,-166.806117
338419,0.047592,0.724795,-0.096073,154.750723,-88.527337,-159.6909
338519,0.076253,0.699662,-0.111615,143.384998,-88.84011,-148.278586
338619,0.098207,0.55299,-0.128962,128.752823,-89.018409,-133.587694
338719,0.072006,0.305158,-0.136544,117.533352,-89.048291,-122.325459
338819,-0.025186,0.017936,-0.11802,115.207687,-88.991773,-120.013985
338919,-0.099413,-0.197122,-0.111051,119.000747,-88.883047,-123.864779
339019,-0.118636,-0.351168,-0.11705,125.358641,-88.718217,-130.292181
339119,-0.105262,-0.469472,-0.142208,131.827457,-88.485623,-136.823399
339219,-0.085069,-0.508525,-0.173786,136.604393,-88.210018,-141.651258
339319,-0.095577,-0.408129,-0.190581,138.830406,-87.962654,-143.933515
339419,-0.154659,-0.211526,-0.175425,138.841477,-87.804388,-144.033508
339519,-0.234209,0.005527,-0.128948,137.223368,-87.75643,-142.548735
339619,-0.317136,0.201141,-0.072924,134.178751,-87.808779,-139.683958
339719,-0.385164,0.315512,-0.026477,130.081147,-87.917798,-135.804638
339819,-0.422705,0.309834,0.018685,126.063265,-88.034609,-132.026901
339919,-0.41633,0.232842,0.06559,123.173372,-88.140131,-129.374384
340019,-0.39503,0.160697,0.105324,121.509248,-88.239111,-127.936189
340119,-0.37127,0.080197,0.144799,121.441279,-88.332568,-128.08131
340219,-0.32794,-0.012214,0.165765,123.257821,-88.407763,-130.086851
340319,-0.29872,-0.093807,0.162461,126.651775,-88.451941,-133.653582
340419,-0.243329,-0.125619,0.144583,130.54173,-88.470414,-137.684692
340519,-0.157317,-0.119107,0.123874,134.145925,-88.475489,-141.380622
340619,-0.116254,-0.121908,0.090955,137.302923,-88.460393,-144.60568
340719,-0.082367,-0.121142,0.040198,139.582534,-88.422229,-146.933659
340819,-0.061879,-0.110863,0.002484,141.034134,-88.372738,-148.421627
340919,-0.065482,-0.116672,-0.002035,142.393945,-88.318015,-149.819884
341019,-0.10084,-0.126871,0.011114,143.959041,-88.26211,-151.443836
341119,-0.143682,-0.10906,0.026322,145.442756,-88.218298,-153.010982
341219,-0.163141,-0.055087,0.044079,146.572967,-88.204734,-154.23564
341319,-0.168311,0.006315,0.057198,147.280327,-88.224139,-155.040212
341419,-0.157664,0.042622,0.062279,147.728454,-88.262395,-155.57932
341519,-0.142147,0.033188,0.067515,148.389121,-88.297479,-156.322163
341619,-0.126182,-0.00713,0.063286,149.419935,-88.311185,-157.426158
341719,-0.096563,-0.057049,0.056935,150.851846,-88.297561,-158.91445
341819,-0.063776,-0.101702,0.046642,152.497402,-88.257436,-160.597715
341919,-0.029439,-0.130146,0.040925,154.218521,-88.199808,-162.336944
342019,-0.003363,-0.142506,0.042284,155.955806,-88.134499,-164.077462
342119,0.017287,-0.134399,0.044501,157.567269,-88.072385,-165.680318
342219,0.031516,-0.105803,0.049198,158.987856,-88.025136,-167.084085
342319,0.037221,-0.077049,0.058099,160.323045,-87.994007,-168.399167
342419,0.037654,-0.046918,0.074516,161.715346,-87.981224,-169.771169
342519,0.041658,-0.021918,0.093625,163.270169,-87.984208,-171.303503
342619,0.045772,0.004175,0.105493,164.905648,-88.001981,-172.91418
342719,0.036008,0.028482,0.108189,166.511539,-88.032077,-174.500833
342819,0.02118,0.043682,0.112329,168.171551,-88.069662,-176.150118
342919,0.018132,0.05503,0.11522,169.907332,-88.112316,-177.876933
343019,0.028333,0.072805,0.115861,171.691461,-88.163345,-179.64624
343119,0.039531,0.07806,0.115051,173.554725,-88.215487,178.51174
343219,0.035444,0.070754,0.11833,175.596245,-88.261665,176.489076
343319,0.019437,0.059425,0.127669,177.924412,-88.299301,174.170501
343419,0.007246,0.0585,0.140977,-179.392061,-88.333466,171.489465
343519,-0.000949,0.064081,0.1608,-176.203557,-88.366351,168.298589
343619,0.003554,0.069316,0.174422,-172.602634,-88.396,164.697759
343719,0.012516,0.057593,0.179961,-168.81088,-88.41192,160.9112
343819,0.024084,0.035988,0.178688,-165.094074,-88.409035,157.206258
343919,0.0263,0.006588,0.181122,-161.548032,-88.383148,153.673392
344019,0.019361,-0.003978,0.182826,-158.17635,-88.345376,150.310924
344119,0.015955,0.01838,0.179839,-154.835327,-88.314552,146.977119
344219,0.024141,0.068253,0.176716,-151.21365,-88.304248,143.367196
344319,0.043048,0.144312,0.172683,-146.906944,-88.325278,139.082798
344419,0.078741,0.240072,0.167971,-141.388488,-88.381632,133.6067
344519,0.127431,0.340249,0.165078,-134.046342,-88.463781,126.334323
344619,0.183754,0.463528,0.161215,-123.768158,-88.560697,116.157527
344719,0.249708,0.61367,0.151343,-109.125683,-88.642089,101.653382
344819,0.304309,0.736499,0.15999,-90.769051,-88.626299,83.465577
344919,0.331032,0.775743,0.167089,-73.619805,-88.471003,66.500225
345019,0.293193,0.766559,0.182013,-60.824146,-88.204521,53.866906
345119,0.24722,0.731842,0.206261,-52.315621,-87.875128,45.494782
345219,0.184777,0.569597,0.233908,-48.038446,-87.564057,41.31978
345319,0.087757,0.305742,0.241208,-47.149007,-87.345028,40.479362
345419,-0.0096,0.042606,0.218924,-48.529817,-87.236976,41.855744
345519,-0.047169,-0.185606,0.17798,-51.580963,-87.228563,44.882898
345619,-0.071146,-0.344678,0.132304,-55.869099,-87.285972,49.134618
345719,-0.088881,-0.488971,0.100278,-61.701846,-87.383899,54.922152
345819,-0.082302,-0.626727,0.06727,-69.427631,-87.499414,62.60787
345919,0.000822,-0.707833,0.021615,-78.638589,-87.601165,71.827138
346019,0.104104,-0.736065,-0.044389,-88.703623,-87.674858,81.95984
346119,0.240545,-0.703236,-0.107014,-98.684939,-87.711635,92.086613
346219,0.376595,-0.578828,-0.145335,-107.080098,-87.720012,100.703864
346319,0.468145,-0.418269,-0.156918,-113.283191,-87.722562,107.179822
346419,0.482784,-0.295575,-0.147724,-117.809285,-87.726489,111.985873
346519,0.452567,-0.224904,-0.12087,-121.27043,-87.723591,115.708834
346619,0.409507,-0.183954,-0.083051,-123.942819,-87.707099,118.617766
346719,0.365536,-0.156226,-0.020518,-125.756543,-87.6657,120.642183
346819,0.32383,-0.12413,0.041212,-126.661533,-87.604674,121.733244
346919,0.276323,-0.121586,0.082259,-127.186116,-87.525154,122.416346
347019,0.214225,-0.160382,0.108559,-127.894952,-87.419828,123.248285
347119,0.137077,-0.228924,0.120745,-129.143096,-87.28396,124.57591
347219,0.058272,-0.281355,0.1161,-130.804234,-87.129307,126.271954
347319,-0.008563,-0.330921,0.106282,-132.796955,-86.957348,128.261904
347419,-0.039764,-0.373641,0.087534,-135.035385,-86.772462,130.480349
347519,-0.065805,-0.396908,0.062848,-137.369858,-86.583046,132.78046
347619,-0.076395,-0.410272,0.028767,-139.778296,-86.395465,135.149047
347719,-0.090532,-0.431014,-0.008329,-142.317671,-86.205928,137.641224
347819,-0.089219,-0.433945,-0.046764,-144.884863,-86.021151,140.16258
347919,-0.074972,-0.42697,-0.078852,-147.396768,-85.842576,142.637256
348019,-0.058018,-0.393496,-0.095794,-149.672408,-85.678283,144.885306
348119,-0.044129,-0.361862,-0.084641,-151.589938,-85.520705,146.782657
348219,-0.052713,-0.345605,-0.050891,-153.116159,-85.358116,148.282954
348319,-0.068407,-0.323644,-0.010119,-154.232281,-85.193753,149.363094
348419,-0.072257,-0.305813,0.028154,-154.999099,-85.027795,150.090719
348519,-0.066895,-0.288012,0.053936,-155.517548,-84.864246,150.572289
348619,-0.050831,-0.273818,0.065056,-155.897031,-84.705174,150.923699
348719,-0.044551,-0.269474,0.069217,-156.217775,-84.547224,151.219832
348819,-0.051631,-0.264668,0.073008,-156.49316,-84.390794,151.466421
348919,-0.07715,-0.248879,0.077788,-156.70794,-84.241495,151.637496
349019,-0.092299,-0.237466,0.080702,-156.881406,-84.097514,151.758385
349119,-0.092,-0.215968,0.080985,-157.000367,-83.964802,151.824692
349219,-0.090638,-0.171659,0.075352,-157.049975,-83.856745,151.822069
349319,-0.090808,-0.127637,0.068577,-157.041223,-83.773458,151.760664
349419,-0.083628,-0.089655,0.053706,-157.023005,-83.713556,151.693879
349519,-0.059712,-0.065197,0.035224,-157.030074,-83.670706,151.666331
349619,-0.033123,-0.04881,0.007926,-157.118099,-83.642608,151.735582
349719,-0.00618,-0.023204,-0.018398,-157.26334,-83.633871,151.877954
349819,0.001528,0.018408,-0.044766,-157.446522,-83.652918,152.062959
349919,-0.009589,0.060865,-0.070366,-157.675921,-83.69998,152.288059
350019,-0.040087,0.083993,-0.087094,-157.961673,-83.762822,152.552262
350119,-0.073367,0.082766,-0.099358,-158.334656,-83.827461,152.885012
350219,-0.090111,0.074125,-0.113377,-158.811167,-83.890171,153.312211
350319,-0.084601,0.096999,-0.134432,-159.356407,-83.969048,153.811662
350419,-0.070862,0.142575,-0.152625,-159.914979,-84.075546,154.33236
350519,-0.051689,0.18464,-0.170311,-160.496515,-84.207623,154.887092
350619,-0.024396,0.23659,-0.1895,-161.095907,-84.370843,155.475357
350719,-0.0067,0.31035,-0.203489,-161.660538,-84.576078,156.038714
350819,-0.015578,0.411799,-0.211159,-162.124706,-84.837445,156.495867
350919,-0.053049,0.512416,-0.205534,-162.420703,-85.15248,156.762456
351019,-0.103632,0.572317,-0.194617,-162.580566,-85.498292,156.863251
351119,-0.139474,0.635511,-0.169983,-162.447854,-85.874404,156.649993
351219,-0.135827,0.684717,-0.141231,-161.906042,-86.27218,156.028858
351319,-0.104575,0.63119,-0.123087,-161.20844,-86.636991,155.269819
351419,-0.078717,0.454767,-0.12514,-160.97067,-86.905994,154.986396
351519,-0.098777,0.179033,-0.135113,-161.808082,-87.027002,155.768173
351619,-0.150098,-0.050804,-0.150866,-163.66456,-87.023799,157.540872
351719,-0.164706,-0.153105,-0.186491,-166.175218,-86.965747,159.96029
351819,-0.139533,-0.228626,-0.222624,-169.103748,-86.863889,162.812778
351919,-0.112171,-0.266527,-0.258207,-172.238516,-86.735961,165.887806
352019,-0.095539,-0.184737,-0.286057,-175.32683,-86.64731,168.926148
352119,-0.105646,-0.022849,-0.291309,-178.259231,-86.642455,171.802627
352219,-0.146879,0.114032,-0.276111,178.923019,-86.707603,174.540487
352319,-0.201381,0.194703,-0.245879,176.220777,-86.811965,177.131136
352419,-0.244288,0.225669,-0.210445,173.658668,-86.92894,179.556541
352519,-0.259357,0.208033,-0.163979,171.434344,-87.033675,-178.365197
352619,-0.253922,0.157103,-0.097056,169.915846,-87.112142,-176.99072
352719,-0.254613,0.084841,-0.013744,169.427939,-87.157143,-176.648577
352819,-0.25186,0.012801,0.075016,170.09897,-87.170554,-177.465206
352919,-0.237598,-0.065664,0.141107,171.678782,-87.144744,-179.183547
353019,-0.21898,-0.149449,0.184084,173.826194,-87.071633,178.540399
353119,-0.204412,-0.181837,0.179155,175.842431,-86.975656,176.403873
353219,-0.189829,-0.180375,0.138807,177.312209,-86.875812,174.822751
353319,-0.159985,-0.187973,0.094243,178.251906,-86.768878,173.789473
353419,-0.139102,-0.198677,0.050456,178.711198,-86.654473,173.249239
353519,-0.136024,-0.177734,0.00629,178.715304,-86.551395,173.166674
353619,-0.147203,-0.157515,-0.025585,178.410434,-86.459483,173.387212
353719,-0.16373,-0.14602,-0.039983,177.975248,-86.373841,173.728839
353819,-0.191308,-0.134127,-0.038455,177.550767,-86.294915,174.04392
353919,-0.225519,-0.117414,-0.033608,177.156589,-86.225574,174.309003
354019,-0.258479,-0.105439,-0.024875,176.823879,-86.163271,174.493563
354119,-0.284904,-0.100323,-0.010889,176.598801,-86.104328,174.555073
354219,-0.298876,-0.095159,0.001716,176.471325,-86.048795,174.510724
354319,-0.302705,-0.105116,0.016182,176.465403,-85.988108,174.342315
354419,-0.290559,-0.129836,0.028835,176.576789,-85.913732,174.063255
354519,-0.257089,-0.156583,0.030871,176.727522,-85.824101,173.763932
354619,-0.212171,-0.177997,0.020585,176.823869,-85.721864,173.544901
354719,-0.169274,-0.198203,0.008718,176.856247,-85.6077,173.414629
354819,-0.144645,-0.218614,0.001138,176.851079,-85.481647,173.336138
354919,-0.130926,-0.222647,6.6e-05,176.845324,-85.353289,173.266097
355019,-0.123296,-0.212693,0.003134,176.859124,-85.230759,173.180798
355119,-0.109253,-0.182898,0.006848,176.892191,-85.125431,173.084215
355219,-0.0762,-0.139399,0.013384,176.968845,-85.045232,172.962869
355319,-0.038936,-0.0969,0.024915,177.12438,-84.989716,172.783756
355419,-0.003383,-0.073391,0.04153,177.396745,-84.948094,172.507793
355519,0.015258,-0.06197,0.057455,177.774641,-84.913295,172.136591
355619,0.01942,-0.055294,0.080654,178.29679,-84.882557,171.62294
355719,0.018183,-0.033351,0.106715,178.975205,-84.864309,170.951666
355819,0.015183,-0.00055,0.130621,179.798058,-84.86426,170.133636
355919,0.006917,0.029401,0.151848,-179.246409,-84.880218,169.177641
356019,0.000517,0.053188,0.171238,-178.159894,-84.908067,168.086486
356119,-0.006053,0.076569,0.188516,-176.946336,-84.946969,166.864056
356219,0.004013,0.10742,0.202465,-175.602841,-85.000623,165.517049
356319,0.020966,0.167875,0.20975,-174.132698,-85.085552,164.052801
356419,0.027233,0.236762,0.214445,-172.516356,-85.205997,162.44565
356519,0.033676,0.303387,0.214979,-170.736086,-85.360151,160.678037
356619,0.021104,0.368646,0.214709,-168.752382,-85.546351,158.699549
356719,-0.009086,0.443397,0.219235,-166.448286,-85.767923,156.382951
356819,-0.017314,0.546623,0.223771,-163.625551,-86.03802,153.542399
356919,-0.013348,0.65039,0.229364,-160.035251,-86.351973,149.935876
357019,-0.004127,0.700846,0.229564,-155.576679,-86.675213,145.466053
357119,0.010406,0.722995,0.22683,-150.095527,-86.985838,139.981872
357219,0.020449,0.733829,0.22663,-143.35188,-87.267809,133.24087
357319,0.015504,0.669107,0.219614,-135.864006,-87.480069,125.753407
