SampleTimeFine,Gyr_X,Gyr_Y,Gyr_Z,Roll,Pitch,Yaw
197858,-0.035213,-0.047088,-0.010514,-3.457597,-79.567885,3.400579
197958,-0.027274,-0.036204,-0.015134,-3.423842,-79.588796,3.350753
198058,-0.030216,-0.015151,-0.0207,-3.369164,-79.598353,3.278114
198158,-0.040117,0.002101,-0.027549,-3.296711,-79.597303,3.182274
198258,-0.043832,0.009119,-0.030083,-3.219074,-79.591572,3.078596
198358,-0.045489,0.008255,-0.027546,-3.148413,-79.587409,2.981066
198458,-0.045748,-0.007572,-0.026554,-3.082588,-79.592808,2.888011
198558,-0.035143,-0.032542,-0.021346,-3.028273,-79.613354,2.813619
198658,-0.027737,-0.048599,-0.018891,-2.981105,-79.641025,2.75233
198758,-0.024337,-0.042913,-0.018544,-2.935444,-79.665256,2.692551
198858,-0.025319,-0.025881,-0.021773,-2.875358,-79.679917,2.619048
198958,-0.029888,-0.018326,-0.025097,-2.810602,-79.691102,2.533359
199058,-0.031809,-0.010231,-0.024054,-2.749821,-79.695292,2.452704
199158,-0.029303,-0.010033,-0.026015,-2.678254,-79.699802,2.364119
199258,-0.01908,-0.02073,-0.029181,-2.592058,-79.709813,2.267413
199358,-0.005874,-0.031862,-0.03389,-2.477495,-79.726646,2.153378
199458,0.004547,-0.043928,-0.042398,-2.334142,-79.750376,2.014926
199558,0.004276,-0.062337,-0.050664,-2.165109,-79.784783,1.850377
199658,0.00348,-0.075575,-0.057437,-1.980246,-79.824746,1.66963
199758,0.025055,-0.078363,-0.063112,-1.762828,-79.866458,1.469071
199858,0.056835,-0.073196,-0.071801,-1.491094,-79.906561,1.232745
199958,0.075358,-0.051097,-0.073754,-1.203924,-79.932342,0.990836
200058,0.082485,-0.029147,-0.07174,-0.914292,-79.947112,0.748862
200158,0.077427,-0.020361,-0.062073,-0.663359,-79.954775,0.542629
200258,0.059908,-0.03402,-0.058003,-0.428602,-79.971267,0.343374
200358,0.044966,-0.066542,-0.066621,-0.177325,-80.005145,0.119936
200458,0.027936,-0.086932,-0.070966,0.079898,-80.050207,-0.120306
200558,0.017384,-0.092004,-0.069709,0.329796,-80.097434,-0.358228
200658,0.025445,-0.09641,-0.085663,0.637395,-80.145102,-0.646818
200758,0.037215,-0.088017,-0.086922,0.962538,-80.189679,-0.947525
200858,0.057932,-0.070395,-0.08816,1.302088,-80.224557,-1.254493
200958,0.07783,-0.051769,-0.092021,1.671637,-80.24931,-1.578918
201058,0.084689,-0.041989,-0.094089,2.04711,-80.267975,-1.907079
201158,0.073468,-0.031036,-0.087035,2.397368,-80.282401,-2.219054
201258,0.059774,-0.027173,-0.0745,2.696048,-80.295101,-2.486259
201358,0.05587,-0.033928,-0.060174,2.942396,-80.312122,-2.704026
201458,0.055231,-0.038413,-0.051178,3.160814,-80.332244,-2.893782
201558,0.061255,-0.035919,-0.047,3.36828,-80.351779,-3.070172
201658,0.066914,-0.021145,-0.042296,3.559872,-80.362793,-3.227365
201758,0.078148,-0.011126,-0.047169,3.773554,-80.367901,-3.399809
201858,0.082457,0.002669,-0.059557,4.027696,-80.364594,-3.611259
201958,0.080905,0.00793,-0.067092,4.304985,-80.35789,-3.847106
202058,0.07452,-0.007265,-0.065724,4.577516,-80.359691,-4.081945
202158,0.057547,-0.016971,-0.058554,4.819305,-80.367194,-4.295346
202258,0.042432,-0.020572,-0.049077,5.022083,-80.377086,-4.477923
202358,0.032253,-0.023242,-0.027511,5.147545,-80.389522,-4.588051
202458,0.017758,-0.023008,-0.01293,5.215772,-80.402549,-4.648552
202558,0.010421,-0.01891,-0.001469,5.239959,-80.413816,-4.66866
202658,0.013564,-0.019,-0.00111,5.264839,-80.425164,-4.687666
202758,0.019577,-0.026465,-0.009141,5.322847,-80.440344,-4.736758
202858,0.022833,-0.037041,-0.013432,5.400861,-80.461288,-4.80425
202958,0.01555,-0.042664,-0.010677,5.467571,-80.48557,-4.864508
203058,0.002323,-0.047692,-0.001192,5.496361,-80.513226,-4.894022
203158,-0.021853,-0.051272,0.014688,5.45834,-80.543789,-4.869839
203258,-0.045767,-0.055217,0.021504,5.384321,-80.576972,-4.823078
203358,-0.065821,-0.056863,0.019755,5.305049,-80.610992,-4.782646
203458,-0.088941,-0.053657,0.015419,5.226176,-80.642937,-4.756046
203558,-0.099225,-0.056176,0.010352,5.159568,-80.67607,-4.747875
203658,-0.102876,-0.06824,0.006684,5.107245,-80.715885,-4.756311
203758,-0.10411,-0.088455,0.001474,5.078752,-80.766974,-4.789583
203858,-0.092782,-0.099428,-0.004561,5.081487,-80.824014,-4.847957
203958,-0.075187,-0.102346,-0.010142,5.115518,-80.882419,-4.927768
204058,-0.057105,-0.098783,-0.015976,5.180349,-80.938483,-5.028279
204158,-0.051474,-0.090878,-0.023738,5.274706,-80.989597,-5.155389
204258,-0.052464,-0.086894,-0.028108,5.384056,-81.038175,-5.298285
204358,-0.052021,-0.091311,-0.030275,5.50455,-81.089125,-5.452101
204458,-0.049639,-0.106164,-0.0299,5.631818,-81.148505,-5.611387
204558,-0.041728,-0.120433,-0.029364,5.768791,-81.215999,-5.775901
204658,-0.024299,-0.125961,-0.034191,5.937933,-81.286267,-5.962893
204758,-0.003789,-0.115891,-0.04559,6.160411,-81.349998,-6.191852
204858,0.011099,-0.092294,-0.05844,6.432708,-81.399317,-6.462757
204958,0.017239,-0.066751,-0.071282,6.748835,-81.433003,-6.774357
205058,0.002721,-0.058812,-0.074116,7.065894,-81.461616,-7.095338
205158,-0.031082,-0.073965,-0.068525,7.352458,-81.499099,-7.405046
205258,-0.076818,-0.116826,-0.06349,7.617743,-81.561045,-7.719935
205358,-0.108983,-0.151515,-0.049126,7.832343,-81.643667,-8.002144
205458,-0.110762,-0.170019,-0.036093,8.010254,-81.737652,-8.248231
205558,-0.097182,-0.151907,-0.029774,8.16553,-81.821747,-8.463511
205658,-0.08089,-0.114052,-0.026304,8.298261,-81.884558,-8.646356
205758,-0.071616,-0.069798,-0.019325,8.384585,-81.92288,-8.77696
205858,-0.065248,-0.046401,-0.019336,8.461575,-81.947899,-8.894331
205958,-0.049668,-0.063493,-0.022881,8.572579,-81.982298,-9.037063
206058,-0.03017,-0.115836,-0.02971,8.756143,-82.045664,-9.241664
206158,-0.020809,-0.169633,-0.03359,8.999104,-82.139046,-9.500793
206258,-0.022048,-0.201468,-0.0368,9.282551,-82.24996,-9.801397
206358,-0.021981,-0.211651,-0.039723,9.594249,-82.366143,-10.130403
206458,-0.019965,-0.202876,-0.042654,9.922979,-82.476831,-10.475336
206558,-0.013452,-0.187441,-0.043306,10.25611,-82.578483,-10.820852
206658,-0.02532,-0.155093,-0.041994,10.559383,-82.661786,-11.14303
206758,-0.049804,-0.115284,-0.039199,10.809535,-82.722774,-11.425735
206858,-0.075606,-0.105166,-0.028318,10.99221,-82.779118,-11.655279
206958,-0.094678,-0.133639,-0.009879,11.109856,-82.853425,-11.830269
207058,-0.105638,-0.184583,0.009174,11.183957,-82.958439,-11.967689
207158,-0.105492,-0.228372,0.020835,11.248111,-83.089331,-12.094991
207258,-0.09731,-0.241863,0.02777,11.300917,-83.228556,-12.206123
207358,-0.07812,-0.241542,0.034184,11.337092,-83.368299,-12.289421
207458,-0.051956,-0.215655,0.028388,11.39377,-83.492836,-12.378248
207558,-0.035248,-0.163654,0.011889,11.492402,-83.586282,-12.499632
207658,-0.044781,-0.11377,-8.3e-05,11.597191,-83.650332,-12.632673
207758,-0.074106,-0.094832,-0.010576,11.720736,-83.702514,-12.801466
207858,-0.10795,-0.107548,-0.010463,11.84044,-83.761801,-12.985889
207958,-0.140114,-0.136661,0.008119,11.880484,-83.839566,-13.108718
208058,-0.165168,-0.180593,0.026107,11.862807,-83.944077,-13.187942
208158,-0.193446,-0.230808,0.036583,11.830966,-84.07798,-13.269234
208258,-0.20721,-0.264742,0.036294,11.833916,-84.230872,-13.393436
208358,-0.196657,-0.28289,0.032411,11.890784,-84.393461,-13.565734
208458,-0.173307,-0.270794,0.03296,11.949794,-84.549304,-13.726709
208558,-0.150606,-0.247947,0.033413,11.996086,-84.692373,-13.861802
208658,-0.142304,-0.224846,0.029518,12.045344,-84.822026,-13.995052
208758,-0.14481,-0.211534,0.032431,12.060827,-84.944573,-14.095789
208858,-0.159165,-0.205935,0.043651,11.989892,-85.065333,-14.117997
208958,-0.176833,-0.221386,0.057197,11.838798,-85.196362,-14.069908
209058,-0.180643,-0.244718,0.06975,11.626984,-85.341921,-13.963102
209158,-0.169842,-0.266539,0.074631,11.408286,-85.500238,-13.843228
209258,-0.152003,-0.274934,0.076104,11.189496,-85.663382,-13.713061
209358,-0.150541,-0.263801,0.06951,10.992343,-85.819486,-13.603802
209458,-0.169481,-0.237076,0.058827,10.81687,-85.959358,-13.527194
209558,-0.195429,-0.198972,0.046518,10.659364,-86.076446,-13.483517
209658,-0.218872,-0.176949,0.04364,10.47169,-86.180822,-13.423072
209758,-0.226024,-0.182749,0.045143,10.268976,-86.288616,-13.351666
209858,-0.225124,-0.215707,0.049993,10.067887,-86.415475,-13.281381
209958,-0.208035,-0.24847,0.051134,9.909846,-86.560916,-13.244428
210058,-0.184286,-0.268326,0.052352,9.778746,-86.717672,-13.220839
210158,-0.159325,-0.270012,0.05109,9.670329,-86.875246,-13.205646
210258,-0.141307,-0.261821,0.046538,9.600088,-87.027747,-13.218344
210358,-0.133146,-0.24366,0.042464,9.542734,-87.169594,-13.239258
210458,-0.115601,-0.213597,0.038863,9.47616,-87.294113,-13.240869
210558,-0.101373,-0.187681,0.035463,9.403174,-87.403669,-13.227895
210658,-0.09592,-0.18715,0.032753,9.363536,-87.512676,-13.245172
210758,-0.087431,-0.186963,0.032604,9.329373,-87.621567,-13.26306
210858,-0.090602,-0.190713,0.030891,9.325822,-87.732416,-13.313406
210958,-0.106026,-0.205917,0.029137,9.379814,-87.851688,-13.430184
211058,-0.111159,-0.216749,0.027431,9.497142,-87.976903,-13.613281
211158,-0.103604,-0.210992,0.023239,9.693588,-88.098435,-13.87121
211258,-0.093782,-0.19928,0.018848,9.969272,-88.212883,-14.202776
211358,-0.081936,-0.187173,0.013189,10.359873,-88.319866,-14.642503
211458,-0.067994,-0.177632,0.011541,10.811316,-88.421201,-15.135082
211558,-0.057578,-0.172298,0.016979,11.191629,-88.520028,-15.550507
211658,-0.050705,-0.182258,0.0245,11.504477,-88.625232,-15.894481
211758,-0.049769,-0.194458,0.032338,11.737557,-88.738144,-16.15811
211858,-0.051841,-0.196169,0.038134,11.865692,-88.852669,-16.317945
211958,-0.058496,-0.188412,0.041058,11.879483,-88.963176,-16.367223
212058,-0.066272,-0.168432,0.04102,11.752509,-89.062466,-16.280171
212158,-0.077406,-0.146499,0.039908,11.464598,-89.149307,-16.038544
212258,-0.082161,-0.133617,0.039293,11.033206,-89.228811,-15.656154
212358,-0.078217,-0.126019,0.038356,10.488737,-89.303886,-15.158427
212458,-0.070247,-0.124557,0.036182,9.923207,-89.377848,-14.635083
212558,-0.057617,-0.123203,0.035338,9.255234,-89.450894,-14.002063
212658,-0.043176,-0.122117,0.039561,8.097235,-89.523578,-12.870729
212758,-0.037292,-0.121824,0.042491,6.291598,-89.59602,-11.088377
212858,-0.045159,-0.120278,0.04102,3.834785,-89.666946,-8.659359
212958,-0.050929,-0.11451,0.04204,-0.063622,-89.733626,-4.792051
213058,-0.050288,-0.110933,0.04113,-6.287331,-89.796288,1.400923
213158,-0.051103,-0.105475,0.036791,-16.435125,-89.852247,11.517508
213258,-0.057293,-0.103502,0.030307,-35.046451,-89.899767,30.094073
213358,-0.059873,-0.11937,0.030731,-79.750799,-89.925291,74.762186
213458,-0.058633,-0.132472,0.02812,-125.616734,-89.891831,120.5926
213558,-0.054537,-0.132842,0.026972,-143.919546,-89.827396,138.862238
213658,-0.048563,-0.133474,0.025122,-152.157934,-89.755315,147.070876
213758,-0.048559,-0.133435,0.024948,-156.618125,-89.680569,151.501319
213858,-0.051754,-0.127796,0.023071,-159.363279,-89.608044,154.214893
213958,-0.055263,-0.123085,0.021823,-161.230295,-89.537703,156.048318
214058,-0.05771,-0.111871,0.020043,-162.504567,-89.473451,157.287594
214158,-0.060494,-0.096652,0.01762,-163.392966,-89.417762,158.139396
214258,-0.065227,-0.076129,0.018354,-163.80022,-89.373146,158.507324
214358,-0.07246,-0.052717,0.018646,-163.826784,-89.341348,158.490399
214458,-0.076759,-0.045432,0.020053,-163.693922,-89.313323,158.311575
214558,-0.078176,-0.05675,0.022052,-163.633234,-89.278746,158.204115
214658,-0.08161,-0.075236,0.024091,-163.722988,-89.233676,158.245136
214758,-0.079055,-0.088602,0.022588,-164.011744,-89.181492,158.486639
214858,-0.078555,-0.090775,0.020583,-164.363094,-89.128415,158.791031
214958,-0.076371,-0.079294,0.0121,-164.859074,-89.082945,159.241328
215058,-0.072948,-0.059513,0.006043,-165.336711,-89.049269,159.675248
215158,-0.074686,-0.045656,0.000836,-165.838881,-89.023971,160.132714
215258,-0.071636,-0.030819,-0.001808,-166.283494,-89.007228,160.534367
215358,-0.071081,-0.016476,-0.005364,-166.718754,-88.998896,160.92699
215458,-0.070107,-0.003983,-0.006102,-167.078657,-88.997579,161.244808
215558,-0.071293,0.002402,-0.002688,-167.283096,-88.99936,161.406465
215658,-0.066896,-0.000956,-0.002459,-167.502012,-88.999218,161.585126
215758,-0.058648,-0.008589,-0.00194,-167.752431,-88.994728,161.800025
215858,-0.056132,-0.021639,-0.001869,-168.084559,-88.982905,162.098088
215958,-0.050902,-0.022364,0.00084,-168.326259,-88.97034,162.308708
216058,-0.043489,-0.005772,0.00349,-168.37095,-88.96678,162.326534
216158,-0.048146,0.01147,0.00368,-168.301125,-88.972878,162.227158
216258,-0.048925,0.027423,0.006344,-168.040232,-88.987604,161.936243
216358,-0.056788,0.041028,0.006329,-167.68018,-89.009924,161.541654
216458,-0.061507,0.041542,0.007161,-167.273474,-89.032376,161.097713
216558,-0.062615,0.034573,0.01294,-166.707066,-89.050125,160.493423
216658,-0.048573,0.034736,0.020816,-165.839623,-89.066766,159.596112
216758,-0.038552,0.040299,0.027521,-164.650216,-89.085243,158.382544
216858,-0.032968,0.039782,0.03142,-163.277475,-89.102375,156.988826
216958,-0.031758,0.033904,0.033791,-161.835736,-89.11535,155.526797
217058,-0.03111,0.032912,0.031645,-160.440226,-89.127629,154.111372
217158,-0.030751,0.026659,0.025185,-159.320111,-89.137349,152.971579
217258,-0.030759,0.020087,0.016388,-158.582056,-89.145093,152.213885
217358,-0.030245,0.01725,0.010639,-158.077695,-89.152423,151.690207
217458,-0.026583,0.022254,0.005184,-157.685248,-89.163527,151.280554
217558,-0.021482,0.029355,0.004191,-157.206441,-89.178562,150.787453
217658,-0.01508,0.031743,0.003828,-156.681238,-89.194871,150.251622
217758,-0.017371,0.030983,0.005093,-156.100137,-89.210415,149.658579
217858,-0.020088,0.026104,0.012014,-155.316355,-89.221682,148.861284
217958,-0.029326,0.023605,0.018647,-154.304633,-89.229871,147.830741
218058,-0.039578,0.027186,0.023264,-153.028915,-89.238454,146.53031
218158,-0.040949,0.032359,0.027787,-151.443534,-89.248025,144.919408
218258,-0.035223,0.036588,0.031111,-149.593239,-89.258138,143.046854
218358,-0.033496,0.042891,0.032538,-147.486867,-89.270066,140.919192
218458,-0.035605,0.060183,0.026504,-145.088784,-89.291081,138.498591
218558,-0.034065,0.060221,0.02567,-142.578485,-89.311082,135.966652
218658,-0.037537,0.057409,0.022211,-140.143913,-89.329716,133.508462
218758,-0.040292,0.054249,0.021631,-137.704746,-89.34595,131.044106
218858,-0.048649,0.04841,0.024434,-135.259094,-89.357424,128.568485
218958,-0.049592,0.044537,0.029061,-132.713207,-89.364215,125.992093
219058,-0.04539,0.048725,0.031591,-129.861749,-89.370139,123.112529
219158,-0.04053,0.054556,0.031176,-126.727129,-89.376652,119.952578
219258,-0.033863,0.063693,0.028986,-123.189021,-89.385176,116.392942
219358,-0.027842,0.066119,0.024864,-119.55712,-89.394023,112.742963
219458,-0.022878,0.064802,0.021031,-115.986253,-89.402008,109.15687
219558,-0.022035,0.068898,0.020845,-112.125778,-89.408597,105.281637
219658,-0.031353,0.077173,0.020179,-107.772254,-89.414273,100.907992
219758,-0.041569,0.075842,0.024625,-103.379705,-89.413847,96.489469
219858,-0.052989,0.068787,0.030911,-99.35583,-89.405771,92.433095
219958,-0.06344,0.061295,0.037006,-95.835146,-89.39093,88.873945
220058,-0.065182,0.052728,0.040404,-92.934627,-89.371702,85.93399
220158,-0.058272,0.04395,0.037298,-90.655067,-89.352682,83.618981
220258,-0.044875,0.039987,0.034268,-88.693006,-89.33447,81.629159
220358,-0.036127,0.038554,0.02914,-86.887916,-89.318489,79.801324
220458,-0.028982,0.04567,0.026776,-84.819896,-89.302849,77.714624
220558,-0.029048,0.050869,0.02268,-82.583695,-89.288289,75.459683
220658,-0.034253,0.050252,0.019967,-80.450436,-89.274279,73.3047
220758,-0.046816,0.035279,0.02205,-79.077029,-89.259809,71.902418
220858,-0.06407,0.02603,0.024521,-78.18227,-89.244654,70.968927
220958,-0.077409,0.025193,0.02116,-77.333783,-89.231306,70.074059
221058,-0.086432,0.037134,0.018329,-76.00471,-89.217736,68.693385
221158,-0.091777,0.051682,0.013883,-74.098186,-89.203947,66.732141
221258,-0.099763,0.060646,0.01172,-71.891766,-89.188867,64.466396
221358,-0.10912,0.051743,0.012263,-70.114745,-89.174047,62.624732
221458,-0.109003,0.038587,0.014693,-68.91573,-89.159873,61.3612
221558,-0.101833,0.039771,0.015304,-67.720408,-89.144741,60.105464
221658,-0.099785,0.035987,0.013343,-66.668142,-89.131131,58.993963
221758,-0.09653,0.032532,0.002172,-65.592325,-89.123881,57.86076
221858,-0.095825,0.030739,-0.007382,-64.440807,-89.121704,56.652241
221958,-0.103882,0.026073,-0.011852,-63.380384,-89.12265,55.530206
222058,-0.111319,0.022353,-0.010427,-62.469935,-89.123539,54.553899
222158,-0.112867,0.031049,-0.007711,-61.321399,-89.120434,53.338592
222258,-0.111683,0.043646,-0.007731,-59.776195,-89.113346,51.72725
222358,-0.111704,0.047774,-0.007179,-58.139547,-89.104077,50.024442
222458,-0.104448,0.039475,-0.006838,-56.792739,-89.096513,48.615668
222558,-0.091959,0.017665,-0.005485,-56.141487,-89.094821,47.90969
222658,-0.081297,-0.003093,-0.007981,-56.059176,-89.100875,47.778835
222758,-0.075174,-0.021582,-0.008326,-56.531477,-89.112972,48.206168
222858,-0.065719,-0.018171,-0.004407,-56.98366,-89.122054,48.618803
222958,-0.051381,-0.004097,-0.000818,-57.064502,-89.12498,48.668276
223058,-0.04637,0.018039,0.004474,-56.55815,-89.118417,48.133368
223158,-0.044869,0.025258,0.001872,-55.784786,-89.110691,47.332286
223258,-0.045941,0.018271,0.00192,-55.237143,-89.105062,46.75634
223358,-0.049603,0.002118,-0.000252,-55.136297,-89.105686,46.62515
223458,-0.052354,-0.016319,-0.004344,-55.509328,-89.11425,46.966314
223558,-0.055291,-0.025326,-0.003266,-56.192784,-89.125149,47.616251
223658,-0.060551,-0.031189,-0.001273,-57.123477,-89.136796,48.510434
223758,-0.065052,-0.028554,0.000462,-58.030184,-89.146574,49.37804
223858,-0.068726,-0.016121,-0.001542,-58.505739,-89.153431,49.812335
223958,-0.077752,0.001086,-0.004731,-58.355568,-89.15667,49.615657
224058,-0.081785,0.003264,-0.009033,-58.044837,-89.16134,49.256086
224158,-0.087147,-0.002586,-0.010973,-57.887451,-89.168712,49.0468
224258,-0.087607,0.001993,-0.015426,-57.477589,-89.176822,48.584748
224358,-0.095717,0.000329,-0.018544,-57.051487,-89.186899,48.101807
224458,-0.095575,-0.00936,-0.018961,-56.936277,-89.200165,47.929874
224558,-0.091591,-0.022323,-0.016536,-57.323617,-89.216298,48.26282
224658,-0.082059,-0.03434,-0.014549,-58.201643,-89.235088,49.091955
224758,-0.079793,-0.03925,-0.013125,-59.3384,-89.254438,50.181137
224858,-0.079691,-0.033426,-0.013566,-60.295147,-89.272065,51.090342
224958,-0.077013,-0.031111,-0.018509,-61.092017,-89.291337,51.841183
225058,-0.079307,-0.034093,-0.023293,-61.951229,-89.313699,52.65305
225158,-0.082555,-0.042057,-0.027938,-63.115362,-89.340349,53.767995
225258,-0.088603,-0.052788,-0.032676,-64.776623,-89.371803,55.376627
225358,-0.096375,-0.061258,-0.027005,-67.162744,-89.401601,57.705699
225458,-0.104166,-0.060803,-0.01804,-69.94783,-89.425357,60.429284
225558,-0.103259,-0.056271,-0.00644,-72.90745,-89.440542,63.327929
225658,-0.097737,-0.049428,0.006121,-75.805148,-89.446237,66.167814
225758,-0.084408,-0.041692,0.009685,-78.337941,-89.447621,68.65042
225858,-0.066776,-0.039428,0.009943,-80.738091,-89.447579,71.010487
225958,-0.048895,-0.041037,0.002776,-83.167795,-89.450769,73.410358
226058,-0.039783,-0.038906,-0.006185,-85.445758,-89.457997,75.663699
226158,-0.028518,-0.034715,-0.016042,-87.491428,-89.469903,77.691184
226258,-0.013977,-0.022708,-0.024562,-88.848816,-89.485897,79.038687
226358,-0.004796,-0.010265,-0.023468,-89.467843,-89.50094,79.65306
226458,0.002525,-0.00567,-0.021076,-89.809504,-89.514542,79.994255
226558,0.006541,-0.003941,-0.016731,-90.047666,-89.525629,80.234253
226658,0.005409,-0.007165,-0.010799,-90.521993,-89.533289,80.709777
226758,0.003099,-0.008979,-0.005043,-91.134204,-89.537595,81.321867
226858,-0.004322,-0.009009,0.004773,-91.741831,-89.536225,81.92512
226958,-0.009087,-0.003488,0.016272,-91.930619,-89.528339,82.106786
227058,-0.012217,-0.001201,0.021519,-91.945346,-89.517494,82.112588
227158,-0.012414,-0.004167,0.027481,-92.141041,-89.50318,82.299247
227258,0.002513,0.00739,0.033907,-91.562676,-89.485405,81.720366
227358,0.023995,0.037371,0.013197,-89.143341,-89.479494,79.312735
227458,0.040055,0.007459,0.016115,-88.639248,-89.471702,78.82962
227558,0.009259,0.000544,0.007332,-88.576007,-89.469014,78.769727
227658,-0.01361,0.009031,0.003762,-87.996051,-89.468219,78.179994
227758,-0.033744,0.022278,0.000868,-86.602526,-89.468621,76.765124
227858,-0.042604,0.029475,0.004143,-84.787073,-89.466465,74.923232
227958,-0.034464,0.038802,0.012396,-82.482489,-89.458395,72.596854
228058,-0.032957,0.043761,0.01563,-79.99055,-89.447151,70.083972
228158,-0.035248,0.043812,0.0145,-77.586687,-89.435526,67.65785
228258,-0.028637,0.035553,0.010937,-75.685149,-89.426113,65.737854
228358,-0.015963,0.010259,0.00395,-75.113301,-89.423831,65.154868
228458,-0.005826,-0.016436,-0.008495,-75.836146,-89.432309,65.872439
228558,0.008941,-0.02908,-0.023647,-77.096603,-89.450801,67.136106
228658,0.023173,-0.032869,-0.038651,-78.480032,-89.477858,68.530901
228758,0.028717,-0.021349,-0.041734,-79.22248,-89.505112,69.287867
228858,0.027902,-0.003849,-0.060685,-78.585525,-89.541065,68.664924
228958,0.020197,0.007738,-0.047908,-77.189122,-89.568347,67.278111
229058,0.003587,0.022296,-0.048431,-74.46615,-89.593464,64.555187
229158,0.000366,0.028924,-0.045071,-70.950536,-89.614497,61.037765
229258,-0.00109,0.024782,-0.037036,-67.664247,-89.63059,57.748841
229358,-0.002718,0.014544,-0.027305,-65.330066,-89.642833,55.411112
229458,0.005808,0.003776,-0.015731,-64.230062,-89.651263,54.312472
229558,0.025227,8.9e-05,-0.013667,-63.473418,-89.659452,53.568328
229658,0.043902,0.0044,-0.018363,-62.077311,-89.668812,52.195419
229758,0.066501,0.007928,-0.022845,-60.051224,-89.679183,50.205484
229858,0.09243,0.012415,-0.040674,-56.444227,-89.696315,46.649481
229958,0.122098,-0.00284,-0.049315,-53.213716,-89.721332,43.486979
230058,0.122386,-0.02032,-0.048738,-51.169299,-89.751446,41.510757
230158,0.10375,-0.022334,-0.044512,-49.22698,-89.780103,39.625957
230258,0.102927,-0.014669,-0.040334,-46.259115,-89.803688,36.71513
230358,0.107011,-0.007379,-0.0432,-41.180476,-89.824616,31.695856
230458,0.1048,-0.009048,-0.048314,-34.107415,-89.846287,24.680886
230558,0.096952,-0.01558,-0.053279,-24.482401,-89.869517,15.109464
230658,0.094765,-0.026122,-0.0529,-12.023468,-89.893513,2.702873
230758,0.091443,-0.045094,-0.056448,8.477496,-89.920481,-17.747654
230858,0.095596,-0.053418,-0.057891,43.842105,-89.932961,-53.059453
230958,0.098403,-0.045852,-0.061171,74.923513,-89.914033,-84.086445
231058,0.101907,-0.040961,-0.060071,90.416765,-89.881068,-99.523275
231158,0.097968,-0.037292,-0.06082,98.071788,-89.843185,-107.124133
231258,0.096996,-0.031675,-0.062296,101.738938,-89.803465,-110.737675
231358,0.090399,-0.026423,-0.060739,103.513764,-89.764805,-112.46267
231458,0.068978,-0.020684,-0.059367,104.154873,-89.727568,-113.066216
231558,0.049804,-0.013877,-0.057168,103.991124,-89.692487,-112.875888
231658,0.027898,-0.008845,-0.054093,103.45025,-89.65979,-112.320985
231758,0.009372,-0.00422,-0.050999,102.657151,-89.629371,-111.524476
231858,-0.010626,-0.007481,-0.050933,102.235272,-89.598521,-111.110662
231958,-0.022108,-0.010457,-0.049322,102.113413,-89.568184,-111.003464
232058,-0.035034,-0.014142,-0.051062,102.229151,-89.536412,-111.141284
232158,-0.050014,-0.010018,-0.05164,102.044683,-89.504802,-110.987482
232258,-0.065591,-0.002502,-0.052479,101.402027,-89.473578,-110.384405
232358,-0.078645,0.010881,-0.049733,100.074436,-89.445235,-109.103844
232458,-0.0868,0.010972,-0.046941,98.889084,-89.418217,-107.970197
232558,-0.087547,-8.8e-05,-0.042067,98.435234,-89.392847,-107.568515
232658,-0.081565,-0.007371,-0.032529,98.466289,-89.372256,-107.648335
232758,-0.075814,-0.014659,-0.023827,98.930431,-89.355962,-108.15797
232858,-0.062518,-0.010443,-0.014344,99.246862,-89.345385,-108.512263
232958,-0.080113,-0.01163,-0.013419,99.607675,-89.335202,-108.921022
233058,-0.078891,-0.008404,-0.009651,99.833921,-89.327434,-109.194509
233158,-0.087754,-0.001042,-0.001281,99.767417,-89.325111,-109.180301
233258,-0.103702,-0.022111,0.002588,100.73042,-89.322824,-110.204812
233358,-0.114268,-0.027923,0.001828,101.94674,-89.319225,-111.488715
233458,-0.130118,-0.014685,0.010401,102.610447,-89.321792,-112.229051
233558,-0.146492,-0.013076,0.01666,103.263499,-89.327962,-112.968114
233658,-0.151966,-0.004314,0.024841,103.601021,-89.339782,-113.394762
233758,-0.139773,0.013482,0.027481,103.112005,-89.355436,-112.987834
233858,-0.131882,0.023462,0.025016,102.068466,-89.370896,-112.02183
233958,-0.10974,0.023724,0.021326,100.935514,-89.384112,-110.953722
234058,-0.087951,0.019249,0.015813,99.954656,-89.393553,-110.02523
234158,-0.075965,0.014225,0.012388,99.193059,-89.400445,-109.309132
234258,-0.075581,0.008949,0.01279,98.706896,-89.407034,-108.868251
234358,-0.075512,0.009075,0.019298,98.256077,-89.417303,-108.462663
234458,-0.072074,0.016806,0.026835,97.408522,-89.432421,-107.658339
234558,-0.07067,0.024897,0.029734,96.057448,-89.449578,-106.349665
234658,-0.070732,0.021165,0.026687,94.834728,-89.464496,-105.169395
234758,-0.06529,0.002112,0.018055,94.699107,-89.473438,-105.073158
234858,-0.053448,-0.016625,0.012193,95.711556,-89.478067,-106.118254
234958,-0.041903,-0.031781,0.007134,97.658683,-89.478568,-108.091447
235058,-0.031396,-0.035496,0.001186,99.780094,-89.474756,-110.2329
235158,-0.013426,-0.031547,0.000331,101.628021,-89.470228,-112.090549
235258,0.002751,-0.029873,0.001091,103.363021,-89.465816,-113.825989
235358,0.012145,-0.030114,0.00415,105.136324,-89.462587,-115.594346
235458,0.006127,-0.029262,0.003692,106.825938,-89.458749,-117.282455
235558,0.002968,-0.029046,0.005651,108.513301,-89.455554,-118.970125
235658,-0.00403,-0.028166,0.005833,110.129563,-89.452168,-120.590701
235758,-0.007209,-0.018609,0.004781,111.170011,-89.449797,-121.637257
235858,-0.009119,-0.010396,0.001926,111.684654,-89.447493,-122.159071
235958,-0.00601,-0.008291,0.001773,112.07837,-89.445528,-122.558164
236058,0.002347,-0.00852,0.00131,112.476467,-89.443252,-122.956844
236158,0.009179,-0.010783,0.00264,113.028463,-89.441154,-123.505507
236258,0.02047,-0.013308,0.00361,113.741208,-89.43894,-124.208454
236358,0.031427,-0.013883,0.003328,114.478512,-89.43636,-124.929679
236458,0.038703,-0.013541,0.002602,115.177454,-89.433398,-125.608371
236558,0.042309,-0.016478,-0.001814,115.912157,-89.427341,-126.320761
236658,0.034921,-0.02012,-0.003444,116.76981,-89.419422,-127.160345
236758,0.024269,-0.020727,-0.005726,117.568999,-89.410056,-127.947572
236858,0.015009,-0.019791,-0.004377,118.327392,-89.401513,-128.699312
236958,0.002855,-0.014985,-0.003043,118.864245,-89.394871,-129.236469
237058,-0.005597,-0.007487,0.003376,119.201105,-89.393486,-129.578468
237158,-0.007989,0.002434,0.004047,119.084244,-89.395196,-129.468093
237258,-0.006502,0.008104,0.006541,118.76232,-89.399722,-129.151792
237358,-0.002049,0.006201,0.004379,118.473655,-89.402621,-128.866201
237458,-4.2e-05,-0.000962,0.002887,118.491871,-89.402807,-128.886354
237558,0.004392,-0.008131,0.005475,118.926617,-89.402321,-129.320518
237658,0.012561,-0.00801,0.005801,119.368308,-89.401999,-129.756946
237758,0.017329,-0.006365,0.004463,119.697388,-89.401445,-130.078025
237858,0.012851,-0.005881,-0.000692,119.859406,-89.398448,-130.234602
237958,0.002645,-0.008947,-0.001217,120.143023,-89.394302,-130.518638
238058,-0.011449,-0.015257,0.001365,120.776989,-89.389569,-131.161125
238158,-0.027427,-0.016375,0.007202,121.605362,-89.387278,-132.007192
238258,-0.039214,-0.019774,0.016611,122.844964,-89.388347,-133.271267
238358,-0.045295,-0.018561,0.026906,124.343217,-89.394397,-134.797489
238458,-0.037717,-0.016565,0.038347,126.156587,-89.405997,-136.634498
238558,-0.022496,-0.003967,0.042158,127.619083,-89.423127,-138.111883
238658,0.000575,0.006457,0.041224,128.67323,-89.443195,-139.167669
238758,0.024533,0.011134,0.03816,129.480639,-89.463419,-139.962969
238858,0.049439,0.017969,0.032479,129.800889,-89.483563,-140.256811
238958,0.052996,0.016668,0.03105,130.153563,-89.502587,-140.581035
239058,0.04717,0.002479,0.036465,131.505554,-89.518606,-141.907945
239158,0.035424,-0.00593,0.044427,133.757899,-89.534361,-144.141967
239258,0.018652,-0.006002,0.058105,136.883641,-89.554724,-147.259021
239358,0.010902,-0.00392,0.068145,140.78966,-89.578224,-151.160807
239458,0.025469,0.00469,0.081575,145.651725,-89.607971,-156.010306
239558,0.046378,0.015351,0.079126,150.61337,-89.639102,-160.947393
239658,0.056203,0.006376,0.072555,156.226262,-89.660816,-166.530093
239758,0.058048,-0.016296,0.065407,162.535459,-89.665247,-172.808045
239858,0.049652,-0.042113,0.066907,169.534991,-89.651193,-179.781158
239958,0.052547,-0.069971,0.070572,176.392271,-89.61661,173.389621
240058,0.018718,-0.084911,0.082046,-177.134515,-89.568675,166.925055
240158,0.014667,-0.084685,0.091139,-171.39608,-89.515752,161.192925
240258,0.026098,-0.053574,0.098803,-165.906811,-89.475242,155.716478
240358,0.052678,-0.017789,0.098625,-160.54804,-89.450037,150.385733
240458,0.083009,0.008233,0.0921,-155.40231,-89.435599,145.285399
240558,0.107674,0.013846,0.08722,-150.619935,-89.421061,140.562555
240658,0.1103,0.005825,0.081127,-146.620688,-89.400858,136.624365
240758,0.098644,-0.016727,0.079895,-143.660658,-89.368045,133.71875
240858,0.084842,-0.047295,0.089002,-141.587739,-89.316824,131.692364
240958,0.049696,-0.057034,0.089957,-140.068801,-89.260252,130.199823
241058,0.025647,-0.044762,0.093502,-138.333451,-89.207194,128.477034
241158,0.016312,-0.03113,0.098263,-136.323603,-89.157326,126.47433
241258,0.004424,-0.023414,0.101939,-134.249858,-89.108148,124.400867
241358,0.003985,-0.019627,0.101747,-132.302592,-89.059485,122.453608
241458,0.014086,-0.024199,0.098312,-130.732332,-89.009641,120.88916
241558,0.029021,-0.017736,0.091569,-129.28173,-88.964469,119.452919
241658,0.036718,-0.008929,0.084816,-127.862858,-88.924854,118.052802
241758,0.040186,-0.007913,0.08122,-126.581871,-88.886643,116.792561
241858,0.040584,-0.01027,0.078341,-125.48775,-88.848492,115.719428
241958,0.03929,-0.010489,0.073572,-124.543765,-88.812153,114.795695
242058,0.029955,-0.015908,0.070883,-123.821615,-88.775097,114.088467
242158,0.018342,-0.022506,0.066075,-123.360268,-88.73812,113.635418
242258,0.00306,-0.026099,0.059934,-123.094526,-88.702927,113.369235
242358,-0.008139,-0.020103,0.054171,-122.802088,-88.672373,113.069907
242458,-0.020394,-0.017067,0.047551,-122.554285,-88.645941,112.808183
242558,-0.031129,-0.014527,0.043668,-122.32074,-88.622155,112.554554
242658,-0.033493,-0.011117,0.040405,-122.069772,-88.600978,112.282131
242758,-0.027849,-0.011474,0.036242,-121.88131,-88.581703,112.075455
242858,-0.023713,-0.019058,0.030478,-121.912423,-88.562938,112.090785
242958,-0.022059,-0.035935,0.025187,-122.327241,-88.541605,112.490883
243058,-0.029768,-0.047436,0.021273,-122.995732,-88.518518,113.140319
243158,-0.034232,-0.051708,0.019119,-123.749812,-88.494919,113.872814
243258,-0.041597,-0.048473,0.01659,-124.458232,-88.473325,114.555413
243358,-0.047604,-0.040193,0.016188,-125.011592,-88.454432,115.079457
243458,-0.055005,-0.036351,0.014052,-125.516421,-88.437686,115.550711
243558,-0.056517,-0.03208,0.012315,-125.960979,-88.423076,115.960803
243658,-0.057479,-0.027754,0.013564,-126.311026,-88.409277,116.275796
243758,-0.052654,-0.028919,0.008906,-126.728565,-88.397173,116.661071
243858,-0.042664,-0.031205,0.007183,-127.192439,-88.38499,117.098427
243958,-0.035466,-0.036848,0.010054,-127.699884,-88.36943,117.5835
244058,-0.040798,-0.034263,0.012664,-128.12803,-88.35349,117.986191
244158,-0.046635,-0.02979,0.015231,-128.450576,-88.337905,118.2799
244258,-0.051289,-0.02827,0.020826,-128.678179,-88.320309,118.475966
244358,-0.04856,-0.022324,0.027416,-128.730192,-88.301877,118.497938
244458,-0.051525,-0.025993,0.03299,-128.770904,-88.279632,118.50691
244558,-0.048813,-0.019177,0.041026,-128.614575,-88.256231,118.32031
244658,-0.03958,-0.012028,0.051044,-128.238075,-88.230848,117.918729
244758,-0.04846,-0.023427,0.05559,-127.99075,-88.199311,117.641296
244858,-0.05062,-0.036365,0.058343,-127.906105,-88.161939,117.525387
244958,-0.048149,-0.03924,0.059207,-127.854215,-88.123153,117.443673
245058,-0.062304,-0.03603,0.059512,-127.766006,-88.085346,117.317511
245158,-0.072432,-0.032433,0.060797,-127.626199,-88.0482,117.133925
245258,-0.076053,-0.023376,0.071037,-127.272826,-88.009516,116.734577
245358,-0.082123,-0.01541,0.079309,-126.753671,-87.969681,116.165867
245458,-0.087929,-0.013041,0.080701,-126.215226,-87.929824,115.574518
245558,-0.087118,-0.017922,0.079198,-125.772668,-87.888836,115.079576
245658,-0.076876,-0.022316,0.076846,-125.417162,-87.847351,114.677612
245758,-0.074142,-0.034369,0.075637,-125.231681,-87.802364,114.447359
245858,-0.076364,-0.041055,0.070247,-125.180593,-87.757663,114.350333
245958,-0.090048,-0.028322,0.06383,-125.043006,-87.720154,114.158901
246058,-0.039083,-0.037283,0.062207,-124.99836,-87.680435,114.08972
246158,-0.040834,-0.024677,0.055363,-124.866613,-87.648051,113.932372
246258,-0.038501,-0.010771,0.049664,-124.624019,-87.622859,113.665434
246358,-0.0437,-0.005987,0.047992,-124.348192,-87.599945,113.362263
246458,-0.044201,0.002895,0.045655,-123.995622,-87.580916,112.982003
246558,-0.037032,-0.003161,0.049578,-123.682746,-87.557982,112.645596
246658,-0.021947,-0.016458,0.048497,-123.5223,-87.531278,112.470418
246758,-0.003266,-0.026194,0.051146,-123.441902,-87.500201,112.386088
246858,0.022491,-0.038983,0.050603,-123.490514,-87.465331,112.445677
246958,0.053203,-0.050419,0.053461,-123.620996,-87.425454,112.604853
247058,0.068841,-0.055246,0.052887,-123.792036,-87.384286,112.813617
247158,0.097016,-0.05977,0.04975,-124.008683,-87.343121,113.084217
247258,0.115383,-0.068049,0.046683,-124.311233,-87.300683,113.451371
247358,0.128133,-0.067888,0.040252,-124.638049,-87.261234,113.850154
247458,0.132271,-0.076281,0.036133,-125.060967,-87.220847,114.347545
247558,0.136878,-0.077536,0.027655,-125.537058,-87.183824,114.900833
247658,0.143505,-0.070079,0.019563,-125.981062,-87.152854,115.425813
247758,0.149435,-0.056564,0.015916,-126.311474,-87.127972,115.840472
247858,0.15191,-0.042547,0.010688,-126.541496,-87.110178,116.156043
247958,0.148984,-0.030094,0.009505,-126.66474,-87.09714,116.36303
248058,0.149264,-0.024659,0.010561,-126.729784,-87.085463,116.51191
248158,0.142316,-0.017634,0.011615,-126.727283,-87.075707,116.589183
248258,0.13919,-0.010348,0.013743,-126.64632,-87.067469,116.586107
248358,0.140839,-0.006542,0.0166,-126.511149,-87.059215,116.529708
248458,0.141123,-0.011861,0.021027,-126.394284,-87.047102,116.491811
248558,0.14344,-0.024898,0.017607,-126.414888,-87.032134,116.592901
248658,0.139983,-0.03305,0.006737,-126.579787,-87.019393,116.8365
248758,0.148351,-0.031894,-0.002682,-126.789528,-87.011344,117.129805
248858,0.155717,-0.030139,-0.01317,-127.047153,-87.008654,117.475288
248958,0.157618,-0.032538,-0.022606,-127.386343,-87.009357,117.903537
249058,0.161131,-0.036299,-0.028921,-127.798195,-87.011479,118.406565
249158,0.167657,-0.037921,-0.030367,-128.230114,-87.013502,118.933434
249258,0.178675,-0.035763,-0.032295,-128.650396,-87.016965,119.454975
249358,0.18969,-0.039365,-0.031315,-129.088698,-87.018503,120.000887
249458,0.204807,-0.054774,-0.032509,-129.657012,-87.014729,120.685668
249558,0.211711,-0.065493,-0.035042,-130.326701,-87.007745,121.475934
249658,0.21681,-0.069213,-0.039006,-131.048541,-87.00061,122.321354
249758,0.21702,-0.067297,-0.044419,-131.789696,-86.995981,123.186241
249858,0.211316,-0.069442,-0.047051,-132.567654,-86.991065,124.084712
249958,0.205475,-0.077616,-0.054676,-133.467233,-86.985481,125.10162
250058,0.209394,-0.089858,-0.061105,-134.504001,-86.976798,126.258158
250158,0.202459,-0.098943,-0.07222,-135.692248,-86.967774,127.562408
250258,0.1991,-0.102023,-0.083547,-136.985924,-86.960499,128.970307
250358,0.202245,-0.093846,-0.090966,-138.271303,-86.95791,130.371697
250458,0.18399,-0.091678,-0.098693,-139.61196,-86.957497,131.817963
250558,0.15778,-0.10215,-0.105014,-141.089753,-86.952919,133.386517
250658,0.139675,-0.10897,-0.107924,-142.641018,-86.944129,135.018262
250758,0.117171,-0.112164,-0.110464,-144.236266,-86.932391,136.681151
250858,0.099437,-0.119168,-0.111182,-145.875507,-86.915135,138.377937
250958,0.099236,-0.129587,-0.111309,-147.554497,-86.890344,140.114438
251058,0.102429,-0.129672,-0.116719,-149.251674,-86.86443,141.871021
251158,0.113935,-0.123451,-0.120811,-150.917657,-86.840026,143.603
251258,0.123741,-0.112395,-0.123882,-152.525588,-86.819376,145.2825
251358,0.12855,-0.098244,-0.125751,-154.061586,-86.803965,146.892739
251458,0.129331,-0.083942,-0.126375,-155.525731,-86.793839,148.431476
251558,0.128796,-0.077862,-0.129112,-156.980702,-86.785412,149.960719
251658,0.138127,-0.074235,-0.133278,-158.446926,-86.777705,151.506588
251758,0.15242,-0.066478,-0.137039,-159.90507,-86.772785,153.052564
251858,0.172769,-0.050458,-0.144635,-161.366619,-86.775835,154.613621
251958,0.19317,-0.025744,-0.15039,-162.799492,-86.791232,156.157647
252058,0.20704,-0.001647,-0.152446,-164.190211,-86.818136,157.667383
252158,0.221122,0.011536,-0.149022,-165.527336,-86.849876,159.131491
252258,0.240216,0.017187,-0.145714,-166.832991,-86.882495,160.57501
252358,0.26175,0.013779,-0.1396,-168.097547,-86.910727,161.9897
252458,0.278596,0.003417,-0.134122,-169.338391,-86.930898,163.390295
252558,0.289788,-0.006446,-0.128572,-170.547461,-86.943394,164.76548
252658,0.295439,-0.012152,-0.127144,-171.756379,-86.951041,166.143745
252758,0.296546,-0.009112,-0.124766,-172.940816,-86.958764,167.49812
252858,0.299725,0.014381,-0.13299,-174.1922,-86.978929,168.92134
252958,0.309015,0.040972,-0.140718,-175.517096,-87.013036,170.423472
253058,0.337369,0.056525,-0.145429,-176.900128,-87.054405,172.000049
253158,0.353757,0.063734,-0.142412,-178.277954,-87.0979,173.580775
253258,0.373183,0.053724,-0.13575,-179.612212,-87.133702,175.128993
253358,0.399295,0.042585,-0.12839,179.120979,-87.161382,176.624638
253458,0.418507,0.045733,-0.118012,177.958815,-87.189442,178.026522
253558,0.440897,0.049164,-0.105262,176.932626,-87.218463,179.305112
253658,0.468418,0.036726,-0.089989,176.091163,-87.239865,-179.585436
253758,0.484734,-0.005685,-0.074821,175.46731,-87.236957,-178.684448
253858,0.474681,-0.053427,-0.064013,175.018169,-87.206868,-177.964093
253958,0.439426,-0.094832,-0.051622,174.750157,-87.153542,-177.445257
254058,0.385251,-0.126085,-0.032278,174.716949,-87.083325,-177.192561
254158,0.311293,-0.133043,-0.01546,174.839119,-87.010023,-177.137872
254258,0.216384,-0.100305,-0.010068,174.931445,-86.955685,-177.107773
254358,0.156272,-0.053995,0.004352,175.097688,-86.928492,-177.18621
254458,0.07369,-0.024385,0.009663,175.243923,-86.918423,-177.292024
254558,-0.011914,-0.006272,0.014308,175.3734,-86.918852,-177.430199
254658,-0.094565,-0.002782,0.013377,175.442145,-86.921152,-177.555006
254758,-0.1623,-0.006859,0.014936,175.491585,-86.921104,-177.699374
254858,-0.199631,-0.020545,0.014614,175.526867,-86.913125,-177.851012
254958,-0.207164,-0.036224,0.010649,175.527561,-86.895915,-177.972369
255058,-0.207016,-0.053725,0.003416,175.465432,-86.868292,-178.030769
255158,-0.208364,-0.071312,-0.006533,175.313437,-86.830084,-177.999991
255258,-0.197121,-0.072325,-0.006897,175.166229,-86.791195,-177.967604
255358,-0.184308,-0.049537,-0.001564,175.061552,-86.765499,-177.970513
255458,-0.163781,-0.022171,0.011907,175.080133,-86.756024,-178.085145
255558,-0.150074,-0.006854,0.025763,175.231926,-86.755906,-178.325375
255658,-0.148266,8.1e-05,0.028717,175.408339,-86.759812,-178.589258
255758,-0.161657,0.008967,0.028261,175.565544,-86.768713,-178.841616
255858,-0.188938,0.003986,0.034438,175.774082,-86.774979,-179.161071
255958,-0.246945,-0.018056,0.044043,176.062616,-86.768956,-179.593968
256058,-0.311655,-0.039621,0.05371,176.423179,-86.750828,179.863815
256158,-0.370064,-0.054302,0.06208,176.83634,-86.724375,179.235338
256258,-0.422365,-0.086868,0.056802,177.173327,-86.678897,178.653071
256358,-0.457282,-0.119195,0.051439,177.438328,-86.6146,178.122786
256458,-0.47179,-0.131546,0.046848,177.64045,-86.543007,177.647074
256558,-0.496136,-0.133671,0.045898,177.806223,-86.470099,177.193718
256658,-0.51096,-0.140331,0.045889,177.952513,-86.393317,176.751296
256758,-0.512661,-0.133588,0.049569,178.116226,-86.320412,176.290374
256858,-0.511086,-0.1262,0.062359,178.378601,-86.251861,175.731428
256958,-0.514392,-0.13083,0.073553,178.721244,-86.180633,175.090085
257058,-0.516761,-0.138548,0.083825,179.131878,-86.104818,174.379172
257158,-0.526659,-0.148668,0.08766,179.547545,-86.022894,173.657451
257258,-0.532447,-0.162906,0.08553,179.919546,-85.932481,172.976087
257358,-0.526766,-0.178496,0.080714,-179.767026,-85.832871,172.356611
257458,-0.520217,-0.194459,0.073857,-179.525806,-85.723947,171.813195
257558,-0.502719,-0.201603,0.068813,-179.332753,-85.610835,171.328033
257658,-0.483153,-0.186848,0.063947,-179.179393,-85.506135,170.893829
257758,-0.45883,-0.156308,0.060788,-179.044115,-85.418908,170.49166
257858,-0.433531,-0.112872,0.060878,-178.897467,-85.356521,170.092557
257958,-0.402583,-0.070021,0.059629,-178.742079,-85.31864,169.702424
258058,-0.368119,-0.037638,0.061728,-178.55083,-85.299209,169.296085
258158,-0.338948,-0.016989,0.063998,-178.325277,-85.291471,168.87207
258258,-0.314143,-0.003419,0.064323,-178.081145,-85.29138,168.443652
258358,-0.289207,0.013199,0.067236,-177.797999,-85.300609,167.990406
258458,-0.269011,0.036952,0.070776,-177.469694,-85.323183,167.503453
258558,-0.252913,0.071722,0.068507,-177.131728,-85.365512,167.016063
258658,-0.233576,0.103075,0.066211,-176.778714,-85.425636,166.524707
258758,-0.202883,0.126507,0.057771,-176.447367,-85.499239,166.072752
258858,-0.165436,0.154271,0.048733,-176.134258,-85.58888,165.660643
258958,-0.13594,0.183697,0.044687,-175.803284,-85.695346,165.247606
259058,-0.11981,0.209547,0.052927,-175.36366,-85.816026,164.734941
259158,-0.11223,0.235082,0.067976,-174.751689,-85.950202,164.053915
259258,-0.118473,0.253377,0.088806,-173.909629,-86.09301,163.13877
259358,-0.124695,0.268964,0.110328,-172.802048,-86.24217,161.954088
259458,-0.128288,0.282695,0.128932,-171.416966,-86.395913,160.489465
259558,-0.119367,0.307964,0.143282,-169.7241,-86.56003,158.72184
259658,-0.100803,0.34938,0.15363,-167.659473,-86.742633,156.592784
259758,-0.065851,0.411079,0.159846,-165.095818,-86.953621,153.984417
259858,-0.010333,0.493968,0.164198,-161.774683,-87.201832,150.650008
259958,0.045439,0.55657,0.160425,-157.527302,-87.472729,146.42111
260058,0.082986,0.591155,0.144874,-152.243345,-87.748166,141.177195
260158,0.109254,0.619307,0.127034,-145.532905,-88.018469,134.521917
260258,0.12534,0.602255,0.115578,-137.242577,-88.250929,126.296195
260358,0.113681,0.486933,0.118997,-128.578657,-88.394728,117.690902
260458,0.05109,0.316221,0.107859,-121.832124,-88.451952,110.96829
260558,-0.020964,0.159336,0.101939,-117.792781,-88.449651,106.912664
260658,-0.057777,0.019041,0.089588,-116.566902,-88.411851,105.650437
260758,-0.069975,-0.068957,0.078834,-117.089046,-88.356543,106.129928
260858,-0.06256,-0.146765,0.063858,-119.031752,-88.287501,108.034876
260958,-0.033573,-0.2382,0.042872,-122.436955,-88.199407,111.419728
261058,0.032991,-0.308017,-0.005613,-126.95178,-88.104336,115.953133
261158,0.141881,-0.325437,-0.08164,-131.999206,-88.024629,121.082119
261258,0.278204,-0.271204,-0.160664,-136.871438,-87.98432,126.114171
261358,0.41043,-0.176753,-0.219046,-141.228864,-87.992822,130.707003
261458,0.501801,-0.071476,-0.243927,-144.892606,-88.046748,134.658093
261558,0.549551,0.019908,-0.231636,-147.710687,-88.132422,137.790345
261658,0.56923,0.105328,-0.202061,-149.532263,-88.246639,139.936791
261758,0.567699,0.212168,-0.157325,-149.782487,-88.39937,140.510279
261858,0.537266,0.33519,-0.083395,-147.220721,-88.590318,138.253411
261958,0.496377,0.440603,0.001896,-140.365402,-88.795842,131.678719
262058,0.432071,0.496301,0.094948,-127.731787,-88.957447,119.288292
262158,0.355276,0.457694,0.180093,-111.795138,-89.00034,103.550763
262258,0.287135,0.336277,0.239208,-99.29154,-88.921094,91.207726
262358,0.210997,0.230571,0.264379,-91.805863,-88.784236,83.839538
262458,0.116242,0.15748,0.252837,-87.693343,-88.640192,79.790659
262558,0.050569,0.082151,0.206923,-85.977636,-88.520459,78.10146
262658,0.027608,0.010388,0.167931,-85.943586,-88.425317,78.081266
262758,0.030888,-0.033247,0.10906,-86.701454,-88.365461,78.855171
262858,0.053014,-0.062979,0.034531,-87.916486,-88.348706,80.099118
262958,0.083763,-0.099888,-0.03642,-89.810958,-88.372057,82.040409
263058,0.121433,-0.129341,-0.0923,-92.386853,-88.424911,84.684952
263158,0.160657,-0.128783,-0.12658,-95.170061,-88.493859,87.559305
263258,0.202245,-0.111464,-0.136929,-97.833649,-88.566046,90.337764
263358,0.21756,-0.095651,-0.132005,-100.373913,-88.633538,93.001581
263458,0.205148,-0.08553,-0.113085,-102.830258,-88.68864,95.574302
263558,0.177111,-0.074086,-0.084595,-105.036461,-88.72695,97.880729
263658,0.132197,-0.066031,-0.047791,-106.915551,-88.744342,99.834227
263758,0.082649,-0.044074,-0.014967,-108.052306,-88.746405,101.016835
263858,0.032207,-0.018905,0.005669,-108.424041,-88.741384,101.405357
263958,-0.003513,0.002288,0.015881,-108.2071,-88.734586,101.184614
264058,-0.03128,0.015319,0.016485,-107.682809,-88.729703,100.640559
264158,-0.040309,0.021941,0.013915,-107.023534,-88.727204,99.956337
264258,-0.034594,0.014178,0.01132,-106.573572,-88.724672,99.48478
264358,-0.015337,-0.004623,0.009335,-106.591072,-88.720095,99.491858
264458,0.017857,-0.017989,0.000956,-106.978007,-88.717884,99.887505
264558,0.054801,-0.033111,-0.0106,-107.800181,-88.719292,100.739689
264658,0.078294,-0.048886,-0.022413,-109.091574,-88.723892,102.074692
264758,0.099242,-0.071822,-0.034136,-111.040143,-88.72943,104.079054
264858,0.111426,-0.084959,-0.048952,-113.461106,-88.738257,106.562923
264958,0.10985,-0.074625,-0.066391,-115.868001,-88.756307,109.03182
265058,0.094486,-0.050179,-0.081361,-117.960645,-88.786209,111.177577
265158,0.069215,-0.037571,-0.10301,-120.170638,-88.828715,113.426204
265258,0.048479,-0.038691,-0.13049,-123.018144,-88.882204,116.300549
265358,0.038054,-0.051592,-0.163578,-127.080161,-88.943444,120.383587
265458,0.03766,-0.070006,-0.191427,-132.679474,-89.003473,126.003852
265558,0.051486,-0.085131,-0.216024,-139.909993,-89.055402,133.263375
265658,0.074771,-0.086183,-0.232954,-148.365398,-89.095289,141.761189
265758,0.118483,-0.082812,-0.239029,-157.518391,-89.117009,150.981659
265858,0.165775,-0.056624,-0.244751,-166.838366,-89.130657,160.396205
265958,0.209145,-0.00323,-0.247977,-176.16045,-89.151402,169.837692
266058,0.251511,0.040779,-0.245317,174.274074,-89.173936,179.546848
266158,0.266656,0.0597,-0.246348,164.229566,-89.182533,-170.256254
266258,0.242664,0.088546,-0.249927,153.643045,-89.179518,-159.531032
266358,0.146444,0.170773,-0.273391,140.716011,-89.177729,-146.520196
266458,0.115097,0.237674,-0.260429,126.701099,-89.16444,-132.439317
266558,0.073612,0.314727,-0.264969,111.141557,-89.118495,-116.837328
266658,0.031752,0.434097,-0.277309,93.950696,-89.015918,-99.627512
266758,0.068414,0.423835,-0.24131,81.073035,-88.865476,-86.709957
266858,0.069828,0.346709,-0.25197,73.4755,-88.679378,-79.072158
266958,0.052738,0.280545,-0.259523,69.213657,-88.485691,-74.780272
267058,0.055059,0.204316,-0.248058,67.197611,-88.308932,-72.733344
267158,0.049712,0.104093,-0.228152,67.049842,-88.164023,-72.558448
267258,0.028648,0.020024,-0.204606,68.062011,-88.050065,-73.556151
267358,-0.007931,-0.042615,-0.182071,69.755116,-87.960367,-75.256204
267458,-0.056063,-0.126939,-0.169924,72.461453,-87.89072,-77.997813
267558,-0.061905,-0.221863,-0.17207,76.381564,-87.82888,-81.957497
267658,-0.038959,-0.273818,-0.194761,80.884882,-87.749441,-86.487856
267758,-0.009494,-0.339397,-0.209016,86.003989,-87.651744,-91.617899
267858,-0.032584,-0.383621,-0.219066,91.253375,-87.530632,-96.892016
267958,-0.088085,-0.310769,-0.22273,95.027875,-87.39265,-100.7222
268058,-0.161197,-0.148112,-0.211885,96.45668,-87.262625,-102.246541
268158,-0.225714,0.019538,-0.202599,95.818946,-87.147621,-101.739105
268258,-0.286824,0.134844,-0.200776,93.922075,-87.03868,-100.005966
268358,-0.370077,0.205757,-0.186734,91.356966,-86.936255,-97.651297
268458,-0.458589,0.220599,-0.159246,88.74717,-86.844088,-95.30246
268558,-0.50757,0.182963,-0.132768,86.619213,-86.762777,-93.464113
268658,-0.499762,0.107603,-0.095299,85.308082,-86.702914,-92.439281
268758,-0.439666,0.023533,-0.050259,84.853253,-86.672035,-92.237612
268858,-0.366046,-0.03465,-0.023919,84.991069,-86.65914,-92.587302
268958,-0.299381,-0.066856,-0.009924,85.469008,-86.655679,-93.239414
269058,-0.247571,-0.089516,-0.007248,86.195558,-86.654297,-94.110821
269158,-0.219104,-0.107149,-0.028766,87.120763,-86.640457,-95.164896
269258,-0.21062,-0.117581,-0.057016,88.1525,-86.609623,-96.320857
269358,-0.21947,-0.121913,-0.079571,89.20347,-86.564674,-97.501228
269458,-0.233593,-0.107583,-0.083013,90.08216,-86.516502,-98.517195
269558,-0.253691,-0.073876,-0.074233,90.611455,-86.472705,-99.194724
269658,-0.273091,-0.042583,-0.057882,90.829948,-86.438206,-99.572047
269758,-0.297378,-0.021491,-0.042532,90.838877,-86.412609,-99.753376
269858,-0.312934,-0.010864,-0.024908,90.743564,-86.397184,-99.839208
269958,-0.309069,-0.018808,0.001259,90.725968,-86.396686,-100.000703
270058,-0.285155,-0.040603,0.029618,90.925013,-86.412237,-100.365538
270158,-0.257865,-0.071282,0.053564,91.429632,-86.441005,-101.020861
270258,-0.224249,-0.111242,0.078656,92.343757,-86.482889,-102.067139
270358,-0.180406,-0.151303,0.101688,93.69798,-86.535467,-103.529102
270458,-0.1466,-0.181201,0.119347,95.416382,-86.594369,-105.336403
270558,-0.131859,-0.187072,0.12396,97.266451,-86.65212,-107.267034
270658,-0.125206,-0.189,0.128532,99.210828,-86.708496,-109.288214
270758,-0.132036,-0.187159,0.126158,101.194731,-86.759651,-111.352819
270858,-0.125038,-0.174826,0.126738,103.122687,-86.80855,-113.357301
270958,-0.122948,-0.148463,0.118489,104.822565,-86.852899,-115.1321
271058,-0.127396,-0.115137,0.114851,106.218863,-86.897656,-116.605375
271158,-0.120692,-0.081389,0.121924,107.337102,-86.950083,-117.796304
271258,-0.113815,-0.043519,0.130865,108.135887,-87.01291,-118.663344
271358,-0.107124,-0.002459,0.146638,108.594149,-87.091215,-119.185526
271458,-0.102667,0.012483,0.169014,109.002924,-87.18421,-119.655562
271558,-0.100516,-0.008182,0.197542,109.79372,-87.288447,-120.506785
271658,-0.101644,-0.046291,0.228115,111.235534,-87.400631,-122.010289
271758,-0.102303,-0.076094,0.247037,113.267973,-87.51424,-124.105237
271858,-0.101238,-0.087134,0.252168,115.663254,-87.624248,-126.562564
271958,-0.092157,-0.075718,0.250943,118.139932,-87.732075,-129.095954
272058,-0.092747,-0.031066,0.246052,120.238105,-87.845757,-131.250704
272158,-0.106177,0.037263,0.248208,121.645758,-87.978029,-132.722009
272258,-0.139362,0.10642,0.257126,122.302531,-88.134625,-133.460903
272358,-0.176136,0.153379,0.261408,122.34737,-88.307516,-133.60859
272458,-0.198778,0.17269,0.258313,122.011146,-88.484801,-133.388042
272558,-0.191459,0.166289,0.251127,121.646263,-88.656601,-133.134662
272658,-0.149859,0.149513,0.236116,121.397483,-88.815998,-132.9736
272758,-0.083679,0.151059,0.218816,120.798678,-88.967333,-132.42454
272858,-0.005964,0.179527,0.193706,118.671521,-89.113993,-130.302414
272958,0.062504,0.223622,0.176687,113.657524,-89.260668,-125.254012
273058,0.120472,0.281139,0.164968,103.076885,-89.400761,-114.60554
273158,0.175298,0.364594,0.166469,81.50063,-89.505035,-92.929785
273258,0.193095,0.470578,0.17699,48.675268,-89.480986,-59.994447
273358,0.238649,0.53746,0.19402,23.359317,-89.291258,-34.542235
273458,0.261193,0.557109,0.207292,9.685869,-89.015922,-20.719513
273558,0.270849,0.550677,0.212017,2.152582,-88.713064,-13.031373
273658,0.283203,0.476216,0.215773,-2.57271,-88.438811,-8.144113
273758,0.268145,0.308978,0.207546,-6.024717,-88.252719,-4.538746
273858,0.206206,0.067789,0.179009,-8.987878,-88.200381,-1.457723
273958,0.126302,-0.164636,0.144499,-12.084558,-88.277733,1.711068
274058,0.084744,-0.353555,0.129504,-16.256497,-88.455958,5.931535
274158,0.074368,-0.513867,0.119789,-22.760642,-88.711,12.478551
274258,0.082537,-0.642005,0.105388,-34.139173,-89.007373,23.904881
274358,0.137972,-0.728493,0.06932,-55.727959,-89.280256,45.573337
274458,0.246104,-0.741573,0.016978,-91.69082,-89.396847,81.677776
274558,0.397,-0.703644,-0.039355,-125.794891,-89.284811,116.009803
274658,0.545759,-0.610714,-0.084524,-145.088054,-89.067249,135.616022
274758,0.673623,-0.458915,-0.118873,-155.316446,-88.872843,146.230508
274858,0.748543,-0.266334,-0.143513,-161.362661,-88.761805,152.705466
274958,0.756403,-0.084286,-0.159866,-165.631904,-88.742012,157.407733
275058,0.695299,0.060936,-0.144009,-168.656028,-88.794865,160.829577
275158,0.590181,0.177316,-0.095446,-170.107369,-88.905193,162.618
275258,0.476345,0.255777,-0.038371,-169.653547,-89.05369,162.435661
275358,0.377855,0.257773,0.014024,-167.02335,-89.197115,160.020262
275458,0.305602,0.183022,0.052841,-162.618268,-89.290865,155.788477
275558,0.246337,0.090419,0.068397,-158.042856,-89.326943,151.352431
275658,0.188954,0.008642,0.063745,-155.00843,-89.317429,148.424594
275758,0.140779,-0.0778,0.064006,-153.879676,-89.261902,147.374941
275858,0.106323,-0.171636,0.066078,-154.514078,-89.157386,148.068845
275958,0.081312,-0.258618,0.055651,-156.54597,-89.009762,150.146106
276058,0.071184,-0.322716,0.037939,-159.182041,-88.830686,152.821953
276158,0.072478,-0.358831,0.003878,-162.165689,-88.636271,155.846381
276258,0.095541,-0.352002,-0.027539,-164.983484,-88.447582,158.718368
276358,0.123977,-0.323243,-0.047595,-167.415511,-88.274512,161.220983
276458,0.153085,-0.294103,-0.052038,-169.361274,-88.115724,163.254011
276558,0.177563,-0.257054,-0.044022,-170.760252,-87.975272,164.754161
276658,0.198933,-0.213989,-0.030379,-171.659677,-87.857027,165.766817
276758,0.219593,-0.181843,-0.014605,-172.157111,-87.755318,166.38912
276858,0.222234,-0.164723,0.003692,-172.318831,-87.661788,166.677009
276958,0.209648,-0.160647,0.023195,-172.201886,-87.569073,166.678803
277058,0.176838,-0.161058,0.041143,-171.877088,-87.474715,166.453743
277158,0.124872,-0.154657,0.053629,-171.434567,-87.382896,166.081028
277258,0.065398,-0.135446,0.067419,-170.851176,-87.300603,165.533162
277358,0.019019,-0.096111,0.076758,-170.139365,-87.239386,164.830101
277458,-0.005848,-0.041936,0.084176,-169.270263,-87.207505,163.955279
277558,-0.018093,0.007796,0.089174,-168.253396,-87.202333,162.925483
277658,-0.019029,0.038179,0.079322,-167.275072,-87.214508,161.933748
277758,-0.030683,0.057421,0.063295,-166.425668,-87.238745,161.064421
277858,-0.017292,0.070458,0.040646,-165.777979,-87.272809,160.404751
277958,0.006045,0.07693,0.009396,-165.448717,-87.31465,160.077281
278058,0.036081,0.078854,-0.023634,-165.482261,-87.362273,160.13026
278158,0.07208,0.091124,-0.053037,-165.819375,-87.42088,160.507781
278258,0.099632,0.121082,-0.081754,-166.428897,-87.499958,161.173771
278358,0.128462,0.146689,-0.09907,-167.215171,-87.595221,162.033178
278458,0.14538,0.158625,-0.114025,-168.232423,-87.6984,163.133411
278558,0.163065,0.168079,-0.123274,-169.447817,-87.807022,164.442013
278658,0.194791,0.189201,-0.132201,-170.861134,-87.927241,165.966782
278758,0.258325,0.235097,-0.141006,-172.462574,-88.072686,167.716103
278858,0.307227,0.304854,-0.144782,-174.248314,-88.25623,169.677702
278958,0.315927,0.375888,-0.150353,-176.493727,-88.478311,172.103949
279058,0.281864,0.437412,-0.16054,-179.804205,-88.73229,175.57579
279158,0.201709,0.484182,-0.165902,174.856023,-89.006029,-178.968976
279258,0.10657,0.512856,-0.165105,165.227361,-89.280369,-169.279367
279358,0.061838,0.542735,-0.158477,144.468154,-89.527415,-148.484856
279458,0.085598,0.584701,-0.153546,97.74997,-89.633523,-101.71772
279558,0.142424,0.59323,-0.136211,56.705402,-89.471146,-60.591646
279658,0.201338,0.494352,-0.110269,41.493442,-89.235056,-45.264606
279758,0.225773,0.260226,-0.101788,38.188973,-89.082453,-41.831617
279858,0.153323,-0.008935,-0.098356,41.160334,-89.049762,-44.716705
279958,0.087922,-0.227114,-0.074041,48.838085,-89.111272,-52.346238
280058,0.036796,-0.373882,-0.050516,62.05724,-89.208901,-65.546883
280158,-0.011887,-0.440457,-0.035326,80.640918,-89.270526,-84.140152
280258,-0.056363,-0.447568,-0.034298,100.501515,-89.247264,-104.035864
280358,-0.108055,-0.36286,-0.040035,114.243235,-89.162035,-117.842025
280458,-0.153063,-0.188645,-0.040708,119.746984,-89.09152,-123.435365
280558,-0.203598,0.011181,-0.027687,118.758155,-89.080227,-122.564352
280658,-0.246559,0.172704,-0.003481,112.849565,-89.120923,-116.797619
280758,-0.285679,0.273973,0.011268,102.727537,-89.17451,-106.839497
280858,-0.315223,0.330718,0.019967,89.254788,-89.205059,-93.547379
280958,-0.327165,0.342557,0.032433,74.915419,-89.195502,-79.395446
281058,-0.312817,0.293415,0.053178,63.01168,-89.162565,-67.671098
281158,-0.296274,0.223445,0.087625,53.731469,-89.13729,-58.560997
281258,-0.265403,0.148243,0.117019,46.435741,-89.133464,-51.417875
281358,-0.214345,0.050548,0.129602,41.395666,-89.163458,-46.501417
281458,-0.17725,-0.068273,0.136113,38.859968,-89.243023,-44.068387
281558,-0.177465,-0.167938,0.127512,39.115441,-89.363175,-44.426914
281658,-0.191366,-0.225458,0.111696,42.726866,-89.502151,-48.149515
281758,-0.202696,-0.260563,0.092006,52.728904,-89.641425,-58.269325
281858,-0.21805,-0.286379,0.071531,77.626012,-89.749232,-83.293073
281958,-0.238348,-0.293175,0.050746,117.648086,-89.755218,-123.453448
282058,-0.265726,-0.292691,0.035354,144.793221,-89.656544,-150.752579
282158,-0.294053,-0.289383,0.026988,157.509854,-89.51755,-163.639441
282258,-0.327917,-0.285032,0.024186,164.093607,-89.367417,-170.412835
282358,-0.355104,-0.269925,0.026404,168.028048,-89.220756,-174.552505
282458,-0.375257,-0.250724,0.031978,170.749878,-89.082839,-177.491134
282558,-0.385933,-0.233692,0.040407,172.917509,-88.953561,-179.881724
282658,-0.388408,-0.227469,0.040764,174.573878,-88.82657,178.237516
282758,-0.372734,-0.23047,0.036421,175.788168,-88.696796,176.807826
282858,-0.347631,-0.236965,0.03052,176.64963,-88.562558,175.745369
282958,-0.317288,-0.247781,0.026428,177.288073,-88.421693,174.923329
283058,-0.286742,-0.259077,0.019036,177.690807,-88.273994,174.354542
283158,-0.260929,-0.265953,0.018725,178.02954,-88.122254,173.864535
283258,-0.234249,-0.254778,0.023097,178.38667,-87.976907,173.371364
283358,-0.197055,-0.223497,0.028703,178.782483,-87.849454,172.860761
283458,-0.148206,-0.183236,0.038978,179.295931,-87.745027,172.260398
283558,-0.100444,-0.143088,0.050488,179.946511,-87.663424,171.550134
283658,-0.057283,-0.09338,0.056036,-179.341465,-87.609959,170.803084
283758,-0.033923,-0.061652,0.066339,-178.498755,-87.574152,169.9386
283858,-0.031924,-0.041979,0.079391,-177.494726,-87.548776,168.913773
283958,-0.051117,-0.022941,0.09373,-176.317068,-87.533032,167.704125
284058,-0.075033,-0.007261,0.110569,-174.928916,-87.524363,166.27005
284158,-0.06671,0.016976,0.127021,-173.293751,-87.526926,164.593489
284258,-0.050526,0.059685,0.14225,-171.362424,-87.550335,162.629775
284358,-0.036104,0.10704,0.149885,-169.166126,-87.596708,160.409162
284458,-0.022039,0.158874,0.153374,-166.66511,-87.667832,157.891719
284558,0.000281,0.220218,0.158262,-163.681397,-87.767188,154.904132
284658,0.015474,0.261269,0.159242,-160.193354,-87.881891,151.420766
284758,0.026977,0.275914,0.164924,-156.1346,-87.994259,147.373151
284858,0.02837,0.286889,0.167803,-151.486102,-88.100206,142.736497
284958,0.026527,0.322367,0.174502,-145.867043,-88.207029,137.127986
285058,0.034919,0.382621,0.178348,-138.781306,-88.319295,130.057254
285158,0.057427,0.428301,0.180649,-130.062328,-88.418514,121.365899
285258,0.059825,0.425389,0.17001,-120.603454,-88.481391,111.936086
285358,0.0467,0.396983,0.151653,-111.358065,-88.50422,102.712494
285458,0.027261,0.380389,0.145947,-102.464251,-88.488803,93.829471
285558,0.025328,0.334718,0.148168,-94.903057,-88.434942,86.278302
285658,0.016667,0.231514,0.155165,-90.02228,-88.352944,81.403396
285758,0.002491,0.091895,0.153618,-88.274088,-88.265326,79.654109
285858,0.010675,-0.071154,0.142392,-89.625868,-88.185674,81.010903
285958,0.026413,-0.236744,0.137697,-93.723502,-88.103977,85.124082
286058,0.031742,-0.350456,0.139072,-99.312545,-88.00307,90.732813
286158,0.036602,-0.403102,0.13321,-105.130472,-87.880578,96.573759
286258,0.038222,-0.394921,0.108438,-110.277534,-87.753573,101.744765
286358,0.065829,-0.360978,0.071763,-114.610971,-87.637609,106.117761
286458,0.130528,-0.3279,0.023282,-118.401718,-87.542819,109.985035
286558,0.218334,-0.266773,-0.020627,-121.471123,-87.477766,113.180891
286658,0.318285,-0.188041,-0.06212,-123.783908,-87.450618,115.676841
286758,0.41294,-0.089329,-0.090205,-125.169959,-87.465192,117.299466
286858,0.475506,0.029319,-0.102524,-125.372925,-87.523762,117.773735
286958,0.499409,0.153513,-0.100078,-124.16751,-87.621916,116.852067
287058,0.490062,0.272726,-0.082894,-121.283952,-87.747261,114.245633
287158,0.447494,0.375461,-0.043782,-116.427302,-87.874039,109.640515
287258,0.37294,0.438497,0.003139,-109.830641,-87.97213,103.251862
287358,0.302318,0.436663,0.050887,-102.571034,-88.014945,96.159661
287458,0.242336,0.377954,0.089989,-96.051762,-88.000023,89.773917
287558,0.18614,0.276168,0.112121,-91.366768,-87.947067,85.191239
287658,0.111026,0.16047,0.117766,-88.778241,-87.880656,82.663171
287758,0.041944,0.062682,0.105144,-87.846324,-87.820352,81.753156
287858,0.007317,-0.013792,0.07425,-88.088275,-87.779097,81.997981
287958,0.004853,-0.052239,0.037528,-88.869802,-87.759382,82.781376
288058,0.027096,-0.066086,-0.006069,-89.823843,-87.764279,83.750172
288158,0.054219,-0.084998,-0.046693,-91.0553,-87.791647,85.012132
288258,0.08641,-0.111519,-0.083955,-92.723853,-87.838606,86.729933
288358,0.123974,-0.125149,-0.115872,-94.695378,-87.901209,88.772393
288458,0.167663,-0.120271,-0.137889,-96.725625,-87.973954,90.898575
288558,0.21046,-0.112983,-0.152036,-98.79794,-88.052507,93.091293
288658,0.22126,-0.123521,-0.150812,-101.216363,-88.126282,95.636408
288758,0.199522,-0.134997,-0.140767,-104.003213,-88.189073,98.537586
288858,0.160522,-0.137704,-0.12105,-106.949156,-88.235812,101.5755
288958,0.115693,-0.138415,-0.092013,-109.898514,-88.261691,104.591082
289058,0.06835,-0.123952,-0.049992,-112.394497,-88.263686,107.125932
289158,-0.000963,-0.103743,-0.014558,-114.307366,-88.248667,109.037684
289258,-0.065381,-0.101157,0.005677,-116.014288,-88.221951,110.706495
289358,-0.112588,-0.106731,0.013361,-117.72109,-88.188344,112.34816
289458,-0.136336,-0.126207,0.01248,-119.687103,-88.148189,114.235595
289558,-0.130919,-0.14827,0.005,-121.958751,-88.103036,116.431986
289658,-0.103156,-0.150659,-0.010755,-124.290151,-88.061851,118.704141
289758,-0.069328,-0.143404,-0.030829,-126.60429,-88.029406,120.978476
289858,-0.040862,-0.126247,-0.048864,-128.789975,-88.008136,123.140644
289958,-0.024027,-0.107878,-0.06304,-130.841306,-87.997102,125.17806
290058,-0.021307,-0.103609,-0.069556,-132.886898,-87.987953,127.211316
290158,-0.020834,-0.101097,-0.07159,-134.905159,-87.978125,129.217519
290258,-0.011473,-0.103698,-0.069927,-136.904776,-87.964095,131.210461
290358,0.004844,-0.107704,-0.069174,-138.897993,-87.945624,133.206389
290458,0.02062,-0.114282,-0.066534,-140.87718,-87.920838,135.197363
290558,0.030563,-0.125991,-0.065217,-142.894922,-87.887818,137.232668
290658,0.045973,-0.140767,-0.064858,-144.963837,-87.845201,139.328082
290758,0.069693,-0.160375,-0.066734,-147.117806,-87.791017,141.522296
290858,0.101965,-0.170994,-0.074838,-149.325563,-87.730964,143.788945
290958,0.147784,-0.155411,-0.082693,-151.380801,-87.677643,145.929336
291058,0.209322,-0.110455,-0.091947,-153.138396,-87.646765,147.807212
291158,0.257759,-0.026643,-0.09719,-154.387443,-87.658297,149.203924
291258,0.289023,0.055707,-0.107231,-155.275692,-87.713924,150.257452
291358,0.303055,0.096655,-0.123193,-156.175911,-87.794053,151.330964
291458,0.290807,0.110845,-0.136355,-157.260005,-87.883927,152.581396
291558,0.247677,0.157547,-0.152452,-158.437626,-88.001156,153.90059
291658,0.196203,0.246571,-0.160611,-159.38879,-88.166794,154.963559
291758,0.167303,0.319711,-0.176316,-160.365844,-88.374285,156.035734
291858,0.122875,0.357236,-0.200313,-161.928691,-88.605831,157.668305
291958,0.114495,0.34446,-0.215282,-164.632887,-88.831122,160.437544
292058,0.131787,0.315502,-0.224157,-169.108604,-89.037188,164.988303
292158,0.147885,0.251821,-0.203493,-175.296432,-89.196808,171.260366
292258,0.166501,0.126343,-0.161652,177.93601,-89.271955,178.122727
292358,0.173044,-0.04231,-0.121536,172.773457,-89.242518,-176.616301
292458,0.116188,-0.185666,-0.096517,170.056546,-89.129344,-173.833678
292558,0.034271,-0.25715,-0.083245,168.82845,-88.975988,-172.586895
292658,0.021492,-0.300995,-0.075643,168.370767,-88.79855,-172.117919
292758,0.047568,-0.335312,-0.083425,168.034826,-88.600865,-171.755741
292858,0.063095,-0.357383,-0.097836,167.601583,-88.389005,-171.287311
292958,0.027849,-0.355613,-0.108526,167.058729,-88.176682,-170.729405
293058,-0.056826,-0.2864,-0.111503,166.27276,-88.002366,-169.976774
293158,-0.164998,-0.136924,-0.109932,164.989808,-87.910805,-168.788848
293258,-0.257728,0.047083,-0.106271,163.00525,-87.919986,-166.952039
293358,-0.337048,0.189122,-0.106274,160.201581,-88.003587,-164.341177
293458,-0.405284,0.267142,-0.099635,156.707074,-88.124932,-161.078401
293558,-0.459361,0.284212,-0.078592,152.933997,-88.253009,-157.568169
293658,-0.480653,0.246162,-0.044429,149.574886,-88.364192,-154.484512
293758,-0.442114,0.170027,-0.010795,147.270818,-88.443625,-152.434344
293858,-0.379958,0.095146,0.034391,146.525428,-88.499684,-151.907818
293958,-0.308673,0.026436,0.076807,147.4254,-88.53599,-152.986329
294058,-0.237569,-0.029406,0.093619,149.402268,-88.549361,-155.101298
294158,-0.176323,-0.079415,0.0829,151.773186,-88.532685,-157.575339
294258,-0.139387,-0.118008,0.055571,153.938182,-88.486688,-159.822259
294358,-0.113232,-0.135776,0.031202,155.671513,-88.423563,-161.622436
294458,-0.124174,-0.14125,0.005569,156.83246,-88.350439,-162.856349
294558,-0.15724,-0.157815,-0.010903,157.701589,-88.264305,-163.817333
294658,-0.206977,-0.195769,-0.017456,158.594786,-88.15616,-164.830971
294758,-0.251496,-0.256172,-0.017675,159.704582,-88.015088,-166.08693
294858,-0.274454,-0.326722,-0.0095,161.114489,-87.836608,-167.656487
294958,-0.264131,-0.361353,-0.001011,162.560413,-87.639429,-169.256368
295058,-0.244039,-0.332627,0.008797,163.800368,-87.458214,-170.638785
295158,-0.213987,-0.27599,0.017844,164.809178,-87.308525,-171.772754
295258,-0.179576,-0.230569,0.030686,165.739065,-87.185024,-172.808093
295358,-0.152084,-0.211542,0.039704,166.65061,-87.07256,-173.809403
295458,-0.127247,-0.217777,0.036803,167.489045,-86.955489,-174.723359
295558,-0.101785,-0.212694,0.026857,168.164843,-86.839446,-175.459942
295658,-0.062965,-0.19061,0.01818,168.683776,-86.734394,-176.017224
295758,-0.01875,-0.16357,0.011471,169.080016,-86.64356,-176.426303
295858,0.018252,-0.144467,0.002785,169.36102,-86.562412,-176.698754
295958,0.044843,-0.120484,-0.008961,169.495745,-86.493484,-176.80943
296058,0.052787,-0.0875,-0.002843,169.630835,-86.443767,-176.915926
296158,0.05692,-0.054896,0.004408,169.77702,-86.413165,-177.031179
296258,0.057348,-0.032111,0.009475,169.930172,-86.395914,-177.153179
296358,0.047509,-0.020536,0.020025,170.152403,-86.386223,-177.350057
296458,0.029646,-0.024087,0.033402,170.487811,-86.37576,-177.67061
296558,0.010159,-0.028978,0.050636,170.970449,-86.363981,-178.149894
296658,0.00157,-0.033814,0.066871,171.595559,-86.350584,-178.77689
296758,-0.0013,-0.042178,0.081159,172.350909,-86.333108,-179.536066
296858,0.002237,-0.058714,0.087765,173.176653,-86.306049,179.636219
296958,0.019234,-0.088,0.088816,174.035839,-86.261613,178.784709
297058,0.035728,-0.10058,0.092063,174.921761,-86.209358,177.91582
297158,0.037816,-0.085515,0.095998,175.808842,-86.165026,177.046916
297258,0.01844,-0.054735,0.104053,176.717628,-86.137707,176.145091
297358,-0.016728,-0.022227,0.114705,177.671908,-86.128324,175.177444
297458,-0.054074,0.028034,0.130144,178.720756,-86.146878,174.093558
297558,-0.088389,0.086135,0.147404,179.906577,-86.197428,172.852712
297658,-0.11497,0.125903,0.157169,-178.798301,-86.268917,171.487131
297758,-0.130853,0.143851,0.165696,-177.377708,-86.348392,169.986793
297858,-0.127498,0.167328,0.166269,-175.870575,-86.4388,168.401789
297958,-0.106979,0.193353,0.166161,-174.248672,-86.541335,166.71373
298058,-0.072018,0.226962,0.167807,-172.447813,-86.659782,164.866651
298158,-0.024697,0.276018,0.170856,-170.373385,-86.802022,162.772953
298258,0.016925,0.335953,0.17935,-167.859833,-86.972216,160.263683
298358,0.051134,0.423299,0.191759,-164.631089,-87.182357,157.058358
298458,0.080642,0.517075,0.215686,-160.200315,-87.428307,152.667242
298558,0.097342,0.544516,0.238485,-154.412533,-87.664489,146.928297
298658,0.080179,0.514237,0.246136,-147.578761,-87.85499,140.133603
298758,0.032683,0.534589,0.246423,-139.362509,-88.01845,131.92909
298858,0.007105,0.589895,0.235662,-129.287257,-88.159609,121.850636
298958,-0.011174,0.570349,0.228506,-118.349674,-88.234179,110.899542
299058,-0.040482,0.484587,0.209299,-108.552252,-88.235833,101.072547
299158,-0.083439,0.375878,0.180831,-101.070364,-88.191812,93.537443
299258,-0.154054,0.225573,0.145726,-96.776204,-88.130521,89.150984
299358,-0.252494,0.087087,0.106883,-95.227367,-88.076021,87.454763
299458,-0.286587,-0.096903,0.109996,-96.813099,-88.008702,88.875342
299558,-0.289457,-0.287061,0.110765,-101.272544,-87.92129,93.169877
299658,-0.287888,-0.334353,0.099409,-106.089312,-87.821717,97.823143
299758,-0.240325,-0.311801,0.066236,-110.300595,-87.730961,101.898045
299858,-0.149722,-0.293651,0.019019,-114.162067,-87.658284,105.675055
299958,-0.011997,-0.231148,-0.035513,-117.287634,-87.620187,108.794684
300058,0.128152,-0.118215,-0.088234,-119.242319,-87.633678,110.822853
300158,0.231056,-0.013015,-0.123035,-120.135512,-87.69223,111.847636
300258,0.293732,0.111528,-0.14283,-119.606797,-87.795993,111.485327
300358,0.323689,0.264392,-0.138687,-116.857861,-87.938649,108.918511
300458,0.302425,0.371287,-0.101471,-111.805316,-88.080339,104.034782
300558,0.244937,0.393401,-0.035467,-105.336013,-88.172458,97.70096
300658,0.190986,0.356792,0.03418,-98.791499,-88.196997,91.261195
300758,0.1369,0.322811,0.107711,-92.739302,-88.155041,85.282975
300858,0.082636,0.293913,0.165707,-87.583522,-88.0614,80.170325
300958,0.029086,0.24885,0.199995,-83.742459,-87.93721,76.342152
301058,-0.052395,0.183457,0.193283,-81.346883,-87.814668,73.913424
301158,-0.140987,0.092883,0.154674,-80.436783,-87.719682,72.920301
301258,-0.216366,0.016681,0.115709,-80.594956,-87.653679,72.953024
301358,-0.249281,-0.01673,0.064972,-81.107852,-87.619426,73.321881
301458,-0.241085,-0.035176,0.012272,-81.747825,-87.616465,73.822617
301558,-0.204437,-0.05847,-0.048269,-82.574321,-87.649428,74.531035
301658,-0.150918,-0.079643,-0.10613,-83.597331,-87.716289,75.466791
301758,-0.088584,-0.090129,-0.151517,-84.73522,-87.808905,76.553204
301858,-0.029662,-0.085921,-0.179996,-85.838076,-87.916733,77.638276
301958,0.019013,-0.086959,-0.19394,-87.036207,-88.031731,78.846524
302058,0.04642,-0.097788,-0.192182,-88.558824,-88.144906,80.395079
302158,0.046755,-0.102864,-0.176058,-90.372447,-88.247309,82.234899
302258,0.018419,-0.08913,-0.150919,-92.135448,-88.333611,84.007756
302358,-0.014394,-0.073862,-0.120644,-93.751198,-88.401426,85.614442
302458,-0.065048,-0.050033,-0.08611,-94.965111,-88.449382,86.790075
302558,-0.11976,-0.03753,-0.052441,-95.939106,-88.478177,87.694341
302658,-0.163613,-0.04872,-0.02566,-97.145396,-88.490521,88.805853
302758,-0.186942,-0.063555,-0.010965,-98.656598,-88.492649,90.209017
302858,-0.17967,-0.085685,-0.008994,-100.632484,-88.490409,92.081204
302958,-0.149312,-0.105918,-0.01246,-103.026984,-88.485855,94.389561
303058,-0.112706,-0.115689,-0.024853,-105.656917,-88.484123,96.954428
303158,-0.075914,-0.123406,-0.038721,-108.506721,-88.485443,99.760346
303258,-0.038964,-0.128849,-0.050139,-111.532875,-88.488032,102.763867
303358,-0.00989,-0.138952,-0.061557,-114.846456,-88.489959,106.071591
303458,0.0082,-0.144023,-0.074332,-118.374846,-88.491917,109.60458
303558,0.021776,-0.165162,-0.08829,-122.440431,-88.488471,113.682748
303658,0.034568,-0.196222,-0.099113,-127.13401,-88.471759,118.39649
303758,0.041202,-0.224323,-0.111203,-132.301997,-88.439391,123.588674
303858,0.038208,-0.23929,-0.123004,-137.606973,-88.393108,128.91628
303958,0.030885,-0.250125,-0.136127,-142.913026,-88.333443,134.240902
304058,0.031221,-0.256696,-0.15009,-148.101592,-88.261556,139.448351
304158,0.032535,-0.266136,-0.169047,-153.222106,-88.176677,144.588679
304258,0.032339,-0.258896,-0.187501,-158.099136,-88.086367,149.485527
304358,0.033636,-0.23318,-0.20191,-162.604746,-87.999994,154.011732
304458,0.038354,-0.20839,-0.212312,-166.780297,-87.917481,158.210608
304558,0.061489,-0.191623,-0.223529,-170.731088,-87.835281,162.198064
304658,0.094976,-0.165935,-0.225399,-174.346798,-87.758271,165.869612
304758,0.129926,-0.150434,-0.227716,-177.712025,-87.681783,169.310726
304858,0.147971,-0.201887,-0.225462,179.202017,-87.568218,172.482925
304958,0.153883,-0.317578,-0.222852,176.531054,-87.382013,175.243484
305058,0.154095,-0.462051,-0.220668,174.41633,-87.108497,177.447803
305158,0.141195,-0.564582,-0.208612,172.92516,-86.774207,179.020878
305258,0.125311,-0.539727,-0.195642,171.799066,-86.453251,-179.780365
305358,0.099743,-0.388613,-0.177929,170.794804,-86.218221,-178.717997
305458,0.090753,-0.157739,-0.170764,169.624093,-86.113071,-177.493744
305558,0.105017,0.094582,-0.16204,168.169406,-86.148976,-175.976601
305658,0.107936,0.25084,-0.148286,166.49021,-86.271214,-174.232898
305758,0.11629,0.33187,-0.143764,164.544786,-86.4354,-172.217898
305858,0.158877,0.365276,-0.136489,162.405495,-86.614485,-169.984578
305958,0.254278,0.372929,-0.124854,160.167667,-86.794576,-167.598188
306058,0.365797,0.3782,-0.110228,157.850727,-86.974886,-165.068952
306158,0.451521,0.361181,-0.105739,155.412742,-87.141379,-162.369679
306258,0.480258,0.334752,-0.087013,153.030904,-87.292881,-159.710457
306358,0.486673,0.235175,-0.060777,151.271461,-87.396119,-157.670862
306458,0.490417,-0.003263,-0.035461,151.164839,-87.384973,-157.283709
306558,0.516557,-0.222713,-0.030584,152.405908,-87.264463,-158.230697
306658,0.545362,-0.337235,-0.060732,153.843115,-87.076557,-159.357682
306758,0.560167,-0.329302,-0.090675,154.811959,-86.884163,-160.007388
306858,0.519801,-0.210021,-0.105169,155.031554,-86.749796,-159.930006
306958,0.429347,-0.004383,-0.103726,154.339804,-86.722267,-158.991768
307058,0.311361,0.207338,-0.083381,152.810395,-86.807521,-157.282341
307158,0.16978,0.36962,-0.062132,150.460528,-86.977056,-154.832773
307258,0.034539,0.474768,-0.045423,147.25958,-87.196477,-151.609111
307358,-0.074178,0.480289,-0.00281,143.856793,-87.422473,-148.246399
307458,-0.146373,0.38576,0.053771,141.213138,-87.61646,-145.68551
307558,-0.175612,0.261234,0.087359,139.685451,-87.763449,-144.258583
307658,-0.160258,0.18013,0.119484,139.174093,-87.88603,-143.840034
307758,-0.110773,0.116885,0.147209,139.658135,-87.991406,-144.389171
307858,-0.065452,0.04428,0.160388,141.188259,-88.069153,-145.958976
307958,-0.03013,-0.037234,0.157223,143.677561,-88.106815,-148.468177
308058,0.006936,-0.106976,0.140619,146.715654,-88.102122,-151.505193
308158,0.038956,-0.146493,0.119383,149.775538,-88.066402,-154.545699
308258,0.045227,-0.156982,0.101861,152.542321,-88.015433,-157.289431
308358,0.02196,-0.146477,0.089286,154.897126,-87.962522,-159.634378
308458,-0.026131,-0.127102,0.090844,157.005744,-87.916943,-161.760649
308558,-0.079611,-0.099174,0.099047,158.953961,-87.885283,-163.757149
308658,-0.119814,-0.063133,0.117792,160.909404,-87.874236,-165.78398
308758,-0.147791,-0.01607,0.139069,162.926239,-87.89002,-167.8883
308858,-0.171519,0.02675,0.162558,165.141656,-87.930216,-170.20491
308958,-0.18041,0.050429,0.179613,167.625166,-87.982404,-172.794818
309058,-0.169803,0.037617,0.193984,170.515214,-88.024552,-175.785353
309158,-0.140427,0.000107,0.198201,173.68231,-88.040165,-179.036207
309258,-0.114095,-0.038534,0.198076,176.937907,-88.027411,177.639485
309358,-0.0814,-0.069488,0.186483,179.968231,-87.990504,174.55927
309458,-0.048587,-0.079681,0.1719,-177.341931,-87.942659,171.838471
309558,-0.025262,-0.075404,0.152862,-175.057014,-87.893849,169.536127
309658,-0.012139,-0.069106,0.131587,-173.182063,-87.846889,167.651462
309758,0.01707,-0.050147,0.127913,-171.384801,-87.808774,165.861216
309858,0.037276,-0.018594,0.116203,-169.726103,-87.787582,164.221164
309958,0.057451,0.0135,0.105027,-168.152738,-87.783914,162.678042
310058,0.07671,0.044565,0.092204,-166.653479,-87.797637,161.220109
310158,0.08901,0.062083,0.09351,-165.043288,-87.819394,159.658218
310258,0.106539,0.065852,0.104868,-163.210887,-87.839657,157.884011
310358,0.112239,0.063001,0.114424,-161.21859,-87.854452,155.953066
310458,0.112527,0.064168,0.129261,-158.981929,-87.86431,153.777751
310558,0.121087,0.066982,0.146573,-156.461298,-87.868534,151.323176
310658,0.139561,0.081925,0.161125,-153.622003,-87.872743,148.560309
310758,0.13515,0.090762,0.172071,-150.566737,-87.873225,145.578792
310858,0.124453,0.083273,0.182171,-147.455238,-87.861109,142.534857
310958,0.100146,0.075379,0.187695,-144.402275,-87.837412,139.535519
311058,0.062579,0.068002,0.19444,-141.43414,-87.802144,136.599464
311158,0.043627,0.057866,0.206641,-138.541628,-87.752278,133.728122
311258,0.044173,0.063499,0.217851,-135.610311,-87.694822,130.818135
311358,0.05134,0.059509,0.219072,-132.852893,-87.629622,128.086154
311458,0.055088,0.019437,0.212395,-130.712735,-87.547299,125.973961
311558,0.051443,-0.028586,0.200903,-129.28961,-87.449639,124.577228
311658,0.049918,-0.052502,0.188767,-128.297323,-87.347581,123.610774
311758,0.051741,-0.038127,0.172756,-127.356115,-87.257124,122.696412
311858,0.058763,0.004274,0.175523,-126.054283,-87.179113,121.424961
311958,0.072371,0.052252,0.172104,-124.388202,-87.117007,119.796534
312058,0.081361,0.100953,0.17145,-122.333328,-87.06798,117.783887
312158,0.093622,0.13323,0.176598,-120.004973,-87.022151,115.504337
312258,0.118537,0.155501,0.179692,-117.50605,-86.976016,113.068178
312358,0.154927,0.191567,0.181498,-114.707178,-86.932215,110.352417
312458,0.223385,0.226142,0.178283,-111.627233,-86.890574,107.394343
312558,0.301636,0.266065,0.178206,-108.196762,-86.847796,104.13
312658,0.349438,0.311425,0.186432,-104.368504,-86.796576,100.494556
312758,0.395799,0.351665,0.201624,-100.221182,-86.72786,96.565943
312858,0.411012,0.381164,0.196394,-95.968413,-86.648418,92.540151
312958,0.370095,0.40929,0.18916,-91.685052,-86.557097,88.459875
313058,0.309802,0.352325,0.184081,-88.196698,-86.452574,85.141036
313158,0.241045,0.169375,0.174773,-86.583388,-86.349306,83.661072
313258,0.188979,-0.054656,0.137153,-87.023039,-86.273796,84.208265
313358,0.155138,-0.279004,0.076942,-89.392987,-86.235948,86.670469
313458,0.10297,-0.451672,0.014855,-93.256029,-86.222687,90.599112
313558,0.023011,-0.568388,-0.007335,-98.142298,-86.19574,95.5074
313658,-0.084936,-0.656806,-0.001927,-103.70617,-86.126633,101.033109
313758,-0.151723,-0.731694,0.001292,-109.638792,-86.006643,106.890723
313858,-0.154305,-0.711196,-0.004109,-115.046583,-85.854832,112.221711
313958,-0.087791,-0.600353,-0.015654,-119.309337,-85.706593,116.443836
314058,0.014578,-0.444943,-0.033533,-122.317756,-85.593385,119.467605
314158,0.10544,-0.29321,-0.064901,-124.338879,-85.533004,121.553723
314258,0.169257,-0.175357,-0.106533,-125.751622,-85.526105,123.066403
314358,0.193576,-0.074635,-0.137445,-126.69036,-85.565164,124.117607
314458,0.17562,0.011889,-0.139578,-127.152862,-85.633964,124.680793
314558,0.135967,0.078044,-0.124453,-127.183259,-85.718554,124.787813
314658,0.101013,0.112569,-0.091504,-126.866743,-85.799987,124.526888
314758,0.073574,0.137865,-0.058321,-126.236435,-85.874602,123.935609
314858,0.04861,0.163545,-0.039254,-125.339676,-85.948366,123.062918
314958,0.011074,0.177623,-0.023217,-124.262064,-86.018094,121.987449
315058,-0.050569,0.158093,-0.005751,-123.23902,-86.071881,120.931355
315158,-0.116288,0.11259,0.011675,-122.471316,-86.101981,120.09351
315258,-0.173083,0.05861,0.029296,-122.032927,-86.106427,119.553145
315358,-0.210542,0.011689,0.033587,-121.931692,-86.094373,119.329203
315458,-0.226202,-0.021517,0.022918,-122.123245,-86.07742,119.389743
315558,-0.223003,-0.029447,0.00469,-122.448776,-86.066845,119.586424
315658,-0.219867,-0.027318,-0.012106,-122.831717,-86.064941,119.842468
315758,-0.206715,-0.03238,-0.024164,-123.296974,-86.067106,120.188592
315858,-0.181375,-0.027685,-0.02283,-123.70925,-86.06993,120.496178
315958,-0.144499,-0.021811,-0.0264,-124.076801,-86.076182,120.780125
316058,-0.131341,-0.019722,-0.034792,-124.463011,-86.086953,121.090335
316158,-0.132265,-0.045528,-0.050705,-125.105789,-86.096589,121.65718
316258,-0.156228,-0.064208,-0.062232,-125.949383,-86.104882,122.41154
316358,-0.183034,-0.064861,-0.067235,-126.841119,-86.114488,123.198757
316458,-0.212468,-0.064039,-0.059994,-127.710654,-86.120261,123.946818
316558,-0.224977,-0.060244,-0.052261,-128.523603,-86.123147,124.630986
316658,-0.229029,-0.056564,-0.039794,-129.248895,-86.121173,125.224986
316758,-0.224467,-0.061899,-0.035677,-129.982826,-86.114915,125.830291
316858,-0.206665,-0.066799,-0.030551,-130.707259,-86.104074,126.43633
316958,-0.175798,-0.067999,-0.030624,-131.417934,-86.092295,127.046338
317058,-0.138254,-0.086794,-0.037129,-132.255731,-86.075544,127.805362
317158,-0.084244,-0.101412,-0.048793,-133.21038,-86.057208,128.712576
317258,-0.05685,-0.097557,-0.061171,-134.188663,-86.044476,129.659257
317358,-0.035747,-0.072609,-0.066036,-135.030941,-86.042731,130.48176
317458,-0.023382,-0.01391,-0.072497,-135.562915,-86.066815,131.000335
317558,-0.015363,0.057013,-0.079935,-135.725941,-86.122715,131.153706
317658,0.0012,0.102003,-0.09229,-135.690029,-86.201996,131.117211
317758,0.026675,0.108364,-0.106019,-135.684991,-86.289376,131.126309
317858,0.058079,0.102556,-0.120389,-135.791446,-86.380117,131.265176
317958,0.082753,0.102776,-0.127856,-135.938088,-86.473907,131.458476
318058,0.097453,0.1096,-0.13204,-136.068852,-86.572145,131.644299
318158,0.105959,0.108461,-0.137008,-136.246912,-86.671853,131.882377
318258,0.124918,0.117388,-0.146569,-136.434522,-86.778997,132.14089
318358,0.153057,0.150619,-0.160354,-136.485384,-86.905351,132.278581
318458,0.191035,0.19833,-0.173875,-136.265717,-87.056847,132.167158
318558,0.218725,0.226408,-0.185984,-135.884285,-87.224709,131.909688
318658,0.214103,0.260133,-0.194188,-135.238941,-87.409544,131.385419
318758,0.185857,0.314254,-0.201529,-134.059848,-87.618769,130.310795
318858,0.137848,0.377291,-0.204582,-132.016648,-87.852573,128.344039
318958,0.079406,0.456572,-0.199773,-128.407902,-88.109597,124.777576
319058,0.025123,0.536785,-0.191469,-122.285537,-88.378028,118.665732
319158,-0.011301,0.594886,-0.191827,-112.630243,-88.634308,108.999668
319258,-0.010301,0.613106,-0.194435,-98.623128,-88.838441,94.982222
319358,0.012775,0.572994,-0.195447,-81.518483,-88.95277,77.880676
319458,0.001522,0.479146,-0.189709,-65.144441,-88.979016,61.503757
319558,-0.030419,0.268244,-0.198858,-54.33537,-89.000594,50.674452
319658,-0.093821,-0.008356,-0.2041,-50.282567,-89.096611,46.566192
319758,-0.139975,-0.216658,-0.198163,-52.120399,-89.263409,48.322863
319858,-0.17434,-0.325533,-0.193384,-60.62666,-89.46006,56.728595
319958,-0.198853,-0.370506,-0.187173,-81.890324,-89.63344,77.877786
320058,-0.199253,-0.388577,-0.183905,-123.759498,-89.691257,119.632274
320158,-0.184255,-0.335186,-0.176063,-156.992656,-89.604523,152.759245
320258,-0.174217,-0.1877,-0.158785,-172.500089,-89.524166,168.166077
320358,-0.192954,-0.002261,-0.125256,178.626211,-89.526753,176.928282
320458,-0.240059,0.148206,-0.07274,171.956609,-89.608022,-176.540735
320558,-0.298456,0.233039,-0.032587,163.517358,-89.734673,-168.273636
320658,-0.321678,0.244477,-0.016535,142.948576,-89.857003,-147.890344
320758,-0.303165,0.176811,-0.002813,98.086238,-89.910327,-103.202935
320858,-0.248972,0.103141,0.020682,59.043918,-89.909391,-64.304524
320958,-0.191221,0.050838,0.055446,31.609702,-89.911052,-36.981124
321058,-0.158085,-0.011964,0.093376,-5.158491,-89.930919,-0.304734
321158,-0.145164,-0.109268,0.119174,-85.360611,-89.925977,79.813023
321258,-0.120782,-0.193731,0.125782,-125.984677,-89.820769,120.366741
321358,-0.062262,-0.251339,0.104151,-140.764354,-89.677747,135.109651
321458,-0.021775,-0.288568,0.06371,-150.022293,-89.520715,144.35409
321558,-0.00945,-0.315818,0.018715,-157.307125,-89.353647,151.632586
321658,-0.032813,-0.32193,-0.016897,-163.010075,-89.18334,157.315903
321758,-0.077177,-0.32273,-0.027458,-167.09541,-89.008696,161.356205
321858,-0.108206,-0.314922,-0.023492,-169.822705,-88.834576,164.020636
321958,-0.126927,-0.278676,-0.014983,-171.519373,-88.678393,165.643603
322058,-0.140225,-0.231334,-0.004024,-172.492869,-88.547438,166.535643
322158,-0.15239,-0.182,0.003303,-173.043648,-88.44373,166.997878
322258,-0.153725,-0.140167,0.01352,-173.233376,-88.363051,167.09817
322358,-0.163744,-0.12668,0.025208,-173.16258,-88.289252,166.932083
322458,-0.179981,-0.147086,0.033447,-173.006416,-88.203272,166.671271
322558,-0.195117,-0.199237,0.037675,-172.917729,-88.087325,166.469275
322658,-0.202927,-0.263068,0.040097,-172.939321,-87.934911,166.37312
322758,-0.190872,-0.303586,0.035264,-173.103239,-87.759797,166.426276
322858,-0.163386,-0.316036,0.02566,-173.385795,-87.578242,166.613915
322958,-0.135646,-0.299942,0.016941,-173.707439,-87.406376,166.856587
323058,-0.11052,-0.266474,0.004687,-174.08388,-87.25427,167.168529
323158,-0.083549,-0.233894,-0.005119,-174.484342,-87.121212,167.520004
323258,-0.046389,-0.20911,-0.013577,-174.898676,-87.002634,167.906707
323358,-0.011068,-0.188949,-0.017026,-175.281542,-86.89561,168.282187
323458,0.015191,-0.179648,-0.009831,-175.543816,-86.793469,168.551985
323558,0.014084,-0.172248,0.004027,-175.647857,-86.694911,168.662677
323658,-0.011898,-0.154408,0.027618,-175.520443,-86.605516,168.526603
323758,-0.05145,-0.13484,0.05628,-175.137842,-86.52593,168.112156
323858,-0.087437,-0.132851,0.086071,-174.518312,-86.445732,167.439625
323958,-0.103961,-0.138979,0.102943,-173.791645,-86.360583,166.650177
324058,-0.093744,-0.150143,0.114543,-173.004828,-86.267676,165.806225
324158,-0.063338,-0.151123,0.118575,-172.207595,-86.173183,164.969186
324258,-0.041303,-0.133185,0.120131,-171.402178,-86.087988,164.136499
324358,-0.026539,-0.098575,0.117897,-170.595116,-86.021813,163.310558
324458,-0.022842,-0.051456,0.117682,-169.746522,-85.981469,162.445048
324558,-0.035847,0.000853,0.121084,-168.813616,-85.969304,161.487507
324658,-0.055673,0.057639,0.127105,-167.752591,-85.987162,160.39013
324758,-0.073012,0.118825,0.134416,-166.51688,-86.036755,159.107704
324858,-0.086372,0.17766,0.137402,-165.106801,-86.116576,157.6429
324958,-0.087839,0.222315,0.138366,-163.521195,-86.21827,156.001459
325058,-0.066406,0.242496,0.136633,-161.794077,-86.328115,154.230686
325158,-0.016484,0.253304,0.132565,-159.933108,-86.440948,152.354651
325258,0.063217,0.278514,0.12574,-157.875654,-86.564587,150.327742
325358,0.150169,0.313765,0.125942,-155.471661,-86.70186,148.003875
325458,0.231349,0.366403,0.132831,-152.50505,-86.85801,145.163435
325558,0.276402,0.430677,0.150868,-148.683261,-87.03151,141.492918
325658,0.282749,0.466513,0.193866,-143.760721,-87.193025,136.724471
325758,0.23511,0.486971,0.225491,-137.861345,-87.328846,130.951365
325858,0.171629,0.535741,0.261049,-130.679243,-87.437326,123.858364
325958,0.123318,0.532703,0.289314,-122.857165,-87.488517,116.097477
326058,0.081586,0.401202,0.282638,-116.468406,-87.462738,109.747392
326158,0.016375,0.193372,0.220654,-113.047483,-87.395558,106.330432
326258,-0.057817,0.009144,0.132271,-112.350166,-87.328951,105.597162
326358,-0.11427,-0.154569,0.066768,-113.832728,-87.26032,107.013727
326458,-0.175693,-0.277982,0.029116,-116.763847,-87.178441,109.845371
326558,-0.225094,-0.33281,0.009791,-120.198154,-87.083803,113.152685
326658,-0.24636,-0.306772,-0.014872,-123.333072,-86.999715,116.148264
326758,-0.212562,-0.235325,-0.052382,-125.892674,-86.949006,118.587303
326858,-0.098484,-0.180888,-0.095524,-128.130183,-86.931459,120.769344
326958,0.040228,-0.133359,-0.13557,-130.148578,-86.944566,122.811589
327058,0.160862,-0.063218,-0.167774,-131.780792,-86.994443,124.536322
327158,0.258061,0.019975,-0.183305,-132.853482,-87.080782,125.756504
327258,0.323251,0.099924,-0.170809,-133.184493,-87.192307,126.27144
327358,0.356713,0.154428,-0.146414,-132.843142,-87.314858,126.132453
327458,0.366889,0.172573,-0.104242,-131.938752,-87.426435,125.435755
327558,0.353378,0.154541,-0.037548,-130.572978,-87.501764,124.269587
327658,0.30778,0.12167,0.038054,-128.858548,-87.530278,122.728382
327758,0.246848,0.088338,0.107609,-126.937868,-87.513442,120.945833
327858,0.167592,0.077222,0.16379,-124.788654,-87.464036,118.889049
327958,0.098796,0.086154,0.196537,-122.443412,-87.398327,116.596492
328058,0.031353,0.08428,0.193571,-120.292618,-87.329534,114.459764
328158,-0.040199,0.051321,0.16583,-118.798365,-87.262185,112.939111
328258,-0.117198,-0.000589,0.117028,-118.225578,-87.20395,112.296713
328358,-0.173399,-0.052133,0.073744,-118.467488,-87.153446,112.437697
328458,-0.194215,-0.093315,0.032564,-119.3495,-87.112136,113.207627
328558,-0.16203,-0.121945,-0.012621,-120.723568,-87.084282,114.488725
328658,-0.101154,-0.141267,-0.06158,-122.511447,-87.072737,116.219117
328758,-0.029105,-0.16581,-0.102581,-124.727929,-87.069895,118.420023
328858,0.033422,-0.193248,-0.128007,-127.316708,-87.064875,121.029607
328958,0.089476,-0.210091,-0.147061,-130.139174,-87.056035,123.905371
329058,0.132592,-0.22004,-0.157189,-133.069937,-87.040351,126.914363
329158,0.14573,-0.222575,-0.158985,-135.98739,-87.016492,129.917638
329258,0.133308,-0.211529,-0.142225,-138.640736,-86.983235,132.649415
329358,0.099141,-0.180607,-0.116788,-140.827628,-86.948073,134.894588
329458,0.053219,-0.134251,-0.082375,-142.397358,-86.917615,136.495459
329558,0.00516,-0.09259,-0.043172,-143.368973,-86.890749,137.469833
329658,-0.033797,-0.061564,-0.01078,-143.880692,-86.866512,137.961323
329758,-0.058046,-0.042642,0.006418,-144.138268,-86.84508,138.184404
329858,-0.070056,-0.044192,0.007358,-144.40057,-86.822563,138.405351
329958,-0.069268,-0.05689,-0.005573,-144.842014,-86.798336,138.806189
330058,-0.054412,-0.071437,-0.027237,-145.533561,-86.774143,139.466071
330158,-0.029036,-0.07983,-0.05702,-146.497397,-86.754983,140.413268
330258,-0.001866,-0.08382,-0.080924,-147.658146,-86.740377,141.57332
330358,0.016066,-0.097307,-0.101052,-149.039722,-86.723801,142.964882
330458,0.019977,-0.118722,-0.110942,-150.594336,-86.697453,144.532061
330558,0.022254,-0.130037,-0.117677,-152.232005,-86.664775,146.183807
330658,0.031947,-0.139302,-0.121752,-153.905802,-86.625685,147.877389
330758,0.044464,-0.142172,-0.125118,-155.572958,-86.583072,149.571596
330858,0.039707,-0.135123,-0.128151,-157.200261,-86.542007,151.223247
330958,0.030144,-0.113675,-0.12903,-158.7277,-86.509833,152.769452
331058,0.015434,-0.087773,-0.130783,-160.167632,-86.489514,154.219608
331158,0.006256,-0.060805,-0.135871,-161.560578,-86.48259,155.617464
331258,0.010095,-0.042187,-0.143469,-162.961556,-86.485087,157.025593
331358,0.035128,-0.049888,-0.154475,-164.467201,-86.482944,158.552974
331458,0.087666,-0.085929,-0.167145,-166.134312,-86.460095,160.272333
331558,0.148892,-0.128141,-0.172719,-167.874241,-86.411281,162.099898
331658,0.197148,-0.141022,-0.173302,-169.562782,-86.351942,163.903828
331758,0.231391,-0.116292,-0.169507,-171.107243,-86.303044,165.583204
331858,0.248033,-0.071207,-0.163197,-172.492608,-86.276494,167.112833
331958,0.251467,-0.022647,-0.152138,-173.711895,-86.274593,168.478087
332058,0.246998,0.028717,-0.141062,-174.793887,-86.299597,169.70322
332158,0.230464,0.062921,-0.132624,-175.803219,-86.342336,170.846037
332258,0.211579,0.099844,-0.128599,-176.793456,-86.404818,171.958829
332358,0.199974,0.153786,-0.134598,-177.864727,-86.497134,173.146049
332458,0.192509,0.188703,-0.143293,-179.079781,-86.608167,174.472869
332558,0.190243,0.219093,-0.168807,179.359461,-86.734741,176.144467
332658,0.213889,0.27337,-0.205823,177.269526,-86.88867,178.359348
332758,0.255853,0.329282,-0.215325,174.822223,-87.069206,-179.044204
332858,0.332967,0.26896,-0.202518,172.34395,-87.21013,-176.37287
332958,0.384296,0.171554,-0.17262,170.200304,-87.292922,-174.007314
333058,0.402044,0.035296,-0.130402,168.78092,-87.299706,-172.356665
333158,0.354709,-0.09006,-0.082674,168.211759,-87.240125,-171.584265
333258,0.30985,-0.190874,-0.034466,168.43263,-87.129383,-171.628492
333358,0.272874,-0.303936,-0.001036,169.218759,-86.958718,-172.259941
333458,0.224646,-0.370386,0.018404,170.214082,-86.752035,-173.128707
333558,0.161361,-0.360092,0.028895,171.145285,-86.55134,-173.969794
333658,0.079086,-0.252041,0.04475,171.936732,-86.412489,-174.718321
333758,-0.010868,-0.054819,0.060091,172.527373,-86.386239,-175.317459
333858,-0.116548,0.173587,0.065039,172.836675,-86.489834,-175.695487
333958,-0.217018,0.35293,0.04906,172.738146,-86.694132,-175.722704
334058,-0.328588,0.417696,0.027497,172.250412,-86.933544,-175.424256
334158,-0.415486,0.359671,0.015674,171.604444,-87.138835,-175.017371
334258,-0.456504,0.249333,0.009536,170.987907,-87.280784,-174.663586
334358,-0.429204,0.159016,0.015509,170.594903,-87.371983,-174.51794
334458,-0.377538,0.092576,0.044861,170.725229,-87.428282,-174.866488
334558,-0.318695,0.018571,0.085379,171.564405,-87.446073,-175.890774
334658,-0.266836,-0.06493,0.119247,173.011857,-87.418086,-177.494157
334758,-0.219054,-0.120955,0.123457,174.571659,-87.356529,-179.182635
334858,-0.166883,-0.160089,0.101047,175.849072,-87.269643,179.441416
334958,-0.12299,-0.181825,0.070884,176.732407,-87.167999,178.485066
335058,-0.095366,-0.185012,0.041016,177.235203,-87.063078,177.925472
335158,-0.097348,-0.166092,0.017904,177.44182,-86.968203,177.661237
335258,-0.127519,-0.160969,0.002786,177.455864,-86.875851,177.572479
335358,-0.18037,-0.15109,-0.008171,177.32041,-86.788877,177.603074
335458,-0.213861,-0.120804,-0.002815,177.208862,-86.719382,177.590473
335558,-0.22295,-0.077738,0.003657,177.136567,-86.674717,177.53331
335658,-0.231152,-0.028525,0.009041,177.088132,-86.658372,177.447516
335758,-0.22715,0.014799,0.021441,177.142036,-86.667174,177.261499
335858,-0.209804,0.031187,0.033237,177.31535,-86.685654,176.965828
335958,-0.184511,0.019836,0.043551,177.612957,-86.697821,176.56018
336058,-0.161141,-0.016527,0.050348,178.00654,-86.689171,176.071805
336158,-0.125455,-0.052984,0.048385,178.408467,-86.659408,175.595533
336258,-0.085776,-0.090186,0.041846,178.769016,-86.608062,175.183443
336358,-0.05061,-0.113703,0.037177,179.096721,-86.543054,174.824385
336458,-0.016206,-0.104659,0.029521,179.358706,-86.48307,174.550861
336558,0.01553,-0.059662,0.027113,179.604483,-86.448796,174.311748
336658,0.041657,-0.008275,0.031141,179.896163,-86.443921,174.041614
336758,0.067449,0.028655,0.044693,-179.671667,-86.460099,173.645516
336858,0.087586,0.047041,0.064451,-179.037564,-86.486468,173.058669
336958,0.103428,0.051924,0.083906,-178.200969,-86.514913,172.27806
337058,0.104099,0.051522,0.105886,-177.142908,-86.541841,171.275979
337158,0.083304,0.036314,0.124354,-175.915487,-86.558233,170.092298
337258,0.051667,0.019212,0.143771,-174.526153,-86.562325,168.728238
337358,0.033276,0.013013,0.152563,-173.069063,-86.560333,167.285709
337458,0.007096,0.004515,0.158954,-171.581549,-86.550829,165.797629
337558,0.005095,0.025175,0.164274,-170.021015,-86.550175,164.235212
337658,0.012504,0.073653,0.170793,-168.304175,-86.573437,162.520461
337758,0.015287,0.100237,0.188517,-166.337754,-86.606023,160.557323
337858,0.031734,0.080941,0.207429,-164.200086,-86.620957,158.432126
337958,0.057245,0.054804,0.223391,-161.9628,-86.614099,156.221791
338058,0.071596,0.032472,0.237828,-159.67375,-86.5873,153.967795
338158,0.066243,0.02349,0.238984,-157.449189,-86.55025,151.775242
338258,0.049164,0.045857,0.23975,-155.189763,-86.519696,149.537856
338358,0.022286,0.095711,0.232316,-152.837568,-86.511323,147.192019
338458,0.002567,0.152514,0.224357,-150.313154,-86.527744,144.662299
338558,-0.004664,0.216057,0.215138,-147.524316,-86.570999,141.863572
338658,0.017294,0.282134,0.209678,-144.328873,-86.638577,138.670269
338758,0.071968,0.352659,0.207445,-140.553907,-86.727409,134.928098
338858,0.149972,0.435863,0.206074,-135.959143,-86.836369,130.40998
338958,0.24333,0.513598,0.208783,-130.368151,-86.951795,124.948253
339058,0.300008,0.564287,0.205334,-123.924889,-87.054721,118.666198
339158,0.293329,0.582831,0.196918,-116.969794,-87.12817,111.868339
339258,0.215226,0.601029,0.191472,-109.630612,-87.165092,104.641451
339358,0.108121,0.603417,0.194574,-102.248317,-87.154225,97.310025
339458,-0.011133,0.499057,0.200435,-96.27271,-87.088221,91.318356
339558,-0.119914,0.292071,0.182525,-92.948251,-86.998828,87.918477
339658,-0.173171,0.061023,0.144756,-92.318853,-86.919042,87.18658
339758,-0.165625,-0.136295,0.097236,-93.796395,-86.86071,88.568987
339858,-0.149888,-0.293138,0.064944,-96.848917,-86.809518,91.537884
339958,-0.163054,-0.418141,0.04075,-101.091774,-86.750474,95.691622
340058,-0.173121,-0.525059,0.015064,-106.253718,-86.672241,100.760503
340158,-0.180937,-0.583397,-0.025555,-111.810764,-86.578216,106.221176
340258,-0.165924,-0.567531,-0.06937,-117.073611,-86.480877,111.396342
340358,-0.111557,-0.524598,-0.109102,-121.847096,-86.388393,116.11302
340458,-0.031637,-0.453348,-0.132956,-125.925072,-86.307629,120.179199
340558,0.058954,-0.330102,-0.15339,-129.042507,-86.263016,123.335199
340658,0.120785,-0.182994,-0.176832,-131.21938,-86.27358,125.584265
340758,0.129184,-0.083222,-0.192659,-132.851512,-86.324251,127.292245
340858,0.106007,-0.041764,-0.202276,-134.335035,-86.392242,128.83794
340958,0.081332,-0.025227,-0.190856,-135.707213,-86.459816,130.257826
341058,0.066839,0.003809,-0.155447,-136.710098,-86.523485,131.29933
341158,0.051704,0.004814,-0.117171,-137.482124,-86.571629,132.100817
341258,0.025727,-0.068744,-0.07844,-138.483167,-86.572827,133.116805
341358,-0.00217,-0.159766,-0.048811,-139.845747,-86.522188,134.479004
341458,-0.017257,-0.223212,-0.025102,-141.373112,-86.43276,135.99774
341558,-0.029992,-0.279575,-0.014847,-143.062428,-86.311604,137.671621
341658,-0.051974,-0.334937,-0.008571,-144.885729,-86.159473,139.467419
341758,-0.052872,-0.363421,-0.013794,-146.734103,-85.991817,141.28818
341858,-0.057357,-0.364358,-0.037223,-148.596655,-85.826942,143.120961
341958,-0.04983,-0.345418,-0.077874,-150.509448,-85.679014,145.00882
342058,-0.036271,-0.314933,-0.120566,-152.460902,-85.553495,146.943595
342158,-0.009505,-0.28317,-0.160384,-154.447557,-85.449457,148.929378
342258,0.016986,-0.263849,-0.18689,-156.444705,-85.356457,150.941202
342358,0.046876,-0.253772,-0.195612,-158.374174,-85.265246,152.902585
342458,0.06148,-0.2437,-0.188028,-160.148041,-85.17277,154.716506
342558,0.066844,-0.232789,-0.164174,-161.676191,-85.077427,156.287183
342658,0.062057,-0.216879,-0.134582,-162.932015,-84.982415,157.582004
342758,0.042542,-0.194488,-0.096673,-163.877821,-84.891371,158.554579
342858,0.024064,-0.184924,-0.064626,-164.589595,-84.799395,159.281705
342958,0.002467,-0.163812,-0.040687,-165.111656,-84.714833,159.806029
343058,-0.012845,-0.155951,-0.023617,-165.512894,-84.631783,160.2003
343158,-0.017984,-0.149473,-0.011566,-165.824938,-84.550413,160.502114
343258,-0.009684,-0.124795,-0.004732,-166.048477,-84.481694,160.719869
343358,0.009434,-0.076066,-0.000978,-166.165841,-84.439517,160.842013
343458,0.024624,-0.028808,-0.003022,-166.218368,-84.423914,160.907792
343558,0.036851,0.014076,-0.010045,-166.243635,-84.433146,160.953248
343658,0.049219,0.030867,-0.016093,-166.272863,-84.45256,161.009832
343758,0.054855,0.035396,-0.022885,-166.331669,-84.475428,161.099403
343858,0.056848,0.050389,-0.026051,-166.387052,-84.50708,161.186708
343958,0.048898,0.074541,-0.027873,-166.424287,-84.552435,161.251226
344058,0.045128,0.106522,-0.031577,-166.440786,-84.616106,161.292764
344158,0.048321,0.138735,-0.04472,-166.488365,-84.699487,161.367367
344258,0.067867,0.149305,-0.069788,-166.664295,-84.79208,161.582112
344358,0.091457,0.121593,-0.104684,-167.090801,-84.873642,162.062011
344458,0.12924,0.091171,-0.144418,-167.803581,-84.942702,162.851019
344558,0.187965,0.099041,-0.178445,-168.711818,-85.01915,163.869962
344658,0.250599,0.148521,-0.195388,-169.665705,-85.123815,164.970652
344758,0.288446,0.216102,-0.207719,-170.650797,-85.266245,166.124266
344858,0.295191,0.291798,-0.218513,-171.696527,-85.450781,167.342361
344958,0.246073,0.389643,-0.217657,-172.768063,-85.688991,168.557772
345058,0.145409,0.514703,-0.212949,-173.888168,-85.99627,169.7636
345158,0.032385,0.645152,-0.209485,-175.140385,-86.375932,171.036376
345258,-0.03135,0.710621,-0.21994,-176.794711,-86.791204,172.674763
345358,-0.040123,0.671891,-0.250436,-179.305425,-87.181105,175.164961
345458,-0.026625,0.537891,-0.273397,177.177365,-87.486579,178.669661
345558,-0.034232,0.342351,-0.271063,173.087869,-87.668949,-177.257913
345658,-0.077161,0.106709,-0.257039,169.187852,-87.706542,-173.400081
345758,-0.152485,-0.099612,-0.245578,166.01532,-87.620282,-170.313471
345858,-0.224123,-0.225177,-0.220093,163.817384,-87.462498,-168.243161
345958,-0.215493,-0.318313,-0.202005,162.427104,-87.253927,-166.976115
346058,-0.143662,-0.39936,-0.182007,161.756478,-87.003663,-166.388171
346158,-0.076008,-0.41231,-0.157135,161.499787,-86.750623,-166.175828
346258,-0.046706,-0.319151,-0.132042,161.234978,-86.552724,-165.938498
346358,-0.056905,-0.159126,-0.108494,160.71646,-86.445833,-165.452812
346458,-0.099323,-0.020196,-0.07609,160.052079,-86.419871,-164.845304
346558,-0.160772,0.077506,-0.047063,159.295278,-86.451713,-164.180486
346658,-0.210214,0.132124,-0.027721,158.478745,-86.516156,-163.48425
346758,-0.233797,0.123663,-0.008103,157.825049,-86.579704,-162.964741
346858,-0.238778,0.074574,0.024191,157.620305,-86.623977,-162.897865
346958,-0.236385,-0.009974,0.069718,158.138525,-86.633184,-163.55383
347058,-0.227321,-0.102156,0.120618,159.44597,-86.603066,-164.99519
347158,-0.208001,-0.158875,0.152117,161.199064,-86.54615,-166.87197
347258,-0.181539,-0.171173,0.162021,163.028348,-86.480783,-168.810026
347358,-0.155857,-0.160864,0.151909,164.687426,-86.41592,-170.562967
347458,-0.142948,-0.142058,0.119768,165.970616,-86.354047,-171.932022
347558,-0.13986,-0.143211,0.072278,166.80383,-86.283541,-172.848547
347658,-0.139628,-0.169546,0.028917,167.287809,-86.192082,-173.415082
347758,-0.131987,-0.188023,-0.005323,167.503456,-86.085784,-173.708399
347858,-0.124997,-0.184113,-0.024597,167.548892,-85.979245,-173.82716
347958,-0.123604,-0.159962,-0.03573,167.46273,-85.884844,-173.81324
348058,-0.132055,-0.132876,-0.035546,167.329061,-85.805613,-173.756565
348158,-0.141913,-0.124251,-0.025692,167.252313,-85.732443,-173.762642
348258,-0.153602,-0.120191,-0.015182,167.240632,-85.66288,-173.840697
348358,-0.174368,-0.132511,0.000897,167.352647,-85.588458,-174.05476
348458,-0.184017,-0.14477,0.016664,167.585309,-85.509099,-174.395411
348558,-0.182898,-0.143999,0.032556,167.918793,-85.431979,-174.836605
348658,-0.176549,-0.147293,0.038463,168.288388,-85.353499,-175.310439
348758,-0.147372,-0.166022,0.03948,168.69271,-85.264364,-175.802411
348858,-0.094284,-0.185237,0.03001,169.072012,-85.163109,-176.238834
348958,-0.041774,-0.198874,0.022369,169.431016,-85.053133,-176.62477
349058,-0.002815,-0.199698,0.019166,169.776334,-84.942169,-176.974635
349158,0.013701,-0.185945,0.024409,170.133778,-84.839316,-177.327244
349258,0.020201,-0.165219,0.038722,170.547549,-84.74935,-177.732743
349358,0.022156,-0.13884,0.057379,171.036227,-84.675739,-178.212416
349458,0.013586,-0.102809,0.076437,171.588979,-84.623799,-178.761449
349558,-0.00746,-0.082306,0.094642,172.21097,-84.584449,-179.39221
349658,-0.039791,-0.077963,0.104607,172.86131,-84.547662,179.929878
349758,-0.071804,-0.075076,0.115522,173.54694,-84.512524,179.198021
349858,-0.091502,-0.067137,0.12036,174.235853,-84.481382,178.451462
349958,-0.093212,-0.060369,0.120764,174.914324,-84.453284,177.714348
350058,-0.08439,-0.039414,0.120914,175.58189,-84.436338,176.993214
350158,-0.080075,-0.010379,0.118125,176.219931,-84.435091,176.304186
350258,-0.082615,0.022121,0.11251,176.812383,-84.45153,175.659468
350358,-0.098145,0.050978,0.109837,177.375737,-84.483788,175.035032
350458,-0.117792,0.074464,0.116537,177.969529,-84.529055,174.368708
350558,-0.143997,0.118076,0.125993,178.609239,-84.598795,173.6412
350658,-0.168086,0.178692,0.132468,179.288005,-84.702557,172.860667
350758,-0.188767,0.224832,0.133787,179.992098,-84.831902,172.042909
350858,-0.196374,0.25409,0.136362,-179.250188,-84.977068,171.167084
350958,-0.177193,0.282103,0.136144,-178.429267,-85.13723,170.239025
351058,-0.134206,0.322803,0.136549,-177.508799,-85.319489,169.236005
351158,-0.062191,0.361484,0.136304,-176.452969,-85.522454,168.138856
351258,0.028991,0.400693,0.142305,-175.170797,-85.745773,166.867435
351358,0.108487,0.446149,0.153617,-173.568506,-85.991895,165.321139
351458,0.160245,0.467041,0.16282,-171.625371,-86.245663,163.463447
351558,0.165641,0.462167,0.17643,-169.289493,-86.490524,161.215885
351658,0.129811,0.467731,0.192673,-166.4647,-86.729899,158.458596
351758,0.077142,0.442799,0.208044,-163.158883,-86.944113,155.189952
351858,-0.012789,0.367702,0.206042,-159.746883,-87.106919,151.763926
351958,-0.116774,0.265281,0.169639,-156.887401,-87.212859,148.831789
352058,-0.181064,0.124705,0.115465,-155.168142,-87.25186,147.004435
352158,-0.214144,-0.006063,0.072643,-154.568497,-87.231619,146.278968
352258,-0.222369,-0.113919,0.035824,-154.915293,-87.164389,146.496285
352358,-0.222371,-0.202898,0.004748,-155.980428,-87.058036,147.432842
352458,-0.194732,-0.260361,-0.035042,-157.591874,-86.929314,148.932408
352558,-0.135284,-0.253653,-0.087976,-159.527687,-86.812869,150.79111
352658,-0.040178,-0.193321,-0.147936,-161.650212,-86.736919,152.89159
352758,0.072944,-0.10713,-0.196278,-163.830044,-86.711963,155.114536
352858,0.184092,-0.012322,-0.218693,-165.897085,-86.738099,157.288348
352958,0.261939,0.07469,-0.21977,-167.775273,-86.808607,159.31765
353058,0.292137,0.133664,-0.200126,-169.405306,-86.906443,161.115669
353158,0.283572,0.185404,-0.159179,-170.616135,-87.026883,162.488886
353258,0.255097,0.231071,-0.099827,-171.197174,-87.166587,163.215092
353358,0.210419,0.249943,-0.021372,-170.89178,-87.309846,163.028191
353458,0.159198,0.258838,0.059043,-169.548788,-87.45014,161.773303
353558,0.086938,0.280696,0.118018,-167.2493,-87.594021,159.519752
353658,0.016869,0.284616,0.152356,-164.212386,-87.730555,156.488222
353758,-0.043285,0.259105,0.173596,-160.656204,-87.842154,152.902796
353858,-0.10111,0.223029,0.169143,-157.052558,-87.926525,149.236923
353958,-0.147603,0.153677,0.138903,-154.130309,-87.97401,146.226342
354058,-0.16392,0.07718,0.089945,-152.38933,-87.990547,144.388424
354158,-0.149333,0.030972,0.034319,-151.77884,-87.997289,143.690015
354258,-0.10962,0.002333,-0.018425,-152.128501,-88.003714,143.975073
354358,-0.057571,-0.023656,-0.065315,-153.334216,-88.009091,145.146509
354458,-0.007999,-0.041908,-0.107787,-155.281114,-88.014485,147.08797
354558,0.037505,-0.05591,-0.137158,-157.747926,-88.016639,149.575739
354658,0.073981,-0.056193,-0.153439,-160.449443,-88.018088,152.319279
354758,0.095483,-0.059023,-0.152707,-163.137735,-88.0134,155.061952
354858,0.105609,-0.067247,-0.133791,-165.532904,-87.997038,157.5172
354958,0.088518,-0.072914,-0.099131,-167.364583,-87.969725,159.398904
355058,0.055243,-0.076736,-0.058563,-168.541638,-87.933692,160.60658
355158,0.019732,-0.087175,-0.017339,-169.095873,-87.886569,161.170737
355258,-0.018561,-0.0958,0.026211,-169.022395,-87.829781,161.084844
355358,-0.048149,-0.099894,0.072545,-168.312813,-87.765465,160.34544
355458,-0.067371,-0.105613,0.119262,-167.022756,-87.691755,159.014087
355558,-0.082422,-0.10504,0.152598,-165.376096,-87.61249,157.317169
355658,-0.085763,-0.103075,0.167764,-163.638532,-87.529987,155.527288
355758,-0.088048,-0.097731,0.161439,-162.073257,-87.44935,153.908466
355858,-0.087051,-0.077364,0.136697,-160.813269,-87.382594,152.595731
355958,-0.087265,-0.059538,0.104753,-159.909273,-87.33053,151.639183
356058,-0.094143,-0.060366,0.078584,-159.343426,-87.282708,151.017166
356158,-0.095488,-0.059338,0.05704,-159.033035,-87.239631,150.650093
356258,-0.091052,-0.03589,0.041381,-158.801809,-87.212262,150.364812
356358,-0.086982,0.005827,0.032063,-158.495606,-87.209054,150.006804
356458,-0.082857,0.037231,0.021301,-158.167406,-87.224757,149.629165
356558,-0.076421,0.046874,0.016269,-157.843013,-87.246561,149.259077
356658,-0.074573,0.050995,0.01964,-157.454881,-87.2697,148.826297
356758,-0.074413,0.044595,0.030822,-156.964491,-87.286813,148.291308
356858,-0.074815,0.028461,0.041601,-156.425393,-87.292759,147.707392
356958,-0.072088,0.013169,0.040971,-155.964152,-87.290589,147.203045
357058,-0.061057,0.009827,0.037103,-155.55588,-87.287398,146.758112
357158,-0.025634,0.02713,0.028856,-155.129845,-87.295035,146.31578
357258,0.032728,0.07432,0.018794,-154.530617,-87.329408,145.733616
357358,0.085666,0.137159,0.003605,-153.707736,-87.39964,144.958023
357458,0.110583,0.212687,-0.009144,-152.520148,-87.511159,143.831779
357558,0.111223,0.305131,-0.0253,-150.795762,-87.672429,142.168798
357658,0.07981,0.385944,-0.043703,-148.436226,-87.876452,139.852421
357758,0.028431,0.448191,-0.058482,-145.216964,-88.110437,136.646667
357858,-0.000968,0.483578,-0.068175,-140.831578,-88.35613,132.257813
357958,0.011864,0.496864,-0.074054,-134.823469,-88.596636,126.253531
358058,0.053112,0.502302,-0.087103,-126.541166,-88.823391,117.998693
358158,0.086123,0.421532,-0.101966,-117.309787,-89.001956,108.814109
358258,0.07963,0.231234,-0.121716,-111.667115,-89.121117,103.215394
358358,0.043619,0.021422,-0.146013,-113.04966,-89.203757,104.622155
358458,-0.005563,-0.14437,-0.154053,-121.497643,-89.244956,113.06679
358558,-0.037692,-0.274529,-0.154236,-134.866662,-89.217436,126.414455
358658,-0.074143,-0.366991,-0.160249,-148.815834,-89.108309,140.321626
358758,-0.088416,-0.378609,-0.162482,-159.466442,-88.953187,150.922036
358858,-0.09415,-0.298106,-0.154448,-166.476483,-88.815586,157.878346
358958,-0.102282,-0.159643,-0.131266,-170.872709,-88.740612,162.21579
359058,-0.128908,-0.020951,-0.099548,-173.624638,-88.736362,164.893276
359158,-0.166676,0.108231,-0.07159,-175.384926,-88.801927,166.557151
359258,-0.186194,0.189689,-0.055788,-176.763211,-88.912387,167.827642
359358,-0.17952,0.189301,-0.069826,-178.909191,-89.022048,169.869686
359458,-0.163225,0.139281,-0.0632,178.720113,-89.101455,172.145735
359558,-0.130856,0.087248,-0.032733,177.240729,-89.15032,173.548898
359658,-0.103097,0.050849,0.014818,177.61298,-89.179315,173.11617
359758,-0.092918,-0.00398,0.065665,-179.873958,-89.177262,170.548312
359858,-0.092151,-0.102401,0.101925,-176.199777,-89.116072,166.819678
359958,-0.07975,-0.196632,0.105198,-173.279191,-88.997804,163.85179
360058,-0.037714,-0.250894,0.081861,-171.862448,-88.848672,162.411987
360158,0.008545,-0.268101,0.042061,-171.805091,-88.692678,162.358304
360258,0.040429,-0.282711,-0.004004,-172.809229,-88.53192,163.384667
360358,0.050416,-0.300634,-0.039101,-174.347339,-88.362677,164.950961
360458,0.047403,-0.309789,-0.053834,-175.874993,-88.187849,166.505167
360558,0.035335,-0.303908,-0.050689,-177.081257,-88.015213,167.731002
360658,0.013006,-0.279449,-0.040119,-177.931478,-87.85562,168.587845
360758,-0.017124,-0.235648,-0.023863,-178.432057,-87.720469,169.077557
360858,-0.046505,-0.183989,-0.007749,-178.658623,-87.614556,169.276184
360958,-0.071163,-0.16145,0.001854,-178.748451,-87.521408,169.323789
361058,-0.081708,-0.14759,0.002389,-178.829215,-87.436188,169.356242
361158,-0.091197,-0.152209,-0.008145,-179.043552,-87.348424,169.516934
361258,-0.085565,-0.183253,-0.019668,-179.385316,-87.242916,169.808403
361358,-0.07202,-0.236078,-0.028471,-179.79978,-87.107078,170.180426
361458,-0.039517,-0.270451,-0.038224,179.734811,-86.951397,170.622119
361558,-0.007756,-0.283627,-0.047467,179.23804,-86.787935,171.113474
361658,0.019198,-0.276645,-0.046578,178.811066,-86.62828,171.550429
361758,0.036482,-0.263769,-0.044192,178.451466,-86.47588,171.929848
361858,0.044296,-0.256553,-0.036309,178.19489,-86.327643,172.210563
361958,0.055909,-0.239718,-0.026537,178.044324,-86.189189,172.391731
362058,0.061709,-0.212348,-0.015898,177.988649,-86.066622,172.481124
362158,0.069578,-0.178782,0.001449,178.072414,-85.963646,172.435236
362258,0.067654,-0.155424,0.019539,178.289097,-85.874395,172.254938
362358,0.052807,-0.145968,0.037611,178.627233,-85.790802,171.944263
362458,0.040616,-0.127625,0.057316,179.09355,-85.717807,171.497967
362558,0.035814,-0.096002,0.075934,179.680153,-85.662758,170.928197
362658,0.031292,-0.070119,0.095115,-179.606307,-85.622056,170.228445
362758,0.026933,-0.064527,0.112656,-178.777746,-85.583705,169.410756
362858,0.033144,-0.063802,0.128482,-177.843672,-85.544546,168.490736
362958,0.057396,-0.05876,0.139594,-176.829351,-85.506783,167.504099
363058,0.080512,-0.057692,0.145655,-175.774519,-85.468043,166.490058
363158,0.080111,-0.045301,0.158267,-174.639427,-85.43429,165.395225
363258,0.046934,-0.018648,0.176646,-173.388095,-85.412873,164.164673
363358,-0.014467,0.031549,0.198351,-171.981334,-85.416188,162.742881
363458,-0.085746,0.09046,0.222473,-170.373635,-85.447815,161.078554
363558,-0.147858,0.143558,0.2448,-168.54518,-85.503097,159.157141
363658,-0.177689,0.194457,0.255264,-166.526947,-85.580524,157.028343
363758,-0.152208,0.232901,0.246951,-164.405586,-85.674516,154.81093
363858,-0.081915,0.246442,0.220252,-162.315801,-85.774109,152.66578
363958,0.018143,0.24778,0.185528,-160.324996,-85.875097,150.677582
364058,0.097957,0.268329,0.154253,-158.365646,-85.988428,148.767013
364158,0.112615,0.293817,0.146539,-156.260752,-86.112109,146.719255
364258,0.111286,0.300347,0.157773,-153.910231,-86.230935,144.424875
364358,0.108966,0.305084,0.177585,-151.237682,-86.340142,141.806787
364458,0.103099,0.305568,0.189845,-148.313608,-86.437651,138.933627
364558,0.084086,0.273743,0.191334,-145.404894,-86.510073,136.065206
364658,0.050757,0.196362,0.167831,-143.026831,-86.546155,133.709405
364758,-0.02794,0.073922,0.115238,-141.771172,-86.540475,132.432833
364858,-0.122657,-0.076851,0.060707,-141.862906,-86.485414,132.451635
364958,-0.210511,-0.21577,0.015106,-143.105969,-86.383108,133.573472
365058,-0.281215,-0.317615,-0.002299,-144.96592,-86.237552,135.272977
365158,-0.299209,-0.356544,-0.020721,-147.00973,-86.075753,137.146697
365258,-0.257403,-0.326463,-0.050803,-148.954885,-85.933426,138.945876
365358,-0.156417,-0.241103,-0.102409,-150.739784,-85.844235,140.642679
365458,-0.017806,-0.141723,-0.171475,-152.489531,-85.82023,142.384039
365558,0.104604,-0.048994,-0.233715,-154.270996,-85.855792,144.227587
365658,0.202735,0.036868,-0.273062,-156.034229,-85.941277,146.109186
365758,0.27715,0.093507,-0.283802,-157.735781,-86.054861,147.971577
365858,0.325597,0.137364,-0.274321,-159.304402,-86.186011,149.728399
365958,0.350986,0.174136,-0.248433,-160.649125,-86.328725,151.275265
366058,0.345166,0.152599,-0.196501,-161.716651,-86.447905,152.540932
366158,0.300882,0.095675,-0.127677,-162.426293,-86.522577,153.422598
366258,0.250948,0.068172,-0.058285,-162.63938,-86.569789,153.778172
366358,0.201381,0.083759,-0.001232,-162.315682,-86.615661,153.567609
366458,0.15717,0.10797,0.044359,-161.509822,-86.666463,152.848728
366558,0.113378,0.128021,0.059683,-160.49488,-86.724579,151.89532
366658,0.056643,0.129089,0.041817,-159.64497,-86.78585,151.074665
366758,-0.01767,0.09111,0.015812,-159.199616,-86.83145,150.616534
366858,-0.099848,0.032816,-0.00596,-159.220421,-86.850157,150.578072
366958,-0.130884,-0.016129,-0.033301,-159.706126,-86.848118,150.987359
367058,-0.112409,-0.034148,-0.066447,-160.568335,-86.842574,151.784291
367158,-0.062788,-0.045724,-0.105064,-161.816961,-86.837094,152.996687
367258,-0.017428,-0.054197,-0.135285,-163.359482,-86.830553,154.529457
367358,0.011061,-0.053893,-0.152642,-165.050343,-86.824515,156.22716
367458,0.029761,-0.055372,-0.153408,-166.733522,-86.815008,157.927931
367558,0.043053,-0.051765,-0.15054,-168.360974,-86.804455,159.580558
367658,0.056523,-0.048698,-0.138214,-169.838659,-86.791817,161.090965
367758,0.056131,-0.050383,-0.123014,-171.153215,-86.774751,162.437817
367858,0.048914,-0.049157,-0.103668,-172.261269,-86.755203,163.573758
367958,0.028661,-0.052641,-0.078735,-173.12217,-86.730772,164.450586
368058,-0.0029,-0.054301,-0.045906,-173.664551,-86.702639,164.990324
368158,-0.042336,-0.054021,-0.014322,-173.909786,-86.672508,165.209843
368258,-0.078373,-0.047648,0.017168,-173.858513,-86.644075,165.111715
368358,-0.10262,-0.045479,0.044562,-173.555797,-86.615152,164.747827
368458,-0.109409,-0.060061,0.062764,-173.105556,-86.576595,164.232279
368558,-0.103326,-0.08483,0.071079,-172.614452,-86.523135,163.679292
368658,-0.087299,-0.099735,0.069871,-172.15977,-86.461057,163.17199
368758,-0.060243,-0.099854,0.053989,-171.849286,-86.400005,162.824688
368858,-0.037479,-0.104265,0.037129,-171.69159,-86.337784,162.643554
368958,-0.008786,-0.101179,0.020216,-171.666248,-86.278736,162.611536
369058,0.000793,-0.074181,0.007796,-171.708755,-86.236064,162.653042
369158,-0.008408,-0.050626,0.004471,-171.75433,-86.20706,162.692382
369258,-0.021425,-0.033843,0.003061,-171.797588,-86.187725,162.72197
369358,-0.041023,-0.017686,0.007868,-171.790682,-86.177193,162.690077
369458,-0.062505,-0.015836,0.014449,-171.737664,-86.167199,162.599683
369558,-0.056837,-0.022873,0.020918,-171.635408,-86.152698,162.463242
369658,-0.044117,-0.018836,0.020668,-171.523335,-86.140517,162.324309
369758,-0.017815,-0.018755,0.012721,-171.463043,-86.129067,162.252413
369858,0.020412,-0.023159,0.006124,-171.441545,-86.115708,162.24138
369958,0.059144,-0.021225,-0.005988,-171.496055,-86.104503,162.328797
370058,0.098588,-0.029191,-0.022228,-171.671748,-86.09016,162.56036
370158,0.140326,-0.047033,-0.034509,-171.944024,-86.066666,162.912746
370258,0.189335,-0.043713,-0.046735,-172.280755,-86.04592,163.35795
370358,0.22524,-0.00254,-0.05449,-172.612431,-86.048996,163.81877
370458,0.245514,0.070475,-0.060115,-172.904693,-86.093841,164.251774
370558,0.263487,0.159473,-0.068134,-173.1732,-86.189756,164.67131
370658,0.26611,0.231124,-0.08158,-173.50467,-86.327246,165.155432
370758,0.246504,0.271939,-0.096391,-173.976294,-86.488753,165.768666
370858,0.21544,0.29746,-0.109544,-174.623275,-86.665263,166.539628
370958,0.174576,0.355772,-0.118145,-175.414758,-86.874991,167.431686
371058,0.123668,0.461246,-0.133815,-176.461301,-87.144898,168.549681
371158,0.087489,0.558942,-0.151694,-177.938415,-87.46995,170.077614
371258,0.093723,0.589769,-0.172076,179.84193,-87.810448,172.351838
371358,0.136044,0.610162,-0.185192,176.574018,-88.1576,175.698669
371458,0.196925,0.588852,-0.177129,172.074358,-88.484363,-179.687957
371558,0.284041,0.48322,-0.160049,166.342499,-88.740143,-173.792659
371658,0.306612,0.335539,-0.151337,159.727089,-88.899436,-167.001085
371758,0.176366,0.155177,-0.130532,154.261857,-88.952309,-161.434722
371858,0.022156,-0.048237,-0.101878,152.123181,-88.901322,-159.283852
371958,-0.03926,-0.256298,-0.079839,153.367326,-88.749705,-160.551653
372058,-0.043222,-0.408074,-0.075292,155.885461,-88.519714,-163.096218
372158,-0.024088,-0.415652,-0.09255,157.47924,-88.279768,-164.705458
372258,-0.0473,-0.281473,-0.091101,157.841768,-88.110513,-165.096435
372358,-0.130731,-0.080921,-0.068834,157.18359,-88.052325,-164.514127
372458,-0.230357,0.129418,-0.041692,155.482798,-88.110336,-162.945879
372558,-0.312753,0.277909,-0.035122,152.511306,-88.244236,-160.153751
372658,-0.386056,0.326278,-0.033979,148.542253,-88.396912,-156.405957
372758,-0.407693,0.255114,-0.031847,144.73687,-88.508301,-152.834544
372858,-0.368642,0.147889,-0.005574,142.42085,-88.573796,-150.730667
372958,-0.320929,0.041187,0.039532,142.356277,-88.605474,-150.851502
373058,-0.282848,-0.072535,0.091295,144.912648,-88.602178,-153.572108
373158,-0.245902,-0.184781,0.119507,149.377708,-88.549506,-158.180748
373258,-0.184791,-0.242382,0.109711,153.895046,-88.456264,-162.806747
