SampleTimeFine,Gyr_X,Gyr_Y,Gyr_Z,Roll,Pitch,Yaw
324109,0.017146,0.033526,-0.058084,8.203953,-83.621957,-8.15386
324209,0.032949,0.02943,-0.056773,8.545526,-83.605737,-8.470234
324309,0.039943,0.03344,-0.056612,8.892466,-83.587839,-8.785937
324409,0.032867,0.038471,-0.054245,9.188053,-83.565084,-9.064717
324509,0.021009,0.044139,-0.053356,9.474019,-83.538414,-9.333967
324609,0.00888,0.050301,-0.055035,9.749729,-83.507574,-9.600162
324709,-0.004194,0.04822,-0.054969,10.002766,-83.477731,-9.859216
324809,-0.011488,0.039447,-0.054003,10.250847,-83.453116,-10.11798
324909,-0.012938,0.02086,-0.05446,10.514812,-83.436797,-10.388771
325009,-0.014184,0.021582,-0.052086,10.769934,-83.422183,-10.654376
325109,-0.014906,0.027431,-0.048057,10.99655,-83.403246,-10.889394
325209,-0.02401,0.038267,-0.044089,11.187532,-83.379238,-11.094054
325309,-0.034543,0.039319,-0.036858,11.334191,-83.355707,-11.261639
325409,-0.042383,0.028984,-0.035983,11.481719,-83.336409,-11.431671
325509,-0.031517,0.007319,-0.038002,11.662711,-83.329083,-11.630503
325609,-0.008231,-0.003092,-0.046045,11.902471,-83.326929,-11.877247
325709,0.018025,-0.002602,-0.059189,12.222044,-83.321648,-12.185626
325809,0.023493,0.007317,-0.069847,12.577336,-83.309814,-12.531221
325909,0.02149,0.014172,-0.075514,12.956076,-83.292683,-12.897717
326009,0.026483,0.014924,-0.07525,13.331488,-83.275318,-13.259891
326109,0.026338,0.016679,-0.078264,13.711624,-83.255846,-13.62822
326209,0.021443,0.015911,-0.075515,14.078415,-83.237449,-13.985652
326309,-0.003231,0.010282,-0.063265,14.38074,-83.223714,-14.2915
326409,-0.005938,0.009668,-0.065549,14.694742,-83.209737,-14.609395
326509,0.012727,0.004736,-0.061843,15.005405,-83.198985,-14.914124
326609,0.025771,-0.005058,-0.054413,15.301104,-83.194408,-15.195663
326709,0.042193,-0.005174,-0.053147,15.599107,-83.189896,-15.470377
326809,0.054713,0.002513,-0.054637,15.897605,-83.180896,-15.739888
326909,0.062331,0.007435,-0.059525,16.216891,-83.168288,-16.025279
327009,0.074742,0.019854,-0.05777,16.516487,-83.149055,-16.284331
327109,0.094105,0.037782,-0.055679,16.786835,-83.119714,-16.503147
327209,0.105124,0.026595,-0.056067,17.08005,-83.096318,-16.738281
327309,0.111217,0.016832,-0.058198,17.396458,-83.077769,-16.993783
327409,0.112167,0.01484,-0.06422,17.741137,-83.059147,-17.277514
327509,0.104626,-0.008624,-0.057222,18.082545,-83.054198,-17.562185
327609,0.098513,-0.016287,-0.04902,18.394313,-83.054726,-17.820733
327709,0.102268,0.000231,-0.044069,18.661122,-83.047005,-18.031888
327809,0.110172,0.018762,-0.047255,18.917984,-83.028528,-18.228473
327909,0.112288,0.021118,-0.052158,19.192921,-83.007726,-18.442063
328009,0.117704,0.021059,-0.054682,19.480734,-82.986361,-18.665537
328109,0.121488,0.007297,-0.048804,19.765095,-82.973414,-18.88337
328209,0.117585,-0.016692,-0.036321,20.03005,-82.975694,-19.083894
328309,0.114174,-0.027657,-0.023685,20.255661,-82.986253,-19.246753
328409,0.12532,-0.02142,-0.021137,20.466923,-82.993891,-19.388714
328509,0.141345,-0.014372,-0.033172,20.72869,-82.995253,-19.572302
328609,0.145667,-0.008017,-0.050045,21.055866,-82.989642,-19.819303
328709,0.135305,-0.000881,-0.060088,21.408181,-82.977963,-20.097633
328809,0.105256,-0.001195,-0.061725,21.750035,-82.965884,-20.382768
328909,0.066243,-0.02116,-0.052112,22.062039,-82.966275,-20.66039
329009,0.038073,-0.047823,-0.037369,22.341829,-82.983819,-20.92181
329109,0.026034,-0.067649,-0.019773,22.575857,-83.015563,-21.144062
329209,0.026403,-0.078598,-0.013686,22.805681,-83.054323,-21.361887
329309,0.029098,-0.07521,-0.007935,23.00829,-83.092493,-21.550709
329409,0.030661,-0.05769,-0.010355,23.191684,-83.120808,-21.719218
329509,0.037049,-0.030442,-0.005874,23.308894,-83.135769,-21.817415
329609,0.052815,-0.026938,-0.005922,23.428984,-83.148859,-21.909422
329709,0.061623,-0.03027,-0.006211,23.562455,-83.163656,-22.009725
329809,0.066784,-0.043096,-0.007939,23.731583,-83.18475,-22.142958
329909,0.072406,-0.063128,-0.014065,23.970569,-83.214881,-22.34343
330009,0.078137,-0.076122,-0.020608,24.269641,-83.25013,-22.601026
330109,0.087402,-0.068949,-0.024351,24.579039,-83.280578,-22.863655
330209,0.096612,-0.047605,-0.024612,24.853337,-83.299648,-23.085692
330309,0.097429,-0.027119,-0.021297,25.072859,-83.308766,-23.251946
330409,0.078027,-0.002481,-0.018166,25.215958,-83.305805,-23.352637
330509,0.048058,0.013135,-0.005019,25.251052,-83.297968,-23.361942
330609,0.025365,0.008222,0.006111,25.23397,-83.295414,-23.331917
330709,0.013428,-0.019865,0.010491,25.249519,-83.308449,-23.341515
330809,0.013761,-0.051102,0.006885,25.347261,-83.33685,-23.433658
330909,0.020687,-0.07794,0.001428,25.530751,-83.377652,-23.608166
331009,0.02456,-0.081578,-0.005076,25.756166,-83.418717,-23.822624
331109,0.016991,-0.064561,-0.009869,25.964322,-83.44971,-24.024079
331209,0.009284,-0.047964,-0.010669,26.1372,-83.471868,-24.194333
331309,0.00903,-0.039922,-0.007821,26.280475,-83.490575,-24.334857
331409,0.000151,-0.034369,-0.000994,26.376023,-83.508154,-24.432508
331509,-0.018168,-0.03822,0.008166,26.428918,-83.530023,-24.497731
331609,-0.036617,-0.052112,0.01812,26.457998,-83.56156,-24.549622
331709,-0.050404,-0.075374,0.026467,26.4946,-83.607156,-24.617048
331809,-0.06562,-0.09705,0.033133,26.542623,-83.665563,-24.704739
331909,-0.068885,-0.111962,0.035738,26.612871,-83.732267,-24.816667
332009,-0.059384,-0.118003,0.035418,26.706399,-83.801958,-24.946529
332109,-0.041316,-0.114919,0.032352,26.819987,-83.869251,-25.086136
332209,-0.023784,-0.101757,0.029582,26.927563,-83.929069,-25.209573
332309,-0.020139,-0.078514,0.026371,26.997567,-83.976166,-25.293113
332409,-0.037972,-0.054666,0.021769,27.02151,-84.009891,-25.340602
332509,-0.064335,-0.052308,0.019324,27.036752,-84.041777,-25.394526
332609,-0.072888,-0.054641,0.02618,27.019811,-84.076634,-25.421028
332709,-0.086205,-0.076041,0.032979,27.016044,-84.124173,-25.46846
332809,-0.114206,-0.093197,0.039701,27.007092,-84.182206,-25.526824
332909,-0.144931,-0.083465,0.04209,26.944092,-84.235881,-25.548567
333009,-0.158329,-0.072656,0.039937,26.856116,-84.283468,-25.55293
333109,-0.153499,-0.067706,0.042655,26.743352,-84.32922,-25.529603
333209,-0.135994,-0.06257,0.042684,26.625905,-84.372347,-25.49149
333309,-0.115589,-0.062253,0.040484,26.529545,-84.414748,-25.462817
333409,-0.093696,-0.058194,0.034313,26.466544,-84.453498,-25.455053
333509,-0.07869,-0.049393,0.030438,26.408773,-84.486752,-25.443897
333609,-0.071806,-0.035528,0.030422,26.317672,-84.512889,-25.395287
333709,-0.0749,-0.043863,0.032443,26.235266,-84.543821,-25.357192
333809,-0.075503,-0.067107,0.037956,26.18393,-84.588093,-25.350659
333909,-0.068413,-0.090509,0.041085,26.18224,-84.645183,-25.389921
334009,-0.058731,-0.102703,0.045021,26.198196,-84.709531,-25.441341
334109,-0.05766,-0.095158,0.043832,26.201576,-84.76969,-25.47952
334209,-0.065512,-0.0667,0.03719,26.159232,-84.813534,-25.476305
334309,-0.081556,-0.031764,0.033204,26.032292,-84.838398,-25.397375
334409,-0.098516,-0.01623,0.026932,25.887216,-84.853673,-25.309994
334509,-0.116779,-0.022141,0.019598,25.789508,-84.870153,-25.280679
334609,-0.122672,-0.036553,0.017946,25.737721,-84.89366,-25.300864
334709,-0.113543,-0.050978,0.024575,25.693027,-84.926265,-25.322923
334809,-0.097151,-0.058855,0.027596,25.662215,-84.963692,-25.349495
334909,-0.083688,-0.059606,0.029965,25.627314,-85.002096,-25.364222
335009,-0.072813,-0.053873,0.032862,25.564895,-85.038256,-25.345071
335109,-0.067855,-0.036381,0.034817,25.442895,-85.065849,-25.263264
335209,-0.073103,-0.02155,0.033271,25.283679,-85.085367,-25.147121
335309,-0.088754,-0.015609,0.031824,25.106291,-85.101422,-25.021745
335409,-0.098078,-0.022484,0.033109,24.934325,-85.121323,-24.907181
335509,-0.101263,-0.030555,0.030913,24.795807,-85.144862,-24.828029
335609,-0.098084,-0.038586,0.028126,24.698175,-85.171892,-24.788094
335709,-0.088493,-0.040517,0.021499,24.651995,-85.198332,-24.794286
335809,-0.079731,-0.041125,0.012645,24.667622,-85.222968,-24.857467
335909,-0.069642,-0.036867,0.00791,24.706794,-85.244249,-24.938472
336009,-0.063652,-0.025667,0.006184,24.728253,-85.259286,-24.998253
336109,-0.064965,-0.021799,0.007244,24.731165,-85.272565,-25.040172
336209,-0.072113,-0.015821,0.008611,24.703927,-85.283064,-25.055941
336309,-0.082455,-0.015857,0.011831,24.650313,-85.294356,-25.051183
336409,-0.090348,-0.018925,0.015276,24.578998,-85.308072,-25.033199
336509,-0.088687,-0.028532,0.02118,24.498648,-85.328199,-25.005195
336609,-0.082036,-0.036935,0.026716,24.410632,-85.354018,-24.965677
336709,-0.073233,-0.039143,0.027057,24.331237,-85.381061,-24.92975
336809,-0.060705,-0.035548,0.026873,24.249042,-85.406176,-24.883818
336909,-0.055306,-0.033772,0.025188,24.17502,-85.429963,-24.842982
337009,-0.058268,-0.03293,0.026717,24.086081,-85.453668,-24.788884
337109,-0.065121,-0.044223,0.031329,23.995157,-85.484357,-24.736733
337209,-0.072598,-0.052483,0.034843,23.899955,-85.520183,-24.684592
337309,-0.073092,-0.053134,0.034623,23.806788,-85.556291,-24.634783
337409,-0.072922,-0.056122,0.032653,23.73509,-85.5935,-24.606421
337509,-0.070456,-0.058825,0.027048,23.710757,-85.630827,-24.624155
337609,-0.064497,-0.054181,0.019523,23.727883,-85.663975,-24.680049
337709,-0.06117,-0.052485,0.01172,23.796716,-85.694422,-24.785888
337809,-0.057526,-0.055536,0.00427,23.930552,-85.724719,-24.954815
337909,-0.04853,-0.058097,0.001154,24.101694,-85.755592,-25.155974
338009,-0.034131,-0.05069,-0.002128,24.28339,-85.781772,-25.359437
338109,-0.033227,-0.048533,-0.004996,24.481425,-85.806098,-25.578758
338209,-0.046681,-0.05639,-0.001037,24.67167,-85.83541,-25.797991
338309,-0.064647,-0.067194,0.003922,24.854789,-85.871479,-26.020388
338409,-0.071502,-0.070352,0.01443,24.971829,-85.91168,-26.180461
338509,-0.074295,-0.066759,0.024945,25.00048,-85.952534,-26.253516
338609,-0.066861,-0.061648,0.031937,24.964957,-85.992421,-26.257967
338709,-0.059439,-0.062743,0.03084,24.945505,-86.032612,-26.274267
338809,-0.051674,-0.067746,0.025985,24.984887,-86.074233,-26.345084
338909,-0.047432,-0.081966,0.023762,25.095762,-86.122695,-26.485121
339009,-0.049661,-0.110246,0.024081,25.309576,-86.185873,-26.7296
339109,-0.055184,-0.150936,0.023729,25.684881,-86.269922,-27.139072
339209,-0.05138,-0.171734,0.023905,26.161467,-86.364518,-27.647811
339309,-0.034505,-0.163976,0.020254,26.672016,-86.453903,-28.180841
339409,-0.013609,-0.144921,0.014521,27.187453,-86.531753,-28.706732
339509,0.006184,-0.124727,0.002606,27.749493,-86.595878,-29.267919
339609,0.017789,-0.115261,-0.012416,28.425521,-86.6508,-29.936607
339709,0.016098,-0.125293,-0.027681,29.304505,-86.706001,-30.809537
339809,0.007189,-0.145537,-0.032299,30.352021,-86.769097,-31.85634
339909,-0.009463,-0.164126,-0.026389,31.479507,-86.841929,-32.992725
340009,-0.032389,-0.17818,-0.010505,32.58474,-86.925162,-34.119892
340109,-0.048285,-0.179989,0.009198,33.573223,-87.014282,-35.139172
340209,-0.058505,-0.176439,0.026375,34.433873,-87.106332,-36.036229
340309,-0.067196,-0.164799,0.034548,35.190102,-87.194914,-36.833649
340409,-0.064385,-0.153083,0.034334,35.917464,-87.277435,-37.6005
340509,-0.061641,-0.14908,0.031167,36.694752,-87.356534,-38.415711
340609,-0.060755,-0.141674,0.023655,37.539943,-87.429101,-39.298341
340709,-0.07763,-0.127515,0.025398,38.292129,-87.495314,-40.097508
340809,-0.092819,-0.118892,0.033321,38.921832,-87.560064,-40.782756
340909,-0.096364,-0.137492,0.038335,39.696476,-87.634505,-41.615081
341009,-0.090411,-0.16509,0.040787,40.758515,-87.721345,-42.731589
341109,-0.080803,-0.180987,0.043624,42.040114,-87.815131,-44.062257
341209,-0.079045,-0.181912,0.039705,43.493717,-87.906502,-45.56397
341309,-0.072638,-0.173868,0.03562,45.038686,-87.991427,-47.153353
341409,-0.069603,-0.165938,0.02655,46.72958,-88.067811,-48.886932
341509,-0.07018,-0.160828,0.023771,48.523653,-88.139202,-50.723996
341609,-0.076578,-0.159809,0.031325,50.353557,-88.211555,-52.600494
341709,-0.083176,-0.165306,0.050462,52.191969,-88.292501,-54.489198
341809,-0.086479,-0.179831,0.07492,54.159892,-88.387714,-56.509264
341909,-0.08411,-0.184931,0.099591,56.17092,-88.494118,-58.57099
342009,-0.077223,-0.187109,0.111266,58.392074,-88.604678,-60.838863
342109,-0.06671,-0.188303,0.106991,61.080075,-88.710897,-63.567591
342209,-0.052246,-0.183488,0.092173,64.311856,-88.804852,-66.831842
342309,-0.037194,-0.173151,0.076538,67.981296,-88.883785,-70.525118
342409,-0.028117,-0.167555,0.071111,72.080255,-88.953488,-74.642692
342509,-0.027434,-0.164435,0.077702,76.584986,-89.020345,-79.165612
342609,-0.032077,-0.155388,0.083844,81.358115,-89.083,-83.959532
342709,-0.034229,-0.148431,0.085514,86.518166,-89.13909,-89.141574
342809,-0.029689,-0.154734,0.080712,92.591209,-89.184319,-95.234043
342909,-0.025656,-0.148455,0.069366,98.958365,-89.213487,-101.6183
343009,-0.021369,-0.136478,0.052681,105.046543,-89.224839,-107.721072
343109,-0.021591,-0.125055,0.039566,110.592109,-89.222537,-113.281309
343209,-0.023406,-0.113491,0.033186,115.502582,-89.21262,-118.207436
343309,-0.023809,-0.094302,0.038542,119.683591,-89.205236,-122.404265
343409,-0.020175,-0.086527,0.040709,123.55346,-89.197205,-126.287845
343509,-0.008523,-0.096938,0.038351,127.61082,-89.180877,-130.35227
343609,0.000775,-0.117487,0.039702,132.127464,-89.153333,-134.870725
343709,-0.004278,-0.134033,0.042596,136.833838,-89.115138,-139.581861
343809,-0.017902,-0.139964,0.052211,141.513345,-89.072298,-144.273977
343909,-0.02571,-0.124148,0.065535,145.82163,-89.035638,-148.599333
344009,-0.021984,-0.103375,0.071075,149.608615,-89.005813,-152.401215
344109,-0.006908,-0.096857,0.067774,152.980181,-88.974359,-155.779011
344209,0.010488,-0.106209,0.053264,155.858785,-88.931276,-158.653841
344309,0.035275,-0.123604,0.03649,158.25283,-88.872892,-161.029876
344409,0.059198,-0.149091,0.021871,160.278989,-88.796174,-163.024304
344509,0.061386,-0.164461,0.015317,162.024963,-88.708623,-164.737293
344609,0.048442,-0.162881,0.013758,163.496089,-88.620672,-166.182844
344709,0.034893,-0.153497,0.009687,164.640185,-88.536521,-167.30909
344809,0.030673,-0.134433,0.004051,165.440439,-88.461639,-168.093839
344909,0.034332,-0.118457,-0.001853,165.973456,-88.394561,-168.609187
345009,0.043962,-0.100938,-0.004259,166.342772,-88.336791,-168.955264
345109,0.056222,-0.092695,-0.001789,166.704899,-88.283879,-169.287128
345209,0.066134,-0.087474,0.007643,167.201373,-88.235029,-169.747725
345309,0.069615,-0.077292,0.016828,167.79785,-88.192884,-170.306383
345409,0.064464,-0.06595,0.030099,168.556214,-88.158453,-171.029969
345509,0.047282,-0.071508,0.039183,169.451574,-88.121557,-171.900489
345609,0.024954,-0.084138,0.03895,170.332095,-88.077078,-172.768993
345709,0.010998,-0.095602,0.033105,171.097447,-88.025169,-173.530304
345809,0.011224,-0.106364,0.02237,171.675921,-87.965947,-174.104542
345909,0.012617,-0.105973,0.007777,171.994262,-87.905608,-174.41772
346009,0.0151,-0.085395,-0.004313,172.070251,-87.855952,-174.48698
346109,0.01999,-0.065261,-0.00646,172.07244,-87.817556,-174.479582
346209,0.027524,-0.048294,-0.000825,172.127595,-87.789236,-174.520859
346309,0.037996,-0.03588,0.010737,172.33179,-87.768854,-174.70527
346409,0.038177,-0.026847,0.023268,172.697602,-87.7545,-175.051305
346509,0.033204,-0.025691,0.036931,173.251481,-87.741652,-175.5884
346609,0.022358,-0.045562,0.047148,173.969988,-87.717909,-176.296475
346709,0.010101,-0.069482,0.04823,174.713135,-87.680243,-177.036259
346809,-0.004614,-0.086129,0.046488,175.418,-87.632627,-177.746201
346909,-0.014814,-0.088851,0.040752,176.013463,-87.582897,-178.352529
347009,-0.024597,-0.079553,0.038335,176.539209,-87.538156,-178.89472
347109,-0.025561,-0.062233,0.032502,176.956853,-87.502953,-179.329282
347209,-0.018521,-0.048164,0.025353,177.265458,-87.475476,-179.650673
347309,-0.009662,-0.035137,0.019634,177.491799,-87.455237,-179.884641
347409,0.003558,-0.02335,0.017663,177.691083,-87.441659,179.916062
347509,0.008879,-0.016066,0.016295,177.870676,-87.432191,179.739532
347609,0.004997,-0.014139,0.017734,178.064396,-87.423834,179.546639
347709,-0.005912,-0.010757,0.018947,178.26475,-87.417411,179.340848
347809,-0.015485,-0.013458,0.016984,178.434657,-87.409383,179.160044
347909,-0.022535,-0.018727,0.014954,178.575416,-87.398291,179.004372
348009,-0.02529,-0.017454,0.015968,178.72568,-87.38793,178.837603
348109,-0.026866,-0.015064,0.018496,178.904819,-87.37895,178.641023
348209,-0.025342,-0.016876,0.020608,179.110288,-87.368927,178.418961
348309,-0.029643,-0.01548,0.024847,179.364172,-87.359697,178.145965
348409,-0.031918,-0.01182,0.024072,179.60501,-87.352509,177.884721
348509,-0.038857,-0.011383,0.018698,179.773954,-87.345515,177.691464
348609,-0.041829,-0.007538,0.01047,179.838483,-87.340696,177.601023
348709,-0.046737,-0.001007,0.001264,179.785993,-87.339609,177.624903
348809,-0.057069,-0.004313,-0.005501,179.644215,-87.336613,177.732236
348909,-0.07509,-0.01138,-0.010657,179.429716,-87.329539,177.902031
349009,-0.088148,-0.017482,-0.011058,179.204996,-87.318948,178.074576
349109,-0.10561,-0.033282,-0.003834,179.063261,-87.299355,178.154043
349209,-0.115741,-0.046587,0.007339,179.054986,-87.272255,178.094105
349309,-0.106227,-0.046615,0.017372,179.171454,-87.245238,177.914749
349409,-0.096096,-0.049976,0.0237,179.366158,-87.216325,177.662883
349509,-0.083078,-0.044035,0.024221,179.569505,-87.190782,177.409832
349609,-0.061552,-0.029859,0.018224,179.710966,-87.173311,177.23109
349709,-0.05019,-0.023786,0.008958,179.749811,-87.159288,177.161608
349809,-0.051441,-0.031517,-0.006113,179.61481,-87.140796,177.265467
349909,-0.05209,-0.041487,-0.02076,179.315373,-87.116504,177.533601
350009,-0.055695,-0.04235,-0.033874,178.870939,-87.091522,177.944855
350109,-0.057235,-0.03714,-0.047024,178.284211,-87.069159,178.497714
350209,-0.070881,-0.029268,-0.058971,177.562069,-87.050741,179.178346
350309,-0.087835,-0.026732,-0.067421,176.744081,-87.033074,179.945231
350409,-0.107972,-0.026653,-0.067926,175.918408,-87.014878,-179.29173
350509,-0.129452,-0.020492,-0.066732,175.097435,-86.999699,-178.545712
350609,-0.14107,-0.011598,-0.05942,174.34752,-86.989459,-177.877504
350709,-0.148333,0.002282,-0.048358,173.701442,-86.987372,-177.317433
350809,-0.142944,0.020832,-0.039019,173.136485,-86.996158,-176.835493
350909,-0.129275,0.050796,-0.029117,172.642412,-87.022462,-176.416684
351009,-0.11081,0.087869,-0.024017,172.151375,-87.070036,-175.990317
351109,-0.088199,0.117207,-0.018493,171.672683,-87.134528,-175.563342
351209,-0.070091,0.138953,-0.016394,171.169329,-87.211346,-175.101296
351309,-0.061902,0.140627,-0.01409,170.667912,-87.289123,-174.63651
351409,-0.065951,0.11561,-0.017643,170.145439,-87.352227,-174.152987
351509,-0.068975,0.086796,-0.022036,169.607668,-87.398429,-173.655905
351609,-0.072284,0.071022,-0.026573,169.0304,-87.435055,-173.1212
351709,-0.083312,0.047265,-0.029504,168.454778,-87.457771,-172.594483
351809,-0.09225,0.009914,-0.031516,167.939695,-87.45909,-172.133497
351909,-0.094501,-0.014307,-0.033104,167.470464,-87.446497,-171.719695
352009,-0.092064,-0.015788,-0.03016,167.048006,-87.433324,-171.351303
352109,-0.081918,-0.004297,-0.026871,166.642732,-87.426891,-170.994277
352209,-0.038829,0.049702,0.000128,166.437569,-87.454096,-170.812823
352309,-0.089837,0.026502,-0.029106,165.903289,-87.464334,-170.331176
352409,0.001349,-0.00777,-0.003651,165.84724,-87.458969,-170.275923
352509,0.0293,-0.040109,-0.000115,165.953041,-87.43613,-170.366644
352609,0.02745,-0.071338,-0.009974,166.030361,-87.394561,-170.429918
352709,0.017047,-0.093473,-0.016714,166.08427,-87.339754,-170.475731
352809,-0.000934,-0.092915,-0.013889,166.157194,-87.285648,-170.550906
352909,-0.011433,-0.089154,-0.015665,166.189904,-87.233391,-170.591855
353009,-0.003276,-0.076088,-0.021693,166.121235,-87.187578,-170.526632
353109,0.01303,-0.061405,-0.021784,166.02248,-87.149916,-170.421923
353209,0.040972,-0.054123,-0.013736,166.011439,-87.117415,-170.38899
353309,0.078655,-0.048646,-0.006477,166.087336,-87.08897,-170.421469
353409,0.120416,-0.045096,0.002886,166.27853,-87.063784,-170.545421
353509,0.1597,-0.033786,0.004482,166.477536,-87.045094,-170.654651
353609,0.196266,-0.026745,0.000291,166.632582,-87.02975,-170.698883
353709,0.213444,-0.028049,-0.001895,166.776237,-87.013381,-170.721859
353809,0.218727,-0.042928,-0.004375,166.932316,-86.988379,-170.754255
353909,0.230338,-0.055026,-0.005149,167.114274,-86.956507,-170.805921
354009,0.230845,-0.07273,-0.010782,167.277012,-86.91401,-170.838066
354109,0.225299,-0.095366,-0.023606,167.354815,-86.857235,-170.788343
354209,0.227526,-0.095784,-0.031352,167.356809,-86.799259,-170.661419
354309,0.238603,-0.064633,-0.037375,167.238641,-86.757937,-170.407778
354409,0.249109,-0.04002,-0.032532,167.123341,-86.73096,-170.150965
354509,0.262123,-0.02765,-0.021954,167.093559,-86.712228,-169.972329
354609,0.269766,-0.026171,-0.007616,167.204746,-86.696153,-169.930508
354709,0.272564,-0.037726,0.002364,167.438344,-86.674872,-170.009698
354809,0.275451,-0.053239,0.010372,167.78045,-86.645867,-170.195938
354909,0.273903,-0.075742,0.012275,168.179827,-86.604402,-170.440458
355009,0.268277,-0.100618,0.014689,168.637478,-86.549143,-170.746616
355109,0.254274,-0.141959,0.011596,169.119836,-86.470145,-171.085604
355209,0.23537,-0.147353,0.013881,169.602458,-86.388177,-171.435757
355309,0.229066,-0.123717,0.018665,170.068142,-86.319847,-171.772599
355409,0.236516,-0.105243,0.022405,170.52866,-86.26214,-172.100024
355509,0.249522,-0.083282,0.027345,170.996562,-86.217137,-172.427414
355609,0.24871,-0.068871,0.022801,171.397245,-86.179726,-172.687936
355709,0.257634,-0.063558,0.014971,171.723859,-86.144548,-172.86913
355809,0.252891,-0.074095,0.00976,172.011754,-86.102902,-173.014271
355909,0.236731,-0.083974,0.009824,172.297068,-86.055607,-173.166133
356009,0.210364,-0.086438,0.012697,172.587735,-86.007082,-173.338539
356109,0.175053,-0.075223,0.02056,172.904233,-85.965443,-173.557151
356209,0.138118,-0.046637,0.036694,173.295616,-85.941087,-173.872081
356309,0.108274,-0.027262,0.046587,173.727135,-85.928249,-174.244421
356409,0.085359,-0.005013,0.056001,174.199582,-85.928456,-174.670977
356509,0.072766,0.017195,0.065285,174.722331,-85.941584,-175.155214
356609,0.063026,0.045393,0.071074,175.270191,-85.970776,-175.670223
356709,0.04889,0.053675,0.075946,175.852127,-86.004555,-176.227509
356809,0.044461,0.06252,0.078343,176.456016,-86.04308,-176.809339
356909,0.032777,0.060606,0.083853,177.111177,-86.080248,-177.449266
357009,0.009106,0.059392,0.085179,177.776177,-86.116254,-178.11264
357109,-0.010063,0.059759,0.088766,178.472578,-86.152012,-178.818479
357209,-0.027291,0.057576,0.097057,179.24332,-86.186018,-179.608701
357309,-0.030101,0.059431,0.09867,-179.959814,-86.220383,179.573309
357409,-0.02594,0.061178,0.101157,-179.123902,-86.254979,178.718615
357509,-0.015119,0.056955,0.098769,-178.288257,-86.286379,177.870442
357609,0.015961,0.03502,0.099123,-177.42582,-86.304397,177.013309
357709,0.046952,-0.016724,0.101088,-176.546973,-86.2919,176.157554
357809,0.077649,-0.079465,0.108123,-175.635845,-86.24239,175.28708
357909,0.107301,-0.137994,0.117011,-174.700363,-86.158107,174.409201
358009,0.130629,-0.173457,0.125816,-173.748808,-86.052136,173.528553
358109,0.157226,-0.190853,0.13178,-172.799077,-85.934877,172.664934
358209,0.186683,-0.194249,0.139943,-171.823348,-85.814066,171.792085
358309,0.207185,-0.19414,0.147465,-170.830679,-85.691618,170.913933
358409,0.22229,-0.183001,0.152473,-169.829773,-85.573887,170.0361
358509,0.225533,-0.137559,0.156981,-168.77996,-85.480119,169.110988
358609,0.200381,-0.094697,0.150072,-167.76808,-85.409962,168.209397
358709,0.178943,-0.060563,0.143265,-166.78896,-85.358555,167.328299
358809,0.169293,-0.03426,0.14403,-165.785558,-85.32052,166.417253
358909,0.144372,0.006619,0.122697,-164.881086,-85.307077,165.591116
359009,0.135422,0.052817,0.103716,-164.025566,-85.321077,164.808951
359109,0.14565,0.079726,0.085256,-163.229218,-85.351987,164.092058
359209,0.161409,0.074792,0.063148,-162.574041,-85.383227,163.525882
359309,0.158691,0.017348,0.042707,-162.176592,-85.386265,163.216717
359409,0.175358,-0.061068,0.022885,-162.074136,-85.349959,163.213088
359509,0.184397,-0.125676,0.005504,-162.220445,-85.281514,163.464258
359609,0.188376,-0.15766,-0.011607,-162.535857,-85.198535,163.887438
359709,0.194071,-0.171002,-0.020291,-162.917201,-85.109566,164.380122
359809,0.19185,-0.165974,-0.021696,-163.283329,-85.023361,164.856332
359909,0.173899,-0.164932,-0.012763,-163.587628,-84.936072,165.260234
360009,0.162931,-0.159011,0.005414,-163.764268,-84.849011,165.529744
360109,0.15609,-0.166222,0.029368,-163.805618,-84.754153,165.65954
360209,0.161313,-0.181512,0.051576,-163.735842,-84.647379,165.680803
360309,0.151964,-0.179559,0.070614,-163.558923,-84.538661,165.589111
360409,0.15038,-0.169983,0.084122,-163.295426,-84.433008,165.40955
360509,0.152331,-0.156786,0.089343,-162.987552,-84.333685,165.186528
360609,0.15132,-0.141249,0.0898,-162.660314,-84.242718,164.943457
360709,0.143521,-0.130315,0.086456,-162.345381,-84.158217,164.708251
360809,0.130835,-0.13402,0.080609,-162.082239,-84.07265,164.517787
360909,0.11392,-0.15064,0.069858,-161.918571,-83.979906,164.417584
361009,0.101427,-0.171537,0.059933,-161.851046,-83.877581,164.406865
361109,0.088626,-0.182824,0.043677,-161.891503,-83.772062,164.497391
361209,0.097607,-0.175105,0.035221,-161.953654,-83.672297,164.614953
361309,0.102887,-0.178592,0.02872,-162.046745,-83.571826,164.766731
361409,0.10077,-0.187391,0.011667,-162.231847,-83.469573,165.009934
361509,0.125002,-0.186725,0.000978,-162.4456,-83.369506,165.296023
361609,0.137019,-0.201926,-0.004316,-162.691264,-83.261969,165.621259
361709,0.141887,-0.201451,-0.014505,-162.970742,-83.156305,165.983456
361809,0.127994,-0.185124,-0.026483,-163.279973,-83.061428,166.367711
361909,0.123243,-0.167639,-0.03723,-163.607308,-82.977717,166.767562
362009,0.144121,-0.149518,-0.052221,-163.95722,-82.906153,167.202306
362109,0.163075,-0.144989,-0.06851,-164.354213,-82.839352,167.695533
362209,0.169897,-0.140053,-0.084839,-164.804248,-82.777386,168.246254
362309,0.178945,-0.136315,-0.098093,-165.29359,-82.718957,168.841925
362409,0.185766,-0.128077,-0.110313,-165.813886,-82.666261,169.472846
362509,0.201956,-0.105933,-0.11822,-166.327361,-82.626331,170.106338
362609,0.211608,-0.079116,-0.125382,-166.832761,-82.60166,170.737346
362709,0.208254,-0.055211,-0.127563,-167.322372,-82.589997,171.350556
362809,0.2005,-0.029655,-0.131492,-167.807655,-82.592533,171.954963
362909,0.190898,-0.007677,-0.136511,-168.300609,-82.607409,172.561581
363009,0.177982,0.012314,-0.145117,-168.823166,-82.633889,173.190597
363109,0.163565,0.016557,-0.14907,-169.371637,-82.662525,173.837411
363209,0.15761,0.014446,-0.151753,-169.941333,-82.689537,174.502178
363309,0.134446,0.014625,-0.159757,-170.563868,-82.716643,175.206827
363409,0.127053,0.041145,-0.162805,-171.190637,-82.758154,175.911456
363509,0.126116,0.079521,-0.161425,-171.794357,-82.820435,176.592266
363609,0.120737,0.100332,-0.160994,-172.397536,-82.893686,177.26936
363709,0.106387,0.110778,-0.160666,-173.014579,-82.972046,177.952064
363809,0.079547,0.141289,-0.156682,-173.626912,-83.066697,178.614442
363909,0.062798,0.180266,-0.152157,-174.226004,-83.182523,179.253706
364009,0.058082,0.2191,-0.142193,-174.783256,-83.319261,179.847994
364109,0.058031,0.230523,-0.12301,-175.26393,-83.461,-179.63496
364209,0.059416,0.221293,-0.110471,-175.704939,-83.596475,-179.157124
364309,0.065854,0.212547,-0.109153,-176.157642,-83.726515,-178.663879
364409,0.068701,0.209061,-0.1029,-176.59603,-83.853936,-178.183469
364509,0.081334,0.204557,-0.090909,-176.982318,-83.978019,-177.748257
364609,0.082558,0.168828,-0.083714,-177.354092,-84.081119,-177.327012
364709,0.076539,0.130626,-0.080691,-177.734628,-84.161938,-176.900496
364809,0.065464,0.100291,-0.0804,-178.136658,-84.225023,-176.458816
364909,0.042442,0.061447,-0.073469,-178.527163,-84.265372,-176.042029
365009,0.0024,0.015295,-0.064223,-178.898443,-84.278825,-175.667666
365109,-0.078508,0.020427,-0.066322,-179.329919,-84.294929,-175.27945
365209,-0.146096,0.056347,-0.062753,-179.781488,-84.331254,-174.91003
365309,-0.244018,0.081746,-0.072983,179.644541,-84.381757,-174.474093
365409,-0.308427,0.141191,-0.075966,179.00056,-84.465798,-174.00502
365509,-0.357232,0.166249,-0.075328,178.310257,-84.563598,-173.517662
365609,-0.399307,0.15312,-0.077486,177.563474,-84.653152,-172.997953
365709,-0.41322,0.130678,-0.070935,176.83474,-84.729303,-172.504532
365809,-0.417745,0.09237,-0.058297,176.180127,-84.783315,-172.088281
365909,-0.415056,0.062013,-0.040239,175.643928,-84.820204,-171.789486
366009,-0.404189,0.034774,-0.024104,175.224205,-84.841946,-171.601464
366109,-0.367669,0.015162,-0.020845,174.85442,-84.85246,-171.44262
366209,-0.316939,0.00553,-0.018768,174.531522,-84.857448,-171.3017
366309,-0.28475,-0.001973,-0.012309,174.272293,-84.858421,-171.206207
366409,-0.267007,-0.020887,-0.000777,174.108487,-84.849219,-171.196329
366509,-0.273083,-0.051501,0.011447,174.038589,-84.82327,-171.284249
366609,-0.281732,-0.071787,0.019681,174.028253,-84.786246,-171.436971
366709,-0.294474,-0.065132,0.029866,174.068479,-84.75362,-171.64782
366809,-0.306909,-0.035883,0.03711,174.126329,-84.738091,-171.883544
366909,-0.318191,-0.011044,0.045694,174.214349,-84.73722,-172.156076
367009,-0.334855,0.014227,0.04897,174.297421,-84.750938,-172.433243
367109,-0.349257,0.032013,0.04615,174.344555,-84.774639,-172.682622
367209,-0.358242,0.039578,0.046713,174.386502,-84.802696,-172.931977
367309,-0.360983,0.026867,0.046201,174.43256,-84.823488,-173.187054
367409,-0.357325,0.010347,0.044322,174.479676,-84.834762,-173.441105
367509,-0.350784,-0.008405,0.038829,174.507387,-84.835045,-173.67193
367609,-0.323624,-0.033538,0.031659,174.520196,-84.820605,-173.87219
367709,-0.291391,-0.056783,0.031099,174.560956,-84.792877,-174.08199
367809,-0.265572,-0.082405,0.032461,174.638403,-84.750589,-174.313791
367909,-0.23479,-0.106294,0.032764,174.746252,-84.694656,-174.558433
368009,-0.194881,-0.134251,0.037072,174.914434,-84.622944,-174.840727
368109,-0.15645,-0.16888,0.046106,175.170061,-84.531826,-175.188777
368209,-0.112838,-0.19881,0.053289,175.496476,-84.423806,-175.582898
368309,-0.077456,-0.219175,0.062359,175.889634,-84.304332,-176.023796
368409,-0.056263,-0.2305,0.06218,176.28059,-84.17812,-176.450383
368509,-0.034803,-0.216198,0.061129,176.655761,-84.059807,-176.848851
368609,-0.011611,-0.196069,0.06597,177.049162,-83.95293,-177.252396
368709,0.015165,-0.187877,0.072736,177.477588,-83.85066,-177.67584
368809,0.029792,-0.186289,0.079027,177.932604,-83.749133,-178.117711
368909,0.049897,-0.171166,0.077393,178.373704,-83.655905,-178.534103
369009,0.080494,-0.146151,0.071093,178.784662,-83.57662,-178.902625
369109,0.105588,-0.119134,0.065164,179.168253,-83.512517,-179.229211
369209,0.130976,-0.08739,0.071708,179.59046,-83.46644,-179.580078
369309,0.153711,-0.058018,0.074932,-179.964106,-83.436954,-179.941261
369409,0.166432,-0.026194,0.083734,-179.470324,-83.425401,179.656196
369509,0.177478,0.013665,0.097305,-178.901074,-83.43621,179.184051
369609,0.184449,0.06532,0.113666,-178.237098,-83.475851,178.620597
369709,0.165236,0.11114,0.137409,-177.447291,-83.54045,177.919475
369809,0.135773,0.1463,0.168301,-176.491323,-83.62306,177.034244
369909,0.081004,0.173396,0.19504,-175.393796,-83.718325,175.975142
370009,0.015367,0.18528,0.21926,-174.168241,-83.816758,174.749579
370109,-0.046216,0.193397,0.23045,-172.874802,-83.916183,173.420432
370209,-0.085895,0.212377,0.231988,-171.538532,-84.023042,172.025558
370309,-0.079687,0.264708,0.229831,-170.112094,-84.156217,170.543868
370409,0.004535,0.378927,0.221525,-168.486594,-84.350575,168.911013
370509,0.11764,0.536061,0.213539,-166.508199,-84.628688,166.98939
370609,0.212758,0.675927,0.198898,-164.109245,-84.979282,164.701216
370709,0.251212,0.768077,0.202616,-161.107962,-85.369543,161.832043
370809,0.228396,0.829597,0.23104,-157.205916,-85.771772,158.047989
370909,0.180535,0.834731,0.279215,-152.167643,-86.140885,153.099341
371009,0.159187,0.727632,0.318111,-146.393671,-86.41119,147.403088
371109,0.132767,0.535384,0.326388,-140.901744,-86.552021,141.975525
371209,0.119074,0.306602,0.292823,-136.790957,-86.57815,137.924171
371309,0.13225,0.103103,0.219762,-134.519396,-86.536464,135.722847
371409,0.169971,-0.014471,0.127604,-133.673802,-86.48217,134.971623
371509,0.188788,-0.026421,0.040584,-133.473163,-86.458802,134.877303
371609,0.222179,-0.084303,-0.016186,-134.002388,-86.435948,135.533396
371709,0.210235,-0.093062,-0.072582,-134.952798,-86.432036,136.604639
371809,0.231444,-0.008122,-0.126129,-135.697291,-86.483228,137.481737
371909,0.241493,0.099939,-0.148149,-135.899281,-86.587034,137.821074
372009,0.219819,0.182778,-0.152049,-135.584853,-86.726279,137.630681
372109,0.209682,0.19681,-0.145546,-135.102354,-86.868402,137.266222
372209,0.211345,0.174317,-0.112075,-134.497051,-86.987506,136.779835
372309,0.223224,0.158572,-0.085522,-133.760515,-87.088998,136.168941
372409,0.257642,0.153917,-0.07344,-132.899539,-87.183096,135.453269
372509,0.293718,0.143609,-0.056316,-131.918523,-87.265316,134.638164
372609,0.291565,0.128506,-0.034811,-130.851701,-87.331799,133.735955
372709,0.245465,0.110044,-0.017576,-129.802709,-87.383067,132.825167
372809,0.165189,0.093919,-0.01376,-128.89268,-87.426031,132.007443
372909,0.079556,0.074525,-0.016443,-128.223309,-87.462736,131.381498
373009,0.000522,0.035106,-0.017534,-127.997879,-87.485756,131.154595
373109,-0.064602,-0.009406,-0.018059,-128.270752,-87.49325,131.389123
373209,-0.113755,-0.042228,-0.016206,-128.893421,-87.488091,131.945601
373309,-0.151344,-0.044846,-0.013515,-129.53859,-87.480502,132.503066
373409,-0.170361,-0.025664,-0.019738,-130.051456,-87.482425,132.91722
373509,-0.178737,0.010774,-0.036534,-130.348372,-87.50503,133.110431
373609,-0.17114,0.056663,-0.05633,-130.350301,-87.553261,133.012758
373709,-0.15469,0.102511,-0.076014,-130.032837,-87.627026,132.604866
373809,-0.136587,0.12216,-0.08485,-129.545187,-87.711735,132.037071
373909,-0.119439,0.110799,-0.091799,-129.203395,-87.79519,131.625127
374009,-0.108722,0.081706,-0.104415,-129.297592,-87.87363,131.655665
374109,-0.107303,0.055555,-0.108665,-129.761401,-87.944373,132.056887
374209,-0.110243,0.012793,-0.106556,-130.770333,-87.998131,133.001894
374309,-0.124542,-0.015892,-0.091453,-132.029442,-88.03382,134.18903
374409,-0.137211,-0.037833,-0.064063,-133.292309,-88.048498,135.372678
374509,-0.160002,-0.071771,-0.025335,-134.535697,-88.032773,136.523807
374609,-0.182465,-0.105962,-0.00127,-135.880006,-87.99251,137.763094
374709,-0.213208,-0.110528,-0.004748,-137.279976,-87.950675,139.040513
374809,-0.176881,-0.108267,0.008523,-138.424696,-87.903679,140.083419
374909,-0.144403,-0.154028,0.011301,-139.920192,-87.834916,141.496048
375009,-0.140115,-0.172473,-5.8e-05,-141.620593,-87.760622,143.116299
375109,-0.102718,-0.166738,-0.009294,-143.247101,-87.690367,144.684164
375209,-0.060154,-0.149939,-0.023081,-144.77484,-87.630839,146.177691
375309,-0.033789,-0.135874,-0.039718,-146.293332,-87.581729,147.677171
375409,-0.011595,-0.147945,-0.061373,-148.066589,-87.531725,149.444459
375509,0.00656,-0.17916,-0.076649,-150.131794,-87.468346,151.51449
375609,0.01654,-0.176885,-0.093891,-152.26671,-87.407584,153.66015
375709,0.044516,-0.170833,-0.11795,-154.520676,-87.352458,155.941148
375809,0.098931,-0.155123,-0.146164,-156.887622,-87.308018,158.366568
375909,0.164093,-0.133489,-0.177525,-159.395974,-87.27699,160.971024
376009,0.231327,-0.09695,-0.206954,-162.002186,-87.265814,163.71209
376109,0.284078,-0.070557,-0.225619,-164.682064,-87.266166,166.557211
376209,0.30043,-0.050084,-0.240526,-167.467562,-87.273488,169.517476
376309,0.286965,-0.015097,-0.253956,-170.357702,-87.295006,172.574775
376409,0.232736,0.059885,-0.270242,-173.411518,-87.352912,175.764742
376509,0.132651,0.19137,-0.2752,-176.618713,-87.478002,179.0506
376609,0.044755,0.334711,-0.293102,179.534947,-87.676224,-177.074677
376709,-0.009609,0.466745,-0.333379,174.13782,-87.935063,-171.679896
376809,-0.056803,0.554417,-0.380309,166.049966,-88.213108,-163.620925
376909,-0.102614,0.571337,-0.429749,154.174789,-88.43997,-151.800493
377009,-0.139005,0.515534,-0.475331,139.192866,-88.539096,-136.894102
377109,-0.160989,0.387743,-0.497215,125.314629,-88.47758,-123.104526
377209,-0.195838,0.208405,-0.49261,116.345575,-88.295793,-114.245254
377309,-0.282231,-0.000725,-0.449979,112.768373,-88.060687,-110.8291
377409,-0.331013,-0.24397,-0.394524,113.62281,-87.797448,-111.874932
377509,-0.352057,-0.408191,-0.343794,116.521678,-87.519454,-114.979152
377609,-0.315895,-0.470921,-0.298218,119.747013,-87.241116,-118.390092
377709,-0.247186,-0.450884,-0.250946,122.487731,-86.984181,-121.277158
377809,-0.209725,-0.326468,-0.206084,124.023816,-86.782625,-122.936933
377909,-0.191386,-0.14029,-0.15056,124.205623,-86.665905,-123.229964
378009,-0.179775,0.008057,-0.083125,123.558998,-86.62869,-122.686516
378109,-0.161536,0.076661,-0.025243,122.682386,-86.640279,-121.902217
378209,-0.15066,0.097694,0.021568,121.874871,-86.680272,-121.180914
378309,-0.143551,0.093954,0.064907,121.31133,-86.739767,-120.69994
378409,-0.153717,0.066066,0.110816,121.211886,-86.813287,-120.689647
378509,-0.192053,0.003351,0.156992,121.906707,-86.890552,-121.496794
378609,-0.243612,-0.080733,0.193924,123.588928,-86.958631,-123.322267
378709,-0.290131,-0.137035,0.226268,126.034651,-87.019956,-125.938855
378809,-0.306507,-0.142745,0.245624,128.758227,-87.081858,-128.8429
378909,-0.271205,-0.120973,0.24415,131.418852,-87.144064,-131.663496
379009,-0.197401,-0.091517,0.222142,133.80982,-87.202085,-134.17163
379109,-0.115369,-0.069688,0.189777,135.88751,-87.250896,-136.318966
379209,-0.042505,-0.058938,0.157442,137.702244,-87.287936,-138.161197
379309,0.007156,-0.055045,0.121786,139.231929,-87.310503,-139.689554
379409,0.03232,-0.049655,0.08359,140.3965,-87.31959,-140.837964
379509,0.02634,-0.034031,0.063612,141.253403,-87.327427,-141.68181
379609,-0.000662,-0.026234,0.05713,141.977429,-87.335908,-142.408128
379709,-0.03502,-0.023972,0.055155,142.649758,-87.344304,-143.102404
379809,-0.066037,-0.018713,0.061416,143.331815,-87.356883,-143.824206
379909,-0.0863,-0.006355,0.073869,144.044121,-87.378986,-144.587903
380009,-0.092866,0.010314,0.07755,144.681435,-87.409665,-145.280282
380109,-0.082536,-0.001872,0.081898,145.474971,-87.435646,-146.123101
380209,-0.066187,-0.049052,0.091177,146.72913,-87.441471,-147.417614
380309,-0.049599,-0.127445,0.10595,148.683388,-87.412219,-149.403431
380409,-0.016864,-0.189967,0.119921,151.141068,-87.352564,-151.874488
380509,0.003424,-0.224941,0.130296,153.796895,-87.272908,-154.532414
380609,0.020426,-0.250524,0.13941,156.522812,-87.176383,-157.250954
380709,0.012852,-0.264393,0.144485,159.167508,-87.067546,-159.89276
380809,-0.001984,-0.257728,0.151025,161.653851,-86.957753,-162.384779
380909,-0.010559,-0.218729,0.152685,163.861557,-86.864384,-164.602925
381009,-0.013432,-0.161428,0.14656,165.732949,-86.797609,-166.486081
381109,-0.022802,-0.109212,0.131865,167.261151,-86.754918,-168.031
381209,-0.015628,-0.073222,0.1126,168.492473,-86.728007,-169.274509
381309,-0.000699,-0.056509,0.098736,169.545751,-86.707594,-170.331152
381409,0.021575,-0.068593,0.098297,170.613537,-86.679215,-171.389572
381509,0.040094,-0.072591,0.107712,171.770357,-86.648235,-172.526574
381609,0.056114,-0.025102,0.129115,173.065204,-86.644459,-173.792653
381709,0.054166,0.052864,0.157611,174.560078,-86.685074,-175.260179
381809,0.019899,0.122997,0.193309,176.38331,-86.764889,-177.076165
381909,-0.04934,0.160677,0.2501,178.838182,-86.863719,-179.564333
382009,-0.139693,0.156234,0.289112,-178.185526,-86.953222,177.373691
382109,-0.224842,0.135303,0.304357,-174.938661,-87.021136,173.992116
382209,-0.259036,0.129543,0.297825,-171.651712,-87.075982,170.550945
382309,-0.222322,0.170167,0.27377,-168.40278,-87.145991,167.169069
382409,-0.12288,0.294875,0.238003,-164.966818,-87.28028,163.657268
382509,-0.005256,0.508556,0.189482,-160.80788,-87.528314,159.489772
382609,0.094276,0.72754,0.165729,-154.635033,-87.879982,153.364801
382709,0.150897,0.851005,0.176499,-144.668413,-88.252555,143.477858
382809,0.115847,0.868528,0.20229,-129.410083,-88.54181,128.278878
382909,0.050456,0.80413,0.22966,-110.234151,-88.659844,109.125099
383009,0.056002,0.662558,0.25976,-93.35106,-88.592196,92.268188
383109,0.117193,0.437074,0.293575,-83.806516,-88.418198,82.786481
383209,0.189514,0.169002,0.294076,-81.13497,-88.239278,80.221331
383309,0.244992,-0.087951,0.253634,-83.155656,-88.10303,82.382385
383409,0.312561,-0.279582,0.194367,-87.914285,-88.005275,87.32184
383509,0.363191,-0.373159,0.127296,-93.689712,-87.930194,93.308015
383609,0.394123,-0.387122,0.060008,-99.361462,-87.871731,99.208433
383709,0.399639,-0.366054,0.003543,-104.579754,-87.827189,104.658443
383809,0.405889,-0.280075,-0.023365,-108.468509,-87.795351,108.781683
383909,0.39835,-0.170079,-0.034699,-110.787936,-87.782313,111.330182
384009,0.375893,-0.093194,-0.056522,-112.164537,-87.79386,112.922285
384109,0.346014,-0.038817,-0.086563,-113.0019,-87.832067,113.957601
384209,0.331911,0.013156,-0.104582,-113.255933,-87.891083,114.401059
384309,0.331242,0.059075,-0.132794,-113.032149,-87.975304,114.365975
384409,0.321523,0.061042,-0.158987,-112.946179,-88.073788,114.463197
384509,0.28923,0.018705,-0.187192,-113.780839,-88.177481,115.462994
384609,0.22325,-0.050853,-0.204381,-116.102284,-88.272394,117.912379
384709,0.130776,-0.098567,-0.232531,-119.86256,-88.364617,121.748051
384809,0.040968,-0.093351,-0.256861,-124.308172,-88.461996,126.217632
384909,-0.03491,-0.070402,-0.253036,-128.908053,-88.555418,130.797823
385009,-0.103268,-0.056414,-0.230383,-133.52399,-88.634483,135.354709
385109,-0.162731,-0.045208,-0.198323,-137.908562,-88.696299,139.645953
385209,-0.214104,-0.036539,-0.164354,-141.882347,-88.741913,143.496783
385309,-0.25427,-0.047118,-0.124646,-145.434014,-88.763395,146.902341
385409,-0.29053,-0.069625,-0.093267,-148.709428,-88.75981,150.010808
385509,-0.321879,-0.064861,-0.068848,-151.350172,-88.748132,152.466519
385609,-0.312806,-0.042929,-0.052509,-153.298572,-88.741105,154.234944
385709,-0.302159,-0.029683,-0.041147,-154.805059,-88.736888,155.567469
385809,-0.305049,-0.035388,-0.030286,-156.105495,-88.726397,156.692253
385909,-0.335295,-0.055676,-0.029317,-157.577973,-88.704404,157.971805
386009,-0.387029,-0.073366,-0.027587,-159.150067,-88.671876,159.321372
386109,-0.407132,-0.075763,-0.023874,-160.597306,-88.63653,160.534556
386209,-0.392927,-0.071348,-0.019206,-161.831834,-88.602067,161.543135
386309,-0.36385,-0.0781,-0.0175,-163.003242,-88.563122,162.505266
386409,-0.314892,-0.091318,-0.016395,-164.146814,-88.516266,163.467645
386509,-0.275574,-0.094706,-0.011465,-165.119255,-88.466352,164.281411
386609,-0.249583,-0.114052,-0.003535,-165.958006,-88.404247,164.976383
386709,-0.230481,-0.133464,0.002768,-166.694934,-88.330238,165.580489
386809,-0.192715,-0.134958,0.003203,-167.350902,-88.255147,166.125301
386909,-0.142505,-0.122573,0.004821,-167.852532,-88.186639,166.544531
387009,-0.08341,-0.106827,0.003741,-168.249017,-88.126995,166.892478
387109,-0.036624,-0.088398,-0.009033,-168.747068,-88.079081,167.368901
387209,-0.014346,-0.059317,-0.024634,-169.374389,-88.049082,167.987469
387309,-0.000643,-0.034815,-0.044139,-170.224027,-88.034623,168.836363
387409,0.021366,-0.025907,-0.062424,-171.325467,-88.026402,169.949843
387509,0.048048,-0.026849,-0.089926,-172.855487,-88.018948,171.507468
387609,0.096227,-0.037379,-0.11563,-174.782974,-88.00547,173.490437
387709,0.156443,-0.076821,-0.139014,-177.061184,-87.967885,175.858906
387809,0.221532,-0.126005,-0.161673,-179.577836,-87.899054,178.503379
387909,0.275367,-0.158578,-0.165867,178.058661,-87.807532,-178.97438
388009,0.291465,-0.16458,-0.150424,176.131168,-87.709568,-176.879063
388109,0.259789,-0.120197,-0.134542,174.511329,-87.635232,-175.109664
388209,0.183784,0.001056,-0.12729,172.845678,-87.628421,-173.337925
388309,0.097594,0.185443,-0.13134,170.673807,-87.723458,-171.109018
388409,-0.001756,0.444424,-0.146899,167.163529,-87.957947,-167.597981
388509,-0.04288,0.72288,-0.154633,160.967036,-88.33307,-161.4236
388609,-0.035064,0.864758,-0.187277,148.86533,-88.739078,-149.338911
388709,0.028031,0.900788,-0.211441,126.028255,-89.043549,-126.482487
388809,0.08252,0.849783,-0.236039,94.754275,-89.087702,-95.158105
388909,0.094169,0.680738,-0.253401,73.418323,-88.899047,-73.765871
389009,0.004231,0.389207,-0.273729,66.085912,-88.673364,-66.430309
389109,-0.150319,-0.069391,-0.245804,69.706064,-88.556887,-70.138596
389209,-0.365122,-0.498713,-0.196706,81.444863,-88.517856,-82.091408
389309,-0.512113,-0.698022,-0.168114,96.250645,-88.428043,-97.196873
389409,-0.55839,-0.718147,-0.158342,109.086891,-88.247424,-110.359511
389509,-0.485332,-0.639416,-0.184294,117.783407,-88.00351,-119.339877
389609,-0.342652,-0.48218,-0.199484,122.481734,-87.765234,-124.238893
389709,-0.216581,-0.341199,-0.195788,124.803377,-87.562996,-126.687725
389809,-0.159505,-0.240501,-0.179814,125.892221,-87.398743,-127.870186
389909,-0.165582,-0.161127,-0.136989,126.386964,-87.280419,-128.461531
390009,-0.183019,-0.092762,-0.103473,126.421879,-87.200666,-128.60256
390109,-0.234892,-0.072421,-0.036059,126.697256,-87.158864,-129.014089
390209,-0.292401,-0.117391,0.064805,128.041754,-87.147076,-130.529032
390309,-0.34309,-0.20355,0.174143,130.91057,-87.149513,-133.599232
390409,-0.360902,-0.266481,0.248607,134.882871,-87.149557,-137.784468
390509,-0.332922,-0.290638,0.281923,139.320732,-87.137196,-142.419792
390609,-0.277109,-0.283919,0.273145,143.598488,-87.107194,-146.862867
390709,-0.200907,-0.249522,0.244723,147.331944,-87.068693,-150.717358
390809,-0.120591,-0.225901,0.191903,150.363387,-87.014636,-153.822992
390909,-0.059192,-0.216411,0.126741,152.642267,-86.940181,-156.139985
391009,-0.011666,-0.216242,0.076221,154.358622,-86.848686,-157.866551
391109,0.033533,-0.214383,0.046371,155.719078,-86.748462,-159.210902
391209,0.055108,-0.19681,0.02514,156.751363,-86.651002,-160.214304
391309,0.063569,-0.19768,0.035313,157.823144,-86.554283,-161.252528
391409,0.03907,-0.211405,0.046848,158.968238,-86.451509,-162.378384
391509,0.018864,-0.228912,0.061525,160.214663,-86.340852,-163.617512
391609,0.024701,-0.22998,0.062415,161.401119,-86.228155,-164.793358
391709,0.048796,-0.217424,0.058124,162.465664,-86.120063,-165.833342
391809,0.082385,-0.207444,0.043929,163.356498,-86.01388,-166.680055
391909,0.124939,-0.214649,0.035249,164.174976,-85.901492,-167.429909
392009,0.176547,-0.228245,0.025001,164.931195,-85.779322,-168.087806
392109,0.22193,-0.244152,0.012341,165.61058,-85.645916,-168.642691
392209,0.253146,-0.248683,0.014669,166.295191,-85.509843,-169.184978
392309,0.272817,-0.243881,0.036941,167.100768,-85.378865,-169.837408
392409,0.266246,-0.226624,0.063668,168.017574,-85.260091,-170.605339
392509,0.23714,-0.197243,0.08164,168.957151,-85.158881,-171.412987
392609,0.198521,-0.144259,0.092495,169.847269,-85.087607,-172.193323
392709,0.15672,-0.093434,0.092826,170.636918,-85.044117,-172.896943
392809,0.110085,-0.051422,0.083636,171.285313,-85.022832,-173.485653
392909,0.080617,-0.016223,0.068432,171.779682,-85.019717,-173.936731
393009,0.072544,0.006187,0.052898,172.147343,-85.027789,-174.26528
393109,0.067655,-0.005494,0.049133,172.49863,-85.028767,-174.580216
393209,0.062008,-0.027991,0.050416,172.8735,-85.01689,-174.922085
393309,0.050877,-0.033952,0.078567,173.42803,-85.003316,-175.450708
393409,0.050067,-0.014967,0.10857,174.161477,-85.001911,-176.159406
393509,0.041739,0.008322,0.141269,175.089871,-85.014666,-177.068575
393609,0.006726,0.022681,0.177574,176.23492,-85.035777,-178.215334
393709,-0.059522,0.023628,0.213389,177.587903,-85.056376,-179.608872
393809,-0.121691,0.02311,0.242893,179.111959,-85.074149,178.790158
393909,-0.166484,0.056302,0.271017,-179.188849,-85.107088,176.987699
394009,-0.180884,0.137152,0.282279,-177.374815,-85.18142,175.061834
394109,-0.138467,0.2565,0.275005,-175.464259,-85.31896,173.063788
394209,-0.062242,0.409742,0.27319,-173.277099,-85.538031,170.832575
394309,0.034529,0.604571,0.269571,-170.591171,-85.860237,168.157619
394409,0.118149,0.795642,0.269393,-167.046703,-86.27861,164.671399
394509,0.1271,0.875067,0.291776,-162.177903,-86.718994,159.865251
394609,0.094979,0.817781,0.330831,-155.752866,-87.08987,153.484155
394709,0.086725,0.748465,0.348629,-147.877129,-87.375235,145.647827
394809,0.105353,0.663627,0.356551,-138.985453,-87.560536,136.80675
394909,0.15633,0.470372,0.345486,-131.055426,-87.612458,128.958187
395009,0.209321,0.235092,0.297252,-125.919499,-87.564001,123.936582
395109,0.271532,0.030059,0.219806,-123.782318,-87.471531,121.951943
395209,0.343527,-0.084908,0.13583,-123.531563,-87.380823,121.896777
395309,0.375299,-0.104425,0.061357,-123.974547,-87.319365,122.554312
395409,0.316869,-0.041739,0.00886,-124.159903,-87.30276,122.920441
395509,0.20552,0.021202,-0.018214,-123.958221,-87.319186,122.835243
395609,0.105506,0.051341,-0.027354,-123.565635,-87.349521,122.50158
395709,0.065375,0.044686,-0.019338,-123.202656,-87.373793,122.174563
395809,0.061319,0.027531,-0.015779,-122.992651,-87.390888,121.998374
395909,0.100761,0.046186,-0.015714,-122.55819,-87.413672,121.620138
396009,0.158258,0.068825,-0.011396,-121.808316,-87.441078,120.959163
396109,0.196212,0.087407,-0.012877,-120.824782,-87.474283,120.086084
396209,0.189397,0.090858,-0.024764,-119.859569,-87.513703,119.227449
396309,0.146346,0.075444,-0.061204,-119.309886,-87.566431,118.760048
396409,0.100186,0.071512,-0.109724,-119.137894,-87.64221,118.644197
396509,0.056322,0.084327,-0.16057,-119.177894,-87.74702,118.715339
396609,0.012297,0.104186,-0.182661,-119.148747,-87.868441,118.692021
396709,-0.025647,0.109732,-0.170471,-118.963306,-87.985309,118.490544
396809,-0.106538,0.083041,-0.154439,-119.070762,-88.086725,118.535771
396909,-0.168079,0.054151,-0.13915,-119.541996,-88.172395,118.90969
397009,-0.203022,0.034617,-0.127526,-120.28277,-88.246578,119.533238
397109,-0.237091,0.014195,-0.1164,-121.331683,-88.308982,120.44552
397209,-0.261746,-0.009084,-0.10605,-122.751804,-88.358676,121.715011
397309,-0.261163,-0.049483,-0.100051,-124.86782,-88.391471,123.680992
397409,-0.251526,-0.10691,-0.100497,-128.008196,-88.402331,126.67724
397509,-0.235128,-0.165646,-0.104888,-132.132015,-88.388104,130.666722
397609,-0.235924,-0.225332,-0.106382,-137.006114,-88.341733,135.406402
397709,-0.23533,-0.274686,-0.085957,-141.865131,-88.25493,140.131503
397809,-0.2505,-0.317635,-0.056178,-146.236561,-88.127168,144.360363
397909,-0.250579,-0.31963,-0.031872,-149.714488,-87.982245,147.695501
398009,-0.235762,-0.296541,-0.01443,-152.32235,-87.838281,150.168802
398109,-0.222692,-0.28531,-0.004849,-154.40984,-87.694051,152.129079
398209,-0.216159,-0.280043,0.00185,-156.142642,-87.548505,153.738324
398309,-0.198336,-0.265131,0.006441,-157.551105,-87.40802,155.03333
398409,-0.182221,-0.235996,0.003443,-158.716847,-87.282437,156.094757
398509,-0.159494,-0.198387,-0.008044,-159.744451,-87.178433,157.031044
398609,-0.133927,-0.150433,-0.022349,-160.660117,-87.102321,157.870013
398709,-0.103749,-0.094638,-0.039629,-161.498384,-87.059045,158.648861
398809,-0.078666,-0.036636,-0.056307,-162.278786,-87.049786,159.384192
398909,-0.059402,0.006003,-0.067555,-163.024138,-87.065279,160.095489
399009,-0.038695,0.024488,-0.07383,-163.774585,-87.091484,160.823768
399109,-0.005039,0.031247,-0.076451,-164.526952,-87.121348,161.573271
399209,0.023515,0.040262,-0.078143,-165.270698,-87.155963,162.330514
399309,0.057927,0.039133,-0.087882,-166.126246,-87.190805,163.219427
399409,0.124402,0.004721,-0.101141,-167.207559,-87.20747,164.372503
399509,0.21041,-0.036833,-0.120492,-168.572927,-87.201974,165.859326
399609,0.285572,-0.042057,-0.143983,-170.169513,-87.194145,167.62079
399709,0.34167,-0.043814,-0.147699,-171.768586,-87.18326,169.416962
399809,0.363199,-0.042056,-0.142027,-173.272804,-87.170584,171.130556
399909,0.357409,-0.000275,-0.132356,-174.609026,-87.179072,172.672647
400009,0.32627,0.106364,-0.123736,-175.78117,-87.246415,174.032563
400109,0.275044,0.272382,-0.113994,-176.817488,-87.407085,175.226992
400209,0.245773,0.46222,-0.119721,-178.009656,-87.675493,176.560414
400309,0.228566,0.660611,-0.154424,179.895664,-88.056204,178.786775
400409,0.232521,0.782374,-0.204824,175.502813,-88.500434,-176.685977
400509,0.206289,0.79459,-0.259493,165.730345,-88.927523,-166.793771
400609,0.185051,0.654627,-0.298314,146.817825,-89.206249,-147.773699
400709,0.152131,0.398835,-0.295811,125.832542,-89.255224,-126.700309
400809,0.071869,0.083477,-0.259607,117.26846,-89.152849,-118.095147
400909,-0.015429,-0.197828,-0.207236,119.856417,-88.993905,-120.693208
401009,-0.069347,-0.397991,-0.169867,126.850614,-88.786458,-127.729381
401109,-0.123862,-0.474727,-0.143419,133.409815,-88.547592,-134.362286
401209,-0.158225,-0.482688,-0.12709,138.381354,-88.297798,-139.427377
401309,-0.186332,-0.412407,-0.108742,141.542917,-88.076466,-142.698351
401409,-0.211983,-0.279541,-0.063736,143.363422,-87.926962,-144.642548
401509,-0.234744,-0.142242,0.003918,144.557541,-87.86214,-145.973145
401609,-0.269934,-0.02652,0.049445,145.23354,-87.86576,-146.805486
401709,-0.29438,0.064624,0.091375,145.641208,-87.925705,-147.383322
401809,-0.309574,0.076113,0.144939,146.697219,-88.007917,-148.618594
401909,-0.325348,0.020358,0.201914,149.173291,-88.078996,-151.283729
402009,-0.354103,-0.04601,0.246741,153.063134,-88.124019,-155.379788
402109,-0.402171,-0.135561,0.272922,158.126354,-88.117747,-160.677344
402209,-0.420975,-0.176689,0.273631,163.31738,-88.07383,-166.113617
402309,-0.383013,-0.170653,0.263378,168.065907,-88.016331,-171.085522
402409,-0.29528,-0.165781,0.244972,172.257735,-87.946747,-175.450273
402509,-0.188597,-0.150834,0.211805,175.682673,-87.873649,-178.986656
402609,-0.126694,-0.118183,0.170118,178.265938,-87.811341,178.354561
402709,-0.063768,-0.078383,0.141605,-179.676704,-87.767654,176.258057
402809,-0.045213,-0.038524,0.127153,-177.877687,-87.744298,174.430681
402909,-0.04846,-0.010578,0.120216,-176.192266,-87.734985,172.7151
403009,-0.052408,-0.003761,0.125166,-174.444017,-87.727316,170.934365
403109,-0.053989,0.00608,0.137125,-172.521357,-87.722222,168.978164
403209,-0.056523,0.00819,0.147367,-170.460965,-87.714761,166.882659
403309,-0.049302,-0.011843,0.150395,-168.427791,-87.692724,164.818513
403409,-0.039095,-0.056724,0.140968,-166.704516,-87.644035,163.070322
403509,-0.000371,-0.12764,0.123091,-165.50895,-87.556566,161.872422
403609,0.055141,-0.190845,0.109767,-164.747129,-87.435212,161.140424
403709,0.115099,-0.243531,0.100314,-164.30412,-87.285884,160.761891
403809,0.158631,-0.286327,0.095559,-164.066249,-87.113611,160.613662
403909,0.197223,-0.308087,0.097556,-163.872616,-86.929023,160.531847
404009,0.219789,-0.310699,0.094272,-163.721145,-86.743524,160.50519
404109,0.23928,-0.311376,0.094786,-163.565558,-86.557581,160.485583
404209,0.259153,-0.300328,0.088592,-163.433214,-86.378732,160.500659
404309,0.265151,-0.242625,0.089092,-163.155295,-86.231494,160.373296
404409,0.254287,-0.158641,0.085868,-162.71648,-86.130773,160.078414
404509,0.235513,-0.067992,0.085412,-162.081042,-86.079481,159.575639
404609,0.217168,0.009262,0.088725,-161.240548,-86.069191,158.856765
404709,0.192145,0.041503,0.089568,-160.322001,-86.075448,158.045272
404809,0.16617,0.037604,0.09282,-159.401843,-86.078088,157.21724
404909,0.155612,0.026731,0.10431,-158.43085,-86.071628,156.332176
405009,0.142241,0.032695,0.117162,-157.352985,-86.064494,155.33229
405109,0.106962,0.037576,0.136375,-156.13705,-86.054227,154.173722
405209,0.029366,0.045995,0.162851,-154.744229,-86.040245,152.793251
405309,-0.057924,0.041213,0.1948,-153.194799,-86.013341,151.205606
405409,-0.149605,0.044089,0.218917,-151.535958,-85.978432,149.45554
405509,-0.202739,0.059059,0.230192,-149.79888,-85.944253,147.59642
405609,-0.171589,0.111493,0.22666,-147.876287,-85.932697,145.569135
405709,-0.054089,0.227928,0.214616,-145.449284,-85.975273,143.103701
405809,0.100331,0.397103,0.204067,-142.100628,-86.090865,139.803337
405909,0.201063,0.569492,0.206519,-137.485692,-86.264953,135.292313
406009,0.211062,0.660816,0.257875,-131.517703,-86.426332,129.432131
406109,0.167294,0.683322,0.323776,-124.560187,-86.522806,122.556296
406209,0.126783,0.625057,0.392992,-117.530465,-86.51569,115.585232
406309,0.115199,0.475528,0.463864,-111.681298,-86.388396,109.789851
406409,0.115568,0.264942,0.491167,-107.947374,-86.176008,106.113288
406509,0.13564,0.036086,0.447982,-106.480112,-85.93793,104.719305
406609,0.170382,-0.141757,0.35849,-106.646668,-85.718886,104.983023
406709,0.227825,-0.260828,0.259915,-107.806072,-85.533355,106.275554
406809,0.277694,-0.324565,0.162515,-109.492091,-85.386611,108.125308
406909,0.304591,-0.321239,0.068447,-111.267064,-85.286688,110.080095
407009,0.337245,-0.229603,-0.001982,-112.554037,-85.239574,111.564201
407109,0.374626,-0.158563,-0.058626,-113.503193,-85.235844,112.730886
407209,0.374528,-0.131834,-0.11103,-114.432995,-85.264157,113.878096
407309,0.355119,-0.118825,-0.175622,-115.498665,-85.327489,115.150419
407409,0.340115,-0.050488,-0.21438,-116.292092,-85.426183,116.140851
407509,0.338288,0.032466,-0.220761,-116.604301,-85.548536,116.647373
407609,0.342113,0.0552,-0.219502,-116.779768,-85.675925,117.018853
407709,0.329919,0.024445,-0.23353,-117.242797,-85.802321,117.671601
407809,0.292394,-0.013488,-0.248319,-118.087897,-85.925584,118.685724
407909,0.208937,-0.021121,-0.259218,-119.138921,-86.051027,119.858152
408009,0.103935,-0.00543,-0.26581,-120.236123,-86.182663,121.016352
408109,0.013893,0.022928,-0.277271,-121.303587,-86.326767,122.092835
408209,-0.061763,0.030755,-0.286495,-122.487112,-86.476336,123.241982
408309,-0.130307,0.035491,-0.279256,-123.736284,-86.62236,124.417358
408409,-0.199771,0.048302,-0.253497,-124.879063,-86.758826,125.446128
408509,-0.250166,0.063133,-0.219652,-125.810301,-86.883292,126.233987
408609,-0.288252,0.0693,-0.188913,-126.580235,-86.994965,126.838385
408709,-0.299638,0.034243,-0.171373,-127.603684,-87.085983,127.690059
408809,-0.305445,-0.017828,-0.164845,-129.11265,-87.154554,129.024488
408909,-0.307734,-0.060004,-0.143392,-130.903258,-87.196206,130.639539
409009,-0.308803,-0.091972,-0.114758,-132.792334,-87.210829,132.352541
409109,-0.322316,-0.117628,-0.084194,-134.668614,-87.199875,134.044991
409209,-0.337096,-0.141021,-0.060537,-136.525676,-87.167174,135.709765
409309,-0.338579,-0.155476,-0.050964,-138.369906,-87.122039,137.36091
409409,-0.318391,-0.170123,-0.058946,-140.320757,-87.070822,139.130475
409509,-0.291797,-0.190902,-0.072961,-142.451987,-87.012157,141.096018
409609,-0.26276,-0.210917,-0.09013,-144.760214,-86.946219,143.255591
409709,-0.228031,-0.197184,-0.105006,-147.003167,-86.887119,145.369865
409809,-0.185558,-0.169719,-0.111491,-149.048943,-86.839134,147.311167
409909,-0.136422,-0.152434,-0.116093,-150.959833,-86.797415,149.145678
410009,-0.097244,-0.146687,-0.121995,-152.824431,-86.75687,150.956407
410109,-0.063227,-0.12464,-0.127738,-154.579307,-86.725928,152.676851
410209,-0.035562,-0.075074,-0.128635,-156.092832,-86.718247,154.171486
410309,-0.021122,-0.018886,-0.126443,-157.353912,-86.737592,155.421568
410409,-0.014807,0.021393,-0.11952,-158.410473,-86.775387,156.470415
410509,-0.002216,0.055848,-0.11248,-159.290988,-86.829141,157.350137
410609,0.023096,0.082731,-0.106099,-160.027071,-86.895377,158.099702
410709,0.041678,0.117434,-0.101701,-160.615356,-86.979016,158.711882
410809,0.050822,0.139485,-0.104871,-161.186346,-87.074857,159.311954
410909,0.061476,0.131469,-0.117022,-161.953224,-87.168174,160.114233
411009,0.101485,0.110713,-0.143995,-163.131042,-87.254089,161.350839
411109,0.188916,0.090361,-0.16223,-164.618102,-87.330282,162.947117
411209,0.26467,0.048174,-0.167944,-166.345392,-87.381747,164.827273
411309,0.301847,0.014097,-0.160402,-168.115708,-87.410542,166.771791
411409,0.327018,-0.009687,-0.145776,-169.779954,-87.421707,168.624568
411509,0.322473,0.052283,-0.1402,-171.270777,-87.465103,170.301128
411609,0.281869,0.23157,-0.120131,-172.262642,-87.606941,171.454882
411709,0.208226,0.435173,-0.097359,-172.731418,-87.86213,172.042743
411809,0.149649,0.660124,-0.099581,-172.939166,-88.245241,172.335699
411909,0.162592,0.807586,-0.12115,-173.388832,-88.713652,172.877969
412009,0.161837,0.797646,-0.153397,-175.728904,-89.177718,175.31037
412109,0.097336,0.641236,-0.198577,173.362196,-89.544903,-173.725177
412209,-0.053502,0.415255,-0.244619,137.800672,-89.7117,-138.194529
412309,-0.175107,0.139879,-0.260052,111.089314,-89.631637,-111.584009
412409,-0.316969,-0.09474,-0.238792,111.022505,-89.483882,-111.69977
412509,-0.430549,-0.179707,-0.211865,115.259281,-89.331098,-116.184455
412609,-0.486576,-0.235664,-0.186624,120.268039,-89.172852,-121.473468
412709,-0.448149,-0.273697,-0.17366,124.904252,-89.003863,-126.368126
412809,-0.358349,-0.240211,-0.175206,127.417793,-88.841022,-129.088571
412909,-0.282497,-0.176412,-0.173017,128.114183,-88.700194,-129.948166
413009,-0.245626,-0.108747,-0.16335,127.592853,-88.587474,-129.568643
413109,-0.263812,-0.033784,-0.137293,126.158799,-88.512309,-128.286526
413209,-0.31252,0.004052,-0.092115,124.718775,-88.470005,-127.026319
413309,-0.36386,-0.002763,-0.017404,124.322674,-88.460231,-126.839806
413409,-0.40492,-0.030698,0.06638,125.421043,-88.480728,-128.171805
413509,-0.419067,-0.065573,0.146284,128.229033,-88.524692,-131.222073
413609,-0.44402,-0.128975,0.204594,133.164578,-88.564854,-136.414797
413709,-0.449192,-0.15574,0.241028,139.397167,-88.595362,-142.907821
413809,-0.41214,-0.147864,0.250503,145.930663,-88.61468,-149.680521
413909,-0.353847,-0.118554,0.243225,152.115827,-88.627877,-156.071321
414009,-0.268239,-0.05631,0.224828,157.420356,-88.653412,-161.532116
414109,-0.183434,-0.007197,0.19703,161.905404,-88.688665,-166.12454
414209,-0.10021,0.002844,0.165952,165.824589,-88.716595,-170.103209
414309,-0.031498,-0.023035,0.146464,169.561462,-88.721571,-173.860128
414409,-0.008409,-0.066426,0.137178,173.218871,-88.695727,-177.524359
414509,0.002341,-0.11253,0.123754,176.466275,-88.637944,179.227606
414609,0.001237,-0.139383,0.125917,179.494892,-88.560777,176.197683
414709,0.011553,-0.166221,0.123827,-177.853038,-88.464681,173.550216
414809,0.031898,-0.165486,0.115457,-175.67297,-88.36648,171.386459
414909,0.063271,-0.152149,0.104773,-173.898678,-88.274454,169.646526
415009,0.100441,-0.153156,0.090251,-172.545079,-88.181493,168.348706
415109,0.134823,-0.174013,0.082089,-171.493045,-88.076536,167.372247
415209,0.15755,-0.207558,0.072518,-170.772988,-87.952966,166.740924
415309,0.179129,-0.246999,0.0677,-170.289842,-87.807348,166.358987
415409,0.228463,-0.267382,0.071059,-169.83704,-87.649795,166.03566
415509,0.259974,-0.279502,0.076425,-169.375652,-87.484772,165.721763
415609,0.266624,-0.317443,0.080182,-169.001218,-87.297913,165.498675
415709,0.264071,-0.30251,0.0918,-168.503921,-87.118095,165.15108
415809,0.23263,-0.254378,0.106262,-167.813991,-86.963427,164.5925
415909,0.210769,-0.186034,0.121289,-166.887822,-86.844712,163.784716
416009,0.208203,-0.117752,0.133516,-165.739731,-86.761605,162.753101
416109,0.205419,-0.071711,0.139668,-164.468471,-86.70191,161.596432
416209,0.185399,-0.072931,0.143468,-163.220262,-86.63952,160.451279
416309,0.156825,-0.090624,0.152192,-162.005187,-86.564562,159.322827
416409,0.125692,-0.082287,0.15834,-160.778471,-86.491618,158.164746
416509,0.118735,-0.041641,0.173611,-159.342877,-86.43599,156.793313
416609,0.113031,-0.020189,0.196554,-157.688577,-86.384741,155.199388
416709,0.081787,0.007552,0.225524,-155.76088,-86.338453,153.313489
416809,0.036367,0.032856,0.269239,-153.463318,-86.290155,151.030779
416909,-0.010035,0.059275,0.304889,-150.871242,-86.239507,148.426145
417009,-0.050481,0.099445,0.320859,-148.077561,-86.196149,145.596078
417109,-0.07257,0.18307,0.312341,-145.017809,-86.186029,142.486552
417209,-0.071532,0.323077,0.282463,-141.435708,-86.23854,138.854182
417309,-0.045916,0.498964,0.236581,-136.990463,-86.367723,134.371936
417409,-0.032643,0.668864,0.201012,-131.270018,-86.553372,128.620459
417509,-0.040795,0.776542,0.180932,-124.199739,-86.745331,121.513319
417609,-0.052161,0.797679,0.182786,-116.177186,-86.886248,113.447109
417709,-0.061371,0.751344,0.200836,-108.001518,-86.942894,105.22305
417809,-0.072178,0.618571,0.217901,-101.060454,-86.912088,98.229268
417909,-0.083723,0.418594,0.200602,-96.442506,-86.83605,93.555072
418009,-0.061827,0.213782,0.149316,-94.151361,-86.763259,91.22353
418109,-0.016514,0.064688,0.076814,-93.456198,-86.72289,90.516419
418209,0.052229,-0.035527,0.004209,-93.775472,-86.720275,90.864845
418309,0.09043,-0.063967,-0.054453,-94.40137,-86.749843,91.542322
418409,0.104067,-0.079314,-0.091653,-95.222048,-86.799403,92.422703
418509,0.114878,-0.089797,-0.112198,-96.195075,-86.859267,93.461849
418609,0.136201,-0.092234,-0.123696,-97.236129,-86.924457,94.581328
418709,0.14429,-0.066667,-0.145485,-98.07705,-87.002934,95.504988
418809,0.183899,-0.035347,-0.162716,-98.623808,-87.093157,96.156774
418909,0.225646,-0.01622,-0.170269,-98.978692,-87.189047,96.64036
419009,0.265139,-0.012523,-0.169908,-99.295553,-87.284914,97.108501
419109,0.283883,0.001671,-0.167812,-99.450736,-87.380826,97.4255
419209,0.28689,0.026662,-0.173878,-99.314666,-87.482504,97.452642
419309,0.279228,0.037979,-0.19715,-99.077372,-87.598397,97.37405
419409,0.257776,0.028813,-0.227215,-99.035272,-87.730482,97.478494
419509,0.208935,0.003424,-0.247027,-99.46095,-87.871435,98.023023
419609,0.138587,-0.04308,-0.256294,-100.78025,-88.01262,99.421349
419709,0.046388,-0.08192,-0.255379,-103.029788,-88.147095,101.697447
419809,-0.038837,-0.087496,-0.246272,-105.73452,-88.272314,104.379935
419909,-0.104919,-0.092289,-0.230085,-108.876959,-88.383433,107.462271
420009,-0.141926,-0.098926,-0.212565,-112.476089,-88.478343,110.980106
420109,-0.145345,-0.105321,-0.201685,-116.552136,-88.559406,114.972923
420209,-0.159855,-0.110104,-0.197981,-121.144297,-88.62926,119.473573
420309,-0.156411,-0.097352,-0.195021,-125.884292,-88.692517,124.123962
420409,-0.157743,-0.087789,-0.184292,-130.690245,-88.745071,128.839475
420509,-0.157834,-0.088806,-0.17054,-135.625712,-88.782323,133.684421
420609,-0.153399,-0.101137,-0.153703,-140.682714,-88.798612,138.653443
420709,-0.144873,-0.110685,-0.145394,-145.790441,-88.798299,143.678093
420809,-0.125096,-0.12169,-0.140716,-150.878871,-88.781841,148.694809
420909,-0.109694,-0.121246,-0.137464,-155.703378,-88.755684,153.456428
421009,-0.098013,-0.118766,-0.127488,-160.0304,-88.720618,157.72721
421109,-0.08341,-0.111508,-0.115741,-163.767009,-88.680902,161.415881
421209,-0.070222,-0.109514,-0.104538,-166.991168,-88.63568,164.599609
421309,-0.060533,-0.116878,-0.093989,-169.783968,-88.581269,167.357502
421409,-0.053451,-0.134331,-0.087424,-172.268926,-88.513381,169.811618
421509,-0.04349,-0.139879,-0.082828,-174.442856,-88.439572,171.960417
421609,-0.032095,-0.133223,-0.082887,-176.40471,-88.367574,173.903692
421709,-0.001318,-0.123584,-0.085915,-178.234419,-88.299444,175.7325
421809,0.034397,-0.10752,-0.09343,179.959239,-88.238951,177.558483
421909,0.055753,-0.078219,-0.109042,177.987845,-88.193322,179.561909
422009,0.074666,-0.029648,-0.1314,175.667585,-88.172494,-178.074733
422109,0.099554,0.02053,-0.150007,172.981744,-88.175998,-175.331311
422209,0.137171,0.054373,-0.161226,170.008695,-88.193434,-172.27897
422309,0.172165,0.054313,-0.179778,166.676214,-88.203354,-168.846964
422409,0.237511,0.006828,-0.200544,163.243925,-88.177519,-165.277603
422509,0.319024,-0.026683,-0.222498,159.809834,-88.12278,-161.659603
422609,0.388425,-0.041817,-0.230577,156.603925,-88.051608,-158.22996
422709,0.442583,-0.062753,-0.218489,153.997704,-87.966743,-155.369117
422809,0.467483,-0.065932,-0.199113,151.917283,-87.881348,-153.019956
422909,0.462736,-0.026311,-0.185384,149.888047,-87.816667,-150.724592
423009,0.427186,0.092042,-0.174455,147.160039,-87.809637,-147.750257
423109,0.370074,0.315375,-0.168887,142.456302,-87.901819,-142.831642
423209,0.302493,0.578491,-0.177693,134.140284,-88.082186,-134.337738
423309,0.27585,0.805555,-0.194713,120.571787,-88.274911,-120.604985
423409,0.266589,0.935207,-0.221682,102.090866,-88.352234,-101.964076
423509,0.240197,0.909779,-0.23765,84.3601,-88.243723,-84.088664
423609,0.189941,0.734792,-0.253865,72.685891,-88.015468,-72.300183
423709,0.125848,0.472608,-0.263943,67.230881,-87.779545,-66.77017
423809,0.055686,0.150682,-0.233359,66.58717,-87.621928,-66.09485
423909,-0.012606,-0.197996,-0.176997,69.981668,-87.568928,-69.500431
424009,-0.085398,-0.420046,-0.130245,75.86657,-87.567534,-75.440498
424109,-0.124015,-0.511227,-0.094233,82.809037,-87.567934,-82.461265
424209,-0.089742,-0.565802,-0.070042,90.400327,-87.546275,-90.111886
424309,-0.068816,-0.573106,-0.064395,97.847963,-87.484964,-97.607005
424409,-0.075893,-0.477538,-0.061036,103.669901,-87.39864,-103.479347
424509,-0.073538,-0.337775,-0.022617,107.595148,-87.333181,-107.452049
424609,-0.10318,-0.217605,0.007712,110.07339,-87.296304,-109.993361
424709,-0.148542,-0.129353,0.027457,111.560533,-87.283864,-111.568557
424809,-0.191905,-0.08893,0.064441,112.732704,-87.298049,-112.853305
424909,-0.267552,-0.095449,0.120292,114.227361,-87.338684,-114.504244
425009,-0.330112,-0.138342,0.186957,116.587891,-87.400674,-117.057764
425109,-0.392664,-0.209157,0.239842,120.161051,-87.463926,-120.860856
425209,-0.441226,-0.259513,0.278189,124.713485,-87.518044,-125.671817
425309,-0.457351,-0.269634,0.299388,129.717954,-87.560609,-130.944283
425409,-0.42272,-0.266914,0.301386,134.873773,-87.584855,-136.348236
425509,-0.34346,-0.256911,0.279915,139.824453,-87.584716,-141.501366
425609,-0.254448,-0.237446,0.24015,144.197825,-87.561685,-146.025676
425709,-0.165675,-0.219993,0.195044,147.883187,-87.519107,-149.810555
425809,-0.09488,-0.201375,0.15989,150.952662,-87.465978,-152.938504
425909,-0.050955,-0.190895,0.13838,153.608615,-87.40567,-155.627475
426009,-0.043048,-0.164375,0.135826,155.98028,-87.353282,-158.027455
426109,-0.042806,-0.133688,0.140026,158.164361,-87.313716,-160.239606
426209,-0.057216,-0.112587,0.154336,160.350006,-87.284475,-162.461659
426309,-0.065678,-0.089141,0.164159,162.508459,-87.26582,-164.661392
426409,-0.070613,-0.080943,0.16754,164.644416,-87.248316,-166.841472
426509,-0.055046,-0.077327,0.167608,166.749899,-87.228984,-168.982152
426609,-0.027853,-0.081395,0.164185,168.808389,-87.203227,-171.060229
426709,0.008737,-0.099488,0.162184,170.85774,-87.163467,-173.10823
426809,0.0407,-0.140381,0.166999,172.977511,-87.097266,-175.208502
426909,0.070219,-0.184018,0.166295,175.051105,-87.002358,-177.245757
427009,0.095261,-0.213716,0.165214,177.015319,-86.886811,-179.159312
427109,0.105944,-0.197456,0.146665,178.652581,-86.777047,179.260498
427209,0.122669,-0.159928,0.128503,-179.986686,-86.686443,177.966717
427309,0.13081,-0.140499,0.119336,-178.777216,-86.60542,176.829005
427409,0.126934,-0.119741,0.118503,-177.625209,-86.534972,175.746527
427509,0.120324,-0.063076,0.117483,-176.499804,-86.495737,174.686824
427609,0.106389,-0.001867,0.106413,-175.464805,-86.490752,173.709649
427709,0.068296,0.04847,0.095031,-174.516055,-86.514058,172.797004
427809,0.029272,0.071347,0.088772,-173.612601,-86.54989,171.907344
427909,0.008286,0.05903,0.095565,-172.653387,-86.57739,170.949787
428009,-0.011722,0.044138,0.099097,-171.677723,-86.595208,169.964274
428109,-0.021634,0.057129,0.115262,-170.52279,-86.617872,168.793504
428209,-0.038592,0.073605,0.143495,-169.061403,-86.64539,167.306049
428309,-0.09126,0.095149,0.178384,-167.224748,-86.678371,165.412511
428409,-0.167319,0.07321,0.223024,-165.023702,-86.689124,163.110365
428509,-0.238212,0.057511,0.251784,-162.626651,-86.681314,160.571197
428609,-0.273854,0.091899,0.266217,-160.016676,-86.683147,157.798272
428709,-0.25292,0.178515,0.274911,-156.983426,-86.721477,154.613428
428809,-0.165119,0.302296,0.271753,-153.301929,-86.814204,150.829895
428909,-0.052536,0.448284,0.256277,-148.687269,-86.968834,146.176886
429009,0.056969,0.612864,0.242282,-142.540573,-87.181686,140.05349
429109,0.155236,0.766165,0.23962,-134.086268,-87.420081,131.67754
429209,0.190254,0.829028,0.258692,-123.303059,-87.603413,120.992035
429309,0.158487,0.783006,0.289069,-111.708515,-87.665246,109.477295
429409,0.128101,0.667659,0.333104,-101.447037,-87.592323,99.279312
429509,0.108069,0.48143,0.385919,-94.411218,-87.412089,92.297602
429609,0.090383,0.230273,0.401749,-91.313227,-87.189699,89.246809
429709,0.084396,-0.005982,0.352155,-91.238669,-86.988893,89.219332
429809,0.119547,-0.163669,0.266177,-92.80398,-86.834161,90.854243
429909,0.169903,-0.257061,0.161413,-95.204438,-86.73262,93.354682
430009,0.196711,-0.245192,0.082083,-97.424824,-86.671445,95.690322
430109,0.23528,-0.283269,0.019876,-100.005603,-86.63661,98.409218
430209,0.250681,-0.27901,-0.018032,-102.558167,-86.61646,101.108779
430309,0.275164,-0.212537,-0.046102,-104.510237,-86.614604,103.220905
430409,0.277694,-0.149497,-0.056046,-105.89689,-86.624049,104.768101
430509,0.280653,-0.086541,-0.074612,-106.75506,-86.652022,105.7876
430609,0.285967,-0.00236,-0.09095,-106.877756,-86.702377,106.073413
430709,0.297113,0.065296,-0.116066,-106.417376,-86.777668,105.781586
430809,0.315056,0.107047,-0.139858,-105.576872,-86.872471,105.119356
430909,0.317078,0.12134,-0.165136,-104.608621,-86.982817,104.33039
431009,0.303204,0.098612,-0.184232,-103.883344,-87.099947,103.776804
431109,0.232341,0.045915,-0.206254,-103.811506,-87.221929,103.836821
431209,0.125526,-0.007128,-0.222355,-104.486277,-87.345443,104.582964
431309,0.013115,-0.037196,-0.231187,-105.702664,-87.46879,105.80669
431409,-0.100019,-0.044043,-0.229421,-107.191996,-87.588744,107.238585
431509,-0.197947,-0.038788,-0.234164,-108.841263,-87.7105,108.774247
431609,-0.257797,-0.025062,-0.235675,-110.516398,-87.833856,110.301339
431709,-0.297127,-0.030674,-0.235475,-112.488271,-87.953988,112.102698
431809,-0.310603,-0.05568,-0.23328,-115.070438,-88.064476,114.506874
431909,-0.308535,-0.085246,-0.236501,-118.441073,-88.16451,117.700994
432009,-0.27702,-0.101831,-0.240427,-122.460989,-88.254691,121.562629
432109,-0.249575,-0.123542,-0.236561,-127.166101,-88.32651,126.125348
432209,-0.249386,-0.143071,-0.214914,-132.248692,-88.369743,131.0657
432309,-0.264932,-0.161094,-0.175519,-137.229101,-88.376979,135.894876
432409,-0.286941,-0.172687,-0.130652,-141.66554,-88.351154,140.16729
432509,-0.301988,-0.165831,-0.09751,-145.345347,-88.308628,143.674217
432609,-0.304487,-0.154101,-0.079023,-148.42427,-88.260004,146.57866
432709,-0.282138,-0.154654,-0.071156,-151.198986,-88.204472,149.191661
432809,-0.249946,-0.173752,-0.064521,-153.832234,-88.133743,151.681686
432909,-0.212135,-0.180433,-0.065603,-156.314355,-88.056339,154.042309
433009,-0.17585,-0.164609,-0.0592,-158.395044,-87.982849,156.022201
433109,-0.142964,-0.136987,-0.053556,-160.080406,-87.920826,157.625486
433209,-0.105102,-0.104199,-0.051963,-161.46404,-87.874751,158.948643
433309,-0.06369,-0.053153,-0.059339,-162.641264,-87.856752,160.089058
433409,-0.020954,-0.001286,-0.072901,-163.750802,-87.868625,161.186279
433509,0.027872,0.036413,-0.089495,-164.939994,-87.903056,162.391219
433609,0.060504,0.059555,-0.102378,-166.260799,-87.951198,163.746563
433709,0.110171,0.06107,-0.111973,-167.764164,-88.000213,165.313046
433809,0.172647,0.07033,-0.117031,-169.361452,-88.053504,167.009307
433909,0.236656,0.095069,-0.120118,-170.998286,-88.11941,168.781801
434009,0.296223,0.114294,-0.117516,-172.631057,-88.194308,170.584335
434109,0.333068,0.091901,-0.116021,-174.400951,-88.254618,172.545136
434209,0.362795,0.055922,-0.115134,-176.310662,-88.292369,174.662832
434309,0.391242,0.042822,-0.104093,-178.083018,-88.320261,176.659409
434409,0.396554,0.065436,-0.09801,-179.791671,-88.359266,178.595296
434509,0.373257,0.127561,-0.100888,178.30104,-88.432091,-179.283484
434609,0.345366,0.227714,-0.109049,175.843258,-88.55974,-176.627642
434709,0.313821,0.382383,-0.121511,172.028106,-88.770908,-172.632316
434809,0.264913,0.547261,-0.113932,165.508383,-89.066775,-165.960336
434909,0.235013,0.694415,-0.091474,150.598729,-89.419685,-150.915493
435009,0.232663,0.771402,-0.078146,100.919733,-89.664291,-101.102609
435109,0.25035,0.775534,-0.079439,44.670747,-89.46488,-44.709643
435209,0.283468,0.682884,-0.090552,29.16361,-89.11673,-29.039805
435309,0.287082,0.507237,-0.134631,25.710615,-88.822291,-25.422646
435409,0.245417,0.249144,-0.161657,26.778021,-88.652569,-26.350615
435509,0.114821,-0.048826,-0.145374,30.521501,-88.636509,-30.030324
435609,0.010115,-0.218372,-0.118709,35.954,-88.703296,-35.459505
435709,-0.021341,-0.30472,-0.120251,43.49961,-88.793046,-43.020195
435809,0.023157,-0.342659,-0.144842,53.40749,-88.860641,-52.917973
435909,0.04884,-0.336657,-0.157145,64.212108,-88.882766,-63.697846
436009,0.012279,-0.277793,-0.140437,73.266031,-88.864517,-72.747689
436109,-0.06006,-0.228515,-0.105444,80.275453,-88.834647,-79.794199
436209,-0.138756,-0.223329,-0.062717,86.589717,-88.812557,-86.190608
436309,-0.212539,-0.233539,-0.020487,92.892758,-88.800401,-92.618139
436409,-0.285846,-0.242602,0.032921,99.429759,-88.803247,-99.321712
436509,-0.347453,-0.241085,0.102168,106.370176,-88.828551,-106.464051
436609,-0.383136,-0.230136,0.178456,114.087777,-88.878097,-114.404063
436709,-0.40353,-0.221299,0.23706,123.085771,-88.936032,-123.636216
436809,-0.406658,-0.232077,0.264798,133.705652,-88.97176,-134.492153
436909,-0.385961,-0.246191,0.272991,145.162939,-88.965664,-146.173702
437009,-0.329642,-0.237639,0.258144,155.560587,-88.919786,-156.763244
437109,-0.265052,-0.209727,0.224791,163.728221,-88.851401,-165.085535
437209,-0.190251,-0.194001,0.185076,169.770696,-88.76716,-171.239567
437309,-0.132117,-0.178341,0.157516,174.298708,-88.678259,-175.845642
437409,-0.096796,-0.168047,0.144616,177.942224,-88.587692,-179.54689
437509,-0.083859,-0.166883,0.147644,-178.794635,-88.492668,177.13963
437609,-0.077023,-0.182804,0.163259,-175.632888,-88.383521,173.93134
437709,-0.0808,-0.199664,0.177717,-172.652644,-88.259397,170.902277
437809,-0.08731,-0.216013,0.187226,-169.967997,-88.120967,168.165005
437909,-0.083553,-0.234445,0.19552,-167.590823,-87.967582,165.737301
438009,-0.059184,-0.253698,0.187219,-165.732377,-87.801623,163.842397
438109,-0.02074,-0.264394,0.163884,-164.469244,-87.631356,162.565097
438209,0.030596,-0.278895,0.135327,-163.755215,-87.456739,161.866673
438309,0.080246,-0.307346,0.11155,-163.477274,-87.270084,161.633169
438409,0.108084,-0.338237,0.091934,-163.526621,-87.069642,161.743274
438509,0.121541,-0.363591,0.083019,-163.722248,-86.856706,162.007603
438609,0.137798,-0.368469,0.079269,-163.928053,-86.641656,162.291505
438709,0.158613,-0.353971,0.079285,-164.056246,-86.434567,162.509656
438809,0.193418,-0.326052,0.066982,-164.183066,-86.24479,162.746451
438909,0.210999,-0.274879,0.055856,-164.25666,-86.084967,162.940036
439009,0.224696,-0.201014,0.029128,-164.359726,-85.970046,163.171049
439109,0.237448,-0.110467,0.016158,-164.352878,-85.907109,163.299212
439209,0.244575,-0.054559,0.026635,-164.140693,-85.873418,163.225604
439309,0.228917,-0.028235,0.041855,-163.766931,-85.851812,162.98099
439409,0.191941,-0.015698,0.058408,-163.264715,-85.834292,162.586325
439509,0.150101,0.009123,0.081026,-162.563084,-85.826282,161.967661
439609,0.121355,0.028227,0.108616,-161.628335,-85.823207,161.098726
439709,0.099644,0.035696,0.142542,-160.437493,-85.816705,159.960526
439809,0.054553,0.036271,0.170696,-159.069473,-85.803093,158.61874
439909,0.002144,0.032821,0.196902,-157.562983,-85.779652,157.107944
440009,-0.044989,0.006003,0.214342,-156.062422,-85.735262,155.575919
440109,-0.074909,0.001066,0.22012,-154.58793,-85.684018,154.05271
440209,-0.086178,0.068175,0.210357,-152.992721,-85.666752,152.401858
440309,-0.079369,0.200986,0.187974,-151.071398,-85.718966,150.427887
440409,-0.048714,0.39868,0.164838,-148.437867,-85.869875,147.757638
440509,-0.03699,0.640686,0.146041,-144.575551,-86.131186,143.863036
440609,-0.077024,0.816035,0.138248,-139.216264,-86.451864,138.446702
440709,-0.118817,0.889029,0.140535,-132.323644,-86.762607,131.472243
440809,-0.182735,0.901863,0.157776,-123.926273,-87.012571,122.9561
440909,-0.226741,0.825373,0.193488,-114.90385,-87.150067,113.790365
441009,-0.244279,0.594421,0.208711,-107.777403,-87.163988,106.513453
441109,-0.21035,0.300495,0.181226,-104.017683,-87.11256,102.626784
441209,-0.125296,0.070142,0.123029,-103.001677,-87.054682,101.535979
441309,-0.008799,-0.075264,0.057754,-103.672894,-87.01378,102.201447
441409,0.069173,-0.124953,-0.005919,-104.980951,-87.000557,103.54939
441509,0.108672,-0.116323,-0.043811,-106.280278,-87.007938,104.911281
441609,0.108523,-0.059339,-0.063187,-107.050142,-87.033983,105.742926
441709,0.126683,0.007152,-0.062435,-107.112712,-87.070432,105.876789
441809,0.157072,0.049917,-0.052794,-106.66479,-87.108677,105.516983
441909,0.204087,0.075381,-0.04983,-105.888506,-87.149131,104.855432
442009,0.249769,0.094534,-0.045119,-104.835556,-87.189315,103.943139
442109,0.269321,0.100442,-0.034834,-103.646708,-87.223704,102.906049
442209,0.260933,0.113319,-0.03245,-102.279085,-87.257273,101.685192
442309,0.252851,0.128457,-0.043942,-100.73135,-87.297528,100.2794
442409,0.237018,0.100443,-0.079304,-99.562663,-87.353325,99.244004
442509,0.220466,0.069621,-0.116102,-98.814341,-87.426325,98.61993
442609,0.188526,0.076492,-0.149429,-98.017026,-87.518431,97.928498
442709,0.132322,0.108554,-0.175765,-96.801369,-87.627346,96.786143
442809,0.057456,0.141904,-0.197299,-95.063096,-87.749253,95.077893
442909,-0.019339,0.153165,-0.203772,-93.006516,-87.872985,93.007205
443009,-0.086301,0.156584,-0.199254,-90.680885,-87.991094,90.629059
443109,-0.147837,0.151115,-0.200151,-88.196679,-88.10605,88.057142
443209,-0.173111,0.138287,-0.202588,-85.638674,-88.218833,85.397074
443309,-0.190258,0.12159,-0.214533,-83.041504,-88.335422,82.688166
443409,-0.199685,0.108579,-0.223758,-80.295979,-88.4544,79.825612
443509,-0.200757,0.066934,-0.224217,-78.024865,-88.574481,77.437188
443609,-0.205249,0.012379,-0.208538,-76.75604,-88.690618,76.048905
443709,-0.214179,-0.033439,-0.181998,-76.629471,-88.797564,75.798118
443809,-0.232341,-0.068172,-0.150742,-77.693906,-88.891498,76.728202
443909,-0.260183,-0.080726,-0.119317,-79.543679,-88.968684,78.427797
444009,-0.289248,-0.088072,-0.088814,-82.090599,-89.028006,80.80797
444109,-0.307708,-0.09119,-0.069855,-85.132158,-89.07462,83.672257
444209,-0.293412,-0.101016,-0.051566,-88.848375,-89.108172,87.219473
444309,-0.260967,-0.136041,-0.038261,-94.106067,-89.129065,92.326943
444409,-0.215812,-0.180935,-0.03475,-101.204729,-89.135932,99.301489
444509,-0.177113,-0.206683,-0.03202,-109.168012,-89.123468,107.162978
444609,-0.150792,-0.196368,-0.030858,-116.399378,-89.09697,114.307637
444709,-0.129521,-0.162219,-0.03326,-122.145856,-89.06888,119.979509
444809,-0.103605,-0.117182,-0.045446,-126.509282,-89.053239,124.28307
444909,-0.068139,-0.078173,-0.056751,-129.917352,-89.051783,127.651514
445009,-0.035487,-0.041692,-0.067758,-132.614296,-89.0659,130.32747
445109,-0.013254,-0.010243,-0.078508,-134.848663,-89.095032,132.553538
445209,0.007268,0.007907,-0.087836,-137.005643,-89.133974,134.713976
445309,0.034371,0.010214,-0.09036,-139.360511,-89.17353,137.087861
445409,0.077261,0.005366,-0.095788,-142.223087,-89.21127,139.994088
445509,0.1273,-0.014508,-0.105402,-146.1654,-89.240503,144.008829
445609,0.187221,-0.04246,-0.124881,-151.725377,-89.257178,149.675718
445709,0.249154,-0.056507,-0.150859,-158.757829,-89.264521,156.850711
445809,0.301463,-0.055688,-0.163362,-166.320063,-89.262634,164.585543
445909,0.33206,-0.047827,-0.155173,-173.296606,-89.251794,171.752226
446009,0.338047,-0.021906,-0.142972,-179.437168,-89.244846,178.086347
446109,0.329369,0.038154,-0.137347,174.594988,-89.263791,-175.757216
446209,0.307547,0.15202,-0.130671,167.543521,-89.33877,-168.529637
446309,0.27561,0.310309,-0.133636,154.992624,-89.483793,-155.820831
446409,0.263678,0.446207,-0.148356,125.018907,-89.630109,-125.69591
446509,0.296548,0.515541,-0.177821,78.473025,-89.586389,-78.979915
446609,0.297729,0.535228,-0.225849,54.071591,-89.337987,-54.407733
446709,0.230155,0.506837,-0.278641,45.823515,-89.027233,-46.027861
446809,0.142443,0.370313,-0.295935,44.339984,-88.756542,-44.463362
446909,0.059606,0.10193,-0.267755,47.216505,-88.605105,-47.307441
447009,-0.011787,-0.185576,-0.194532,53.466643,-88.586447,-53.567184
447109,-0.087323,-0.420399,-0.133624,63.602084,-88.646416,-63.756609
447209,-0.182147,-0.481891,-0.097714,75.495803,-88.68992,-75.758945
447309,-0.222637,-0.438801,-0.076575,86.525475,-88.685043,-86.920169
447409,-0.23562,-0.37213,-0.059354,95.522763,-88.646268,-96.056049
447509,-0.250933,-0.246935,-0.031407,101.10498,-88.607096,-101.78485
447609,-0.243661,-0.123999,0.017639,103.892037,-88.600707,-104.713588
447709,-0.240953,-0.068295,0.066553,105.709832,-88.626688,-106.671243
447809,-0.250059,-0.041728,0.109403,107.288344,-88.679105,-108.39475
447909,-0.263135,-0.035148,0.164496,109.307921,-88.761381,-110.566878
448009,-0.285812,-0.059196,0.22569,112.91555,-88.868966,-114.340307
448109,-0.31721,-0.104316,0.271384,119.228056,-88.981687,-120.836914
448209,-0.322485,-0.149061,0.300722,128.902666,-89.076117,-130.698894
448309,-0.325181,-0.190139,0.306464,141.518465,-89.122058,-143.503752
448409,-0.300072,-0.227572,0.292359,154.931231,-89.098636,-157.091233
448509,-0.242925,-0.259983,0.263294,166.363668,-89.007136,-168.665583
448609,-0.149721,-0.258867,0.226761,174.531428,-88.881754,-176.921679
448709,-0.069111,-0.218184,0.187617,179.96502,-88.761663,177.602807
448809,-0.014055,-0.168646,0.153393,-176.311709,-88.662064,173.869359
448909,-0.001411,-0.133809,0.133073,-173.479297,-88.578791,171.034121
449009,-0.009644,-0.12195,0.126211,-171.078619,-88.499774,168.625921
449109,-0.033339,-0.106256,0.124205,-168.913937,-88.427448,166.440114
449209,-0.062608,-0.098484,0.123516,-166.938423,-88.357505,164.426675
449309,-0.092349,-0.097412,0.126065,-165.092577,-88.285971,162.525821
449409,-0.108967,-0.10198,0.131594,-163.335056,-88.209351,160.703717
449509,-0.092583,-0.106484,0.123474,-161.877134,-88.130137,159.190664
449609,-0.061305,-0.110432,0.098941,-160.935323,-88.052278,158.211859
449709,-0.016733,-0.112372,0.0778,-160.375617,-87.976971,157.640893
449809,0.023864,-0.134873,0.063382,-160.165025,-87.892192,157.442519
449909,0.052327,-0.17802,0.052766,-160.320935,-87.786208,157.62722
450009,0.081432,-0.21857,0.043874,-160.752385,-87.659995,158.104389
450109,0.091824,-0.247173,0.049062,-161.18846,-87.517197,158.592201
450209,0.098625,-0.259505,0.06538,-161.426054,-87.364614,158.885292
450309,0.101568,-0.259711,0.082665,-161.440865,-87.208763,158.957069
450409,0.108225,-0.257557,0.099746,-161.259641,-87.050984,158.836387
450509,0.125192,-0.25415,0.109948,-160.970805,-86.89317,158.617646
450609,0.138616,-0.21318,0.109337,-160.568171,-86.757607,158.292593
450709,0.1366,-0.13542,0.103673,-159.989719,-86.664974,157.790227
450809,0.130749,-0.059591,0.090226,-159.308311,-86.615484,157.181323
450909,0.115384,-0.006126,0.083527,-158.5273,-86.595542,156.463788
451009,0.096058,0.01827,0.080144,-157.707741,-86.58873,155.69652
451109,0.080152,0.026693,0.088997,-156.790805,-86.583747,154.822555
451209,0.068509,0.044928,0.108142,-155.644236,-86.582993,153.711853
451309,0.039558,0.079255,0.131868,-154.166987,-86.592797,152.253263
451409,-0.018422,0.118511,0.158299,-152.313851,-86.613367,150.384856
451509,-0.073038,0.109359,0.181054,-150.323298,-86.619377,148.34745
451609,-0.140103,0.074303,0.193013,-148.446185,-86.600576,146.385147
451709,-0.189309,0.09091,0.197629,-146.495836,-86.584552,144.321159
451809,-0.208808,0.180688,0.191769,-144.12024,-86.60818,141.81995
451909,-0.184077,0.318661,0.167808,-141.037473,-86.695932,138.624668
452009,-0.103859,0.495639,0.12931,-136.800106,-86.862675,134.31939
452109,-0.003729,0.707315,0.106362,-130.449446,-87.09989,127.956195
452209,0.067532,0.888189,0.093358,-121.239661,-87.356784,118.772867
452309,0.081902,0.9242,0.118593,-109.826677,-87.525966,107.394047
452409,0.035882,0.859481,0.170366,-98.114077,-87.551585,95.689843
452509,-0.00969,0.732155,0.244632,-88.348979,-87.436055,85.908501
452609,-0.019075,0.522027,0.328226,-82.283406,-87.224966,79.824071
452709,0.009698,0.2638,0.351046,-79.924656,-87.003843,77.466552
452809,0.066562,0.013084,0.290577,-80.276263,-86.839552,77.855498
452909,0.160014,-0.171005,0.206738,-82.228964,-86.738381,79.901722
453009,0.231744,-0.285915,0.13585,-85.076888,-86.680139,82.885962
453109,0.241541,-0.327859,0.07742,-88.201591,-86.647879,86.153205
453209,0.250162,-0.336408,0.019028,-91.348339,-86.638733,89.447555
453309,0.308586,-0.301399,-0.027239,-94.129321,-86.647041,92.409063
453409,0.381458,-0.239061,-0.053512,-96.299007,-86.666052,94.800045
453509,0.434334,-0.159617,-0.073543,-97.710849,-86.697604,96.462221
453609,0.458107,-0.066035,-0.114202,-98.26964,-86.757993,97.283543
453709,0.465357,0.031015,-0.147496,-97.90798,-86.844995,97.187092
453809,0.466097,0.081381,-0.168159,-97.026412,-86.947419,96.570404
453909,0.47166,0.078398,-0.182466,-96.140447,-87.057272,95.952546
454009,0.44301,0.052382,-0.185856,-95.517214,-87.167131,95.581335
454109,0.377323,0.028978,-0.190405,-95.178682,-87.27821,95.45746
454209,0.275831,0.017263,-0.197575,-95.03506,-87.392801,95.470441
454309,0.151684,0.016316,-0.206855,-94.981696,-87.512692,95.502502
454409,0.024558,0.029849,-0.211832,-94.821033,-87.636136,95.354208
454509,-0.09712,0.048182,-0.199665,-94.433601,-87.753488,94.909157
454609,-0.209082,0.048335,-0.190865,-94.054218,-87.865729,94.407969
454709,-0.29949,0.03865,-0.182347,-93.826618,-87.972637,94.006852
454809,-0.368934,0.023685,-0.179445,-93.856397,-88.077296,93.823479
454909,-0.398492,0.006518,-0.177528,-94.200919,-88.180187,93.938094
455009,-0.395083,-0.011044,-0.174294,-94.899791,-88.280385,94.409198
455109,-0.383195,-0.013784,-0.173763,-95.717656,-88.379916,95.006164
455209,-0.356813,-0.011975,-0.162703,-96.546249,-88.472976,95.62899
455309,-0.333443,-0.015159,-0.137138,-97.45183,-88.550984,96.342235
455409,-0.327008,-0.037319,-0.116107,-98.892042,-88.614844,97.593974
455509,-0.319641,-0.049651,-0.102816,-100.696518,-88.669078,99.214304
455609,-0.31129,-0.063231,-0.097415,-102.947957,-88.717281,101.286498
455709,-0.300197,-0.079419,-0.091004,-105.724973,-88.757498,103.890747
455809,-0.286744,-0.09086,-0.084941,-108.907807,-88.789401,106.90861
455909,-0.277558,-0.098026,-0.075503,-112.326511,-88.811012,110.16766
456009,-0.259999,-0.105884,-0.06455,-115.909294,-88.820832,113.600907
456109,-0.242135,-0.12046,-0.052151,-119.708104,-88.815865,117.260503
456209,-0.215788,-0.133473,-0.041956,-123.586621,-88.796952,121.014989
456309,-0.173196,-0.139979,-0.041245,-127.4316,-88.770305,124.760422
456409,-0.125892,-0.128204,-0.055173,-131.07846,-88.748966,128.334884
456509,-0.067944,-0.10118,-0.074043,-134.398929,-88.741422,131.616152
456609,-0.022069,-0.071079,-0.097053,-137.5552,-88.751407,134.759511
456709,-0.004547,-0.042694,-0.110741,-140.543367,-88.77513,137.74478
456809,0.009629,-0.020103,-0.120363,-143.475243,-88.809105,140.68187
456909,0.040914,0.002032,-0.128316,-146.391796,-88.852892,143.621553
457009,0.072058,0.015306,-0.134382,-149.466979,-88.901794,146.737731
457109,0.098505,0.009069,-0.141519,-153.089127,-88.945892,150.416107
457209,0.135244,-0.017928,-0.150538,-157.591794,-88.973087,154.996185
457309,0.191766,-0.055734,-0.164501,-163.069495,-88.975221,160.583852
457409,0.266015,-0.09279,-0.175489,-169.040489,-88.94824,166.707499
457509,0.315668,-0.11427,-0.172693,-174.595505,-88.897831,172.443677
457609,0.330853,-0.0921,-0.165399,-179.390249,-88.850421,177.428285
457709,0.315287,-0.008433,-0.164707,176.083876,-88.843243,-177.864853
457809,0.282015,0.134677,-0.164915,170.985293,-88.909769,-172.60425
457909,0.235817,0.330746,-0.163151,163.519464,-89.074784,-165.002703
458009,0.196446,0.56198,-0.166022,147.744739,-89.331672,-149.114526
458109,0.192993,0.733226,-0.16716,107.798589,-89.524945,-109.056635
458209,0.201143,0.76988,-0.174215,61.875189,-89.373101,-63.016798
458309,0.186494,0.71223,-0.191515,43.372357,-89.032851,-44.406176
458409,0.162538,0.560856,-0.235062,38.040594,-88.700237,-38.98108
458509,0.111274,0.285102,-0.273989,38.974314,-88.473933,-39.852214
458609,-0.008158,0.00649,-0.26902,43.114241,-88.369169,-43.999352
458709,-0.114819,-0.192677,-0.208286,48.74876,-88.359533,-49.702977
458809,-0.193102,-0.328388,-0.182441,56.1609,-88.390693,-57.229813
458909,-0.204118,-0.366432,-0.184867,64.45155,-88.401972,-65.641785
459009,-0.15365,-0.363238,-0.191244,72.689389,-88.375125,-73.972087
459109,-0.130116,-0.302725,-0.181273,79.319985,-88.315304,-80.681232
459209,-0.159967,-0.249473,-0.150406,84.360011,-88.249275,-85.816484
459309,-0.213397,-0.269364,-0.095724,89.313783,-88.201986,-90.89628
459409,-0.262516,-0.317518,-0.036532,94.887632,-88.173329,-96.624771
459509,-0.286565,-0.323355,0.00939,100.47158,-88.152817,-102.377263
459609,-0.293125,-0.297343,0.05978,105.678471,-88.146568,-107.756315
459709,-0.297335,-0.258325,0.121593,110.546309,-88.165746,-112.798519
459809,-0.322959,-0.252522,0.186659,115.88452,-88.206047,-118.325898
459909,-0.352678,-0.27348,0.236728,122.227877,-88.247636,-124.875768
460009,-0.365044,-0.296672,0.26832,129.509124,-88.2718,-132.370882
460109,-0.323878,-0.298437,0.266928,136.899908,-88.265405,-139.951915
460209,-0.24663,-0.288609,0.241997,143.676084,-88.225992,-146.873847
460309,-0.165981,-0.27649,0.219022,149.649015,-88.161863,-152.946093
460409,-0.104142,-0.259365,0.194317,154.687155,-88.081755,-158.047854
460509,-0.062251,-0.238618,0.171069,158.833183,-87.994208,-162.233236
460609,-0.031091,-0.222039,0.160739,162.397664,-87.904235,-165.819089
460709,-0.021455,-0.206778,0.162479,165.629657,-87.815503,-169.066931
460809,-0.022702,-0.185845,0.163175,168.548815,-87.73218,-172.002633
460909,-0.015209,-0.169835,0.171332,171.336387,-87.653136,-174.80254
461009,-0.007921,-0.132851,0.187299,174.102965,-87.590912,-177.57742
461109,-0.008718,-0.061587,0.188429,176.683816,-87.564158,179.833024
461209,0.01728,-0.002094,0.164911,178.889927,-87.566411,177.633413
461309,0.063274,-0.039532,0.128236,-179.376618,-87.54391,175.933231
461409,0.10406,-0.142287,0.093664,-178.152884,-87.461109,174.766565
461509,0.12454,-0.230925,0.066828,-177.379048,-87.327288,174.0619
461609,0.138422,-0.28581,0.043548,-176.973236,-87.162403,173.733557
461709,0.169582,-0.304823,0.021479,-176.842416,-86.987271,173.698388
461809,0.20667,-0.287281,0.021163,-176.692979,-86.822213,173.665859
461909,0.21223,-0.237398,0.03523,-176.381206,-86.685235,173.473928
462009,0.204893,-0.147965,0.067204,-175.728098,-86.598083,172.935854
462109,0.192104,-0.046499,0.106993,-174.651808,-86.566542,171.96647
462209,0.182763,0.036713,0.132036,-173.273256,-86.579733,170.688891
462309,0.147163,0.097532,0.137466,-171.771029,-86.625199,169.26699
462409,0.104256,0.14847,0.122355,-170.317677,-86.698701,167.869474
462509,0.088274,0.178868,0.094085,-169.033329,-86.790309,166.632146
462609,0.086002,0.159281,0.077026,-167.895699,-86.871388,165.54054
462709,0.082727,0.106,0.079199,-166.809128,-86.921231,164.498248
462809,0.08655,0.057604,0.10212,-165.575736,-86.939874,163.311149
462909,0.088847,0.021002,0.131993,-164.124778,-86.932324,161.907495
463009,0.098133,-0.006664,0.153198,-162.549044,-86.904146,160.384187
463109,0.083976,-0.041078,0.169332,-160.96805,-86.852123,158.847422
463209,0.039567,-0.059392,0.178649,-159.440647,-86.786193,157.338746
463309,-0.018373,-0.037597,0.18678,-157.850953,-86.727976,155.734311
463409,-0.075803,0.017718,0.196447,-156.043028,-86.694127,153.878217
463509,-0.114281,0.11259,0.202514,-153.831876,-86.704392,151.596084
463609,-0.103167,0.258035,0.201211,-150.909776,-86.783027,148.608306
463709,-0.053785,0.43097,0.187059,-146.960186,-86.940544,144.62016
463809,-0.0239,0.619669,0.177762,-141.341758,-87.170291,138.978857
463909,-0.013354,0.770554,0.174886,-133.457524,-87.42949,131.076522
464009,-0.013917,0.790151,0.174685,-123.807027,-87.636151,121.407458
464109,-0.03343,0.69729,0.202085,-113.79034,-87.728953,111.361793
464209,-0.040186,0.545253,0.234037,-105.29194,-87.708418,102.832003
464309,-0.084585,0.317059,0.231891,-100.27584,-87.620297,97.761609
464409,-0.117285,0.04506,0.171574,-99.349253,-87.52913,96.765291
464509,-0.089252,-0.176379,0.092004,-101.459478,-87.460298,98.824688
464609,-0.025634,-0.308474,0.019948,-105.262107,-87.409549,102.614755
464709,0.005606,-0.31916,-0.043305,-109.269949,-87.380139,106.628286
464809,0.075241,-0.256183,-0.07736,-112.575812,-87.370234,109.979133
464909,0.160806,-0.20324,-0.084152,-115.24006,-87.368143,112.736836
465009,0.222799,-0.123066,-0.078339,-116.938076,-87.378381,114.562898
465109,0.265054,0.003983,-0.079365,-117.212678,-87.420769,114.988333
465209,0.321356,0.115788,-0.096088,-116.266902,-87.500596,114.224514
465309,0.387009,0.162794,-0.113504,-114.7479,-87.600239,112.924687
465409,0.436294,0.178245,-0.124819,-112.939768,-87.707711,111.363867
465509,0.451924,0.184559,-0.133253,-110.916019,-87.818818,109.596341
465609,0.427291,0.185912,-0.142479,-108.733505,-87.932572,107.655915
465709,0.392407,0.151042,-0.171207,-107.036895,-88.05338,106.181776
465809,0.341302,0.087426,-0.20868,-106.45042,-88.183229,105.789111
465909,0.269372,0.047007,-0.243734,-106.782847,-88.325718,106.274501
466009,0.17392,0.02824,-0.262708,-107.756554,-88.475266,107.346616
466109,0.055218,0.016998,-0.266739,-109.309303,-88.6243,108.929811
466209,-0.052845,0.003795,-0.254793,-111.518126,-88.762919,111.107202
466309,-0.129063,2e-06,-0.229745,-114.119543,-88.885283,113.633476
466409,-0.170577,-0.001256,-0.210053,-117.110636,-88.994503,116.52561
466509,-0.176859,0.005277,-0.206624,-120.539958,-89.100659,119.852347
466609,-0.184192,-0.001363,-0.219236,-125.380415,-89.206594,124.586088
466709,-0.173525,-0.020468,-0.237947,-132.891413,-89.305918,131.996608
466809,-0.164487,-0.029105,-0.243636,-143.176898,-89.387794,142.186859
466909,-0.159029,-0.047199,-0.232339,-155.8834,-89.432642,154.801299
467009,-0.145678,-0.077012,-0.211262,-169.048714,-89.427117,167.882217
467109,-0.153023,-0.101701,-0.177268,-179.517386,-89.378941,178.262239
467209,-0.164869,-0.111748,-0.141275,173.514776,-89.310366,-174.865432
467309,-0.165032,-0.134587,-0.106396,169.512609,-89.22469,-170.958957
467409,-0.150744,-0.165315,-0.070607,167.892788,-89.123483,-169.426759
467509,-0.128336,-0.192071,-0.039941,167.808849,-89.010703,-169.417715
467609,-0.108057,-0.208891,-0.015653,168.555318,-88.89137,-170.227549
467709,-0.085819,-0.226797,0.009097,169.899266,-88.764387,-171.622221
467809,-0.058956,-0.236636,0.029027,171.513346,-88.633028,-173.271703
467909,-0.042178,-0.229348,0.041698,173.107485,-88.505828,-174.891645
468009,-0.031858,-0.194563,0.047738,174.510054,-88.397851,-176.314059
468109,-0.013434,-0.14539,0.042511,175.572225,-88.316931,-177.385386
468209,0.009499,-0.093742,0.035919,176.366568,-88.264819,-178.175616
468309,0.02719,-0.055771,0.01329,176.669686,-88.233446,-178.464241
468409,0.038744,-0.018936,-0.009337,176.516121,-88.222392,-178.289322
468509,0.062461,-0.01008,-0.034265,175.910524,-88.215456,-177.648537
468609,0.099801,-0.015163,-0.062449,174.825679,-88.20405,-176.506844
468709,0.149376,-0.008667,-0.087148,173.324791,-88.194112,-174.920459
468809,0.218676,0.002428,-0.113273,171.385311,-88.187013,-172.855501
468909,0.297174,0.026625,-0.144649,168.870601,-88.187982,-170.169981
469009,0.368279,0.043668,-0.161182,166.035638,-88.19248,-167.123231
469109,0.401101,0.056022,-0.15184,163.311669,-88.200582,-164.168653
469209,0.39229,0.078791,-0.140511,160.621506,-88.218751,-161.252899
469309,0.359997,0.151624,-0.132668,157.476367,-88.272934,-157.900462
469409,0.318119,0.289162,-0.111264,153.267518,-88.397333,-153.507983
469509,0.262684,0.47432,-0.092382,146.417304,-88.606395,-146.505365
469609,0.22205,0.64646,-0.094715,133.877592,-88.857692,-133.835889
469709,0.217358,0.746261,-0.116996,112.32993,-89.03821,-112.160708
469809,0.218681,0.801574,-0.161507,84.628361,-89.013206,-84.330613
469909,0.195857,0.802726,-0.216573,63.56517,-88.762842,-63.152085
470009,0.131382,0.658684,-0.242685,53.406519,-88.444983,-52.915994
470109,0.029966,0.343988,-0.237026,50.945837,-88.216073,-50.437998
470209,-0.077952,0.005537,-0.194602,52.983744,-88.125625,-52.522595
470309,-0.15239,-0.242315,-0.164038,58.032745,-88.126136,-57.662677
470409,-0.209818,-0.352069,-0.161723,64.723271,-88.140767,-64.478114
470509,-0.227919,-0.352281,-0.176881,71.504706,-88.121166,-71.39497
470609,-0.225232,-0.27195,-0.174072,76.710934,-88.067005,-76.734428
470709,-0.243281,-0.146643,-0.139089,79.457346,-88.005451,-79.623214
470809,-0.249166,-0.048634,-0.063894,80.287023,-87.973369,-80.597581
470909,-0.249029,-0.022059,0.006717,80.487026,-87.978317,-80.941834
471009,-0.261444,-0.027141,0.06225,80.617775,-88.0151,-81.223916
471109,-0.289295,-0.043881,0.125487,80.851975,-88.089174,-81.625458
471209,-0.322139,-0.065025,0.19418,81.283134,-88.203965,-82.242844
471309,-0.344466,-0.106796,0.264129,82.403782,-88.361596,-83.562741
471409,-0.373275,-0.194155,0.317999,85.60798,-88.553661,-86.983301
471509,-0.377973,-0.277268,0.33707,91.986211,-88.749558,-93.581136
471609,-0.347327,-0.325704,0.331639,102.039397,-88.915148,-103.836648
471709,-0.283987,-0.336864,0.307767,115.187424,-89.020444,-117.150739
471809,-0.202279,-0.320748,0.26128,129.058359,-89.04879,-131.140768
471909,-0.119148,-0.285823,0.209997,140.891158,-89.017102,-143.044766
472009,-0.055898,-0.253916,0.170205,150.02234,-88.951544,-152.210679
472109,-0.028523,-0.246589,0.153929,157.402086,-88.863017,-159.609399
472209,-0.018163,-0.247803,0.148347,163.500283,-88.756865,-165.720622
472309,-0.009939,-0.237043,0.148752,168.55238,-88.644976,-170.781031
472409,-0.011358,-0.2256,0.16291,173.086387,-88.531692,-175.324254
472509,-0.013464,-0.21415,0.171561,177.114838,-88.417363,-179.363194
472609,-0.021258,-0.198703,0.168541,-179.475008,-88.305149,177.211712
472709,-0.032567,-0.179964,0.149369,-176.833022,-88.19904,174.548446
472809,-0.003278,-0.176888,0.122506,-174.92979,-88.092681,172.640933
472909,0.028188,-0.188071,0.104258,-173.528049,-87.979278,171.253104
473009,0.052127,-0.224287,0.095396,-172.469967,-87.844914,170.222766
473109,0.07139,-0.272561,0.084926,-171.771462,-87.683428,169.563209
473209,0.094433,-0.310074,0.078571,-171.306942,-87.500982,169.150965
473309,0.120198,-0.337217,0.074325,-170.991167,-87.30345,168.902321
473409,0.136813,-0.355492,0.078954,-170.686478,-87.095125,168.674254
473509,0.145716,-0.347528,0.092422,-170.25863,-86.889989,168.327912
473609,0.152554,-0.311198,0.099809,-169.739365,-86.704518,167.893857
473709,0.140686,-0.275758,0.098863,-169.224229,-86.538949,167.457037
473809,0.131994,-0.213898,0.094995,-168.682428,-86.408419,166.988432
473909,0.126069,-0.080612,0.087481,-168.000837,-86.353311,166.376303
474009,0.128154,0.027678,0.090138,-167.100926,-86.357987,165.546592
474109,0.10734,0.085046,0.108875,-165.921525,-86.391205,164.424905
474209,0.074776,0.098415,0.138414,-164.446229,-86.425884,162.988092
474309,0.049874,0.102654,0.160473,-162.751048,-86.456855,161.316724
474409,0.042943,0.119091,0.177236,-160.833749,-86.49052,159.418888
474509,0.041814,0.145008,0.196596,-158.623598,-86.530078,157.227071
474609,0.020151,0.155916,0.223579,-156.10109,-86.563937,154.709965
474709,-0.033322,0.137754,0.254115,-153.380289,-86.573965,151.96355
474809,-0.104684,0.110324,0.283341,-150.576475,-86.554338,149.092962
474909,-0.159135,0.13036,0.293575,-147.660094,-86.533039,146.078239
475009,-0.155667,0.209446,0.282846,-144.435837,-86.543132,142.757007
475109,-0.081662,0.320488,0.261346,-140.650285,-86.599042,138.91604
475209,0.017147,0.460153,0.226163,-135.99816,-86.711207,134.264059
475309,0.111306,0.629133,0.198839,-129.847634,-86.874914,128.166044
475409,0.175435,0.771091,0.195174,-121.770889,-87.044606,120.176943
475509,0.140432,0.834189,0.24601,-112.040088,-87.13698,110.512616
475609,0.067306,0.796234,0.297039,-102.313476,-87.110386,100.810885
475709,0.022087,0.690085,0.356237,-94.162111,-86.96594,92.659856
475809,0.002443,0.529544,0.40393,-88.536168,-86.742635,87.025383
475909,0.009522,0.342439,0.392364,-85.405582,-86.50885,83.893344
476009,0.04486,0.167034,0.316216,-84.120795,-86.32085,82.630263
476109,0.105771,0.017567,0.239036,-84.12094,-86.184762,82.689575
476209,0.168708,-0.073775,0.16884,-84.786911,-86.093743,83.452355
476309,0.176392,-0.09671,0.103399,-85.563245,-86.040545,84.330232
476409,0.174056,-0.081569,0.042666,-86.163498,-86.020689,85.030311
476509,0.21691,-0.055742,0.013609,-86.507981,-86.016059,85.498659
476609,0.244962,-0.063801,0.007498,-86.899636,-86.014928,86.030458
476709,0.245516,-0.07859,-0.006668,-87.407546,-86.021982,86.679158
476809,0.23748,-0.046922,-0.028598,-87.653995,-86.040478,87.061175
476909,0.230349,-0.004865,-0.057276,-87.548269,-86.074337,87.086084
477009,0.22459,0.014984,-0.085849,-87.267208,-86.124054,86.931922
477109,0.224353,0.008058,-0.113515,-87.028261,-86.189786,86.819794
477209,0.215192,-0.02679,-0.147912,-87.078568,-86.27627,86.992221
477309,0.171603,-0.059057,-0.186086,-87.435285,-86.385512,87.446553
477409,0.088071,-0.073753,-0.220366,-87.99238,-86.514549,88.05355
477509,-0.00568,-0.056397,-0.249677,-88.471862,-86.659783,88.528824
477609,-0.092167,-0.035277,-0.267711,-88.824749,-86.814902,88.827532
477709,-0.183994,-0.03393,-0.278904,-89.248455,-86.976346,89.144384
477809,-0.270271,-0.041032,-0.289876,-89.845259,-87.143978,89.58499
477909,-0.328371,-0.049153,-0.294689,-90.640134,-87.314075,90.190503
478009,-0.324061,-0.069054,-0.282421,-91.781066,-87.476377,91.144848
478109,-0.334223,-0.106267,-0.272951,-93.578914,-87.631085,92.750798
478209,-0.329982,-0.130838,-0.265799,-95.960562,-87.777917,94.94332
478309,-0.29851,-0.162975,-0.251593,-99.107579,-87.90984,97.919641
478409,-0.258931,-0.208358,-0.231322,-103.292147,-88.017878,101.95668
478509,-0.231399,-0.254011,-0.214971,-108.570438,-88.097515,107.103669
478609,-0.209802,-0.271383,-0.19766,-114.394714,-88.146988,112.809165
478709,-0.192698,-0.287707,-0.180203,-120.553473,-88.163438,118.859058
478809,-0.182587,-0.296786,-0.16893,-126.75431,-88.150521,124.956885
478909,-0.164136,-0.304377,-0.15794,-132.75756,-88.109173,130.867742
479009,-0.144547,-0.296738,-0.148327,-138.229415,-88.048,136.258367
479109,-0.122918,-0.286794,-0.136238,-143.062532,-87.970867,141.022548
479209,-0.097814,-0.277551,-0.122354,-147.242132,-87.880793,145.147482
479309,-0.073165,-0.254425,-0.113126,-150.763811,-87.789567,148.62846
479409,-0.050523,-0.217532,-0.112797,-153.746874,-87.709685,151.583649
479509,-0.022589,-0.180634,-0.123046,-156.431966,-87.645847,154.256847
479609,0.00525,-0.135953,-0.135217,-158.889336,-87.60358,156.718251
479709,0.046053,-0.08857,-0.145821,-161.162529,-87.584769,159.018823
479809,0.087086,-0.040808,-0.153939,-163.29272,-87.589781,161.199855
479909,0.114267,0.011348,-0.164468,-165.372329,-87.621859,163.345852
480009,0.152506,0.050359,-0.169222,-167.430673,-87.673083,165.492463
480109,0.192384,0.068704,-0.179679,-169.657863,-87.7325,167.830866
480209,0.226791,0.060063,-0.193942,-172.210308,-87.784377,170.514437
480309,0.25642,0.050398,-0.208005,-175.088995,-87.82662,173.541414
480409,0.295053,0.052246,-0.221695,-178.262581,-87.864197,176.885599
480509,0.369258,0.028398,-0.217145,178.583114,-87.881091,-179.746977
480609,0.440196,-0.036743,-0.185573,175.992582,-87.855258,-176.902968
480709,0.469149,-0.062058,-0.14285,174.171097,-87.81305,-174.811812
480809,0.46307,-0.012103,-0.105984,172.8682,-87.799602,-173.242993
480909,0.406963,0.13754,-0.066045,171.817523,-87.873062,-171.958702
481009,0.324016,0.334146,-0.008441,171.050208,-88.062162,-171.005582
481109,0.241998,0.546749,-0.005709,169.354497,-88.370897,-169.170811
481209,0.214558,0.711545,-0.070092,164.158594,-88.759493,-163.850895
481309,0.245063,0.771687,-0.137178,151.06705,-89.141293,-150.617465
481409,0.236953,0.717163,-0.207259,122.597459,-89.366694,-122.010596
481509,0.204928,0.562328,-0.266023,91.651838,-89.313397,-90.946468
481609,0.179695,0.382322,-0.281728,76.854093,-89.128509,-76.045368
481709,0.16925,0.093563,-0.249945,75.844462,-88.975906,-74.939606
481809,0.089151,-0.148297,-0.200255,81.553242,-88.879164,-80.599323
481909,0.012534,-0.238955,-0.179161,88.694776,-88.787564,-87.736221
482009,-0.022432,-0.232873,-0.176827,94.59098,-88.681506,-93.64784
482109,-0.021556,-0.213837,-0.162816,99.187422,-88.573243,-98.259139
482209,-0.053247,-0.168074,-0.124767,102.318143,-88.484096,-101.422662
482309,-0.126826,-0.105844,-0.057396,104.158154,-88.437226,-103.337344
482409,-0.18644,-0.105292,0.011788,106.239242,-88.426911,-105.52745
482509,-0.226388,-0.138914,0.063883,109.282413,-88.436429,-108.702959
482609,-0.254308,-0.172729,0.104023,113.329319,-88.454904,-112.898601
482709,-0.280935,-0.191197,0.148852,118.242612,-88.482946,-117.976176
482809,-0.308138,-0.182974,0.210219,123.890162,-88.530961,-123.803756
482909,-0.331736,-0.184984,0.263562,130.678603,-88.585915,-130.785956
483009,-0.35324,-0.217124,0.296341,138.986643,-88.617661,-139.300368
483109,-0.349046,-0.26119,0.303432,148.192847,-88.599388,-148.710741
483209,-0.299182,-0.252248,0.281145,156.421241,-88.545263,-157.114543
483309,-0.210935,-0.219273,0.242385,162.959305,-88.474754,-163.777085
483409,-0.122995,-0.176317,0.20152,167.897003,-88.405285,-168.788478
483509,-0.072858,-0.126161,0.161268,171.491157,-88.350067,-172.42721
483609,-0.050383,-0.093277,0.138428,174.352995,-88.306254,-175.320536
483709,-0.056505,-0.082404,0.13904,177.06029,-88.264654,-178.062838
483809,-0.077591,-0.079953,0.139078,179.62234,-88.22075,179.328004
483909,-0.097297,-0.09158,0.140024,-177.947168,-88.166749,176.839087
484009,-0.119427,-0.095307,0.140276,-175.674849,-88.107453,174.495646
484109,-0.104736,-0.0988,0.143076,-173.497956,-88.043116,172.256014
484209,-0.070891,-0.089663,0.132393,-171.595323,-87.982147,170.310115
484309,-0.021468,-0.072472,0.105643,-170.148971,-87.931409,168.849044
484409,0.028253,-0.087231,0.088685,-169.046034,-87.872973,167.76007
484509,0.043367,-0.134885,0.075813,-168.327318,-87.788594,167.064204
484609,0.068912,-0.196314,0.073232,-167.866699,-87.669824,166.641232
484709,0.099237,-0.249925,0.077116,-167.53604,-87.520467,166.365671
484809,0.128372,-0.295463,0.083328,-167.273071,-87.344829,166.174528
484909,0.158006,-0.312369,0.08563,-167.039869,-87.159443,166.030135
485009,0.193827,-0.300855,0.073726,-166.907756,-86.982039,166.007466
485109,0.227999,-0.251313,0.064003,-166.746508,-86.83359,165.975208
485209,0.237467,-0.18517,0.051187,-166.560758,-86.723764,165.923826
485309,0.227829,-0.109057,0.046983,-166.253426,-86.656939,165.745113
485409,0.207153,-0.036106,0.047036,-165.795475,-86.630654,165.403639
485509,0.191929,0.015531,0.045067,-165.244316,-86.633166,164.960048
485609,0.172667,0.039021,0.055348,-164.546129,-86.646886,164.358118
485709,0.140589,0.030137,0.072365,-163.725137,-86.652605,163.614763
485809,0.115381,0.039549,0.086554,-162.755828,-86.660495,162.708369
485909,0.086555,0.05731,0.112113,-161.505084,-86.672586,161.503516
486009,0.032154,0.064798,0.135305,-160.036607,-86.682718,160.049334
486109,-0.039558,0.071696,0.16698,-158.284756,-86.687746,158.270128
486209,-0.116904,0.071284,0.201994,-156.258346,-86.681441,156.171465
486309,-0.197776,0.069785,0.215552,-154.1758,-86.66679,153.970064
486409,-0.221787,0.101906,0.20751,-152.051393,-86.666012,151.712853
486509,-0.2011,0.16586,0.184689,-149.797052,-86.698672,149.337331
486609,-0.154414,0.279219,0.161063,-147.053796,-86.787828,146.499009
486709,-0.105422,0.445679,0.154594,-143.136942,-86.947947,142.513808
486809,-0.080029,0.640412,0.156324,-137.284846,-87.174296,136.606165
486909,-0.08463,0.80316,0.179356,-128.735711,-87.415246,127.997131
487009,-0.108508,0.869004,0.215804,-117.693625,-87.586903,116.880589
487109,-0.1331,0.842182,0.240359,-105.774038,-87.639477,104.872672
487209,-0.114851,0.746938,0.252823,-95.119443,-87.575795,94.141286
487309,-0.064752,0.554618,0.246087,-87.760389,-87.443923,86.736492
487409,0.001239,0.300917,0.201863,-84.172829,-87.317688,83.14421
487509,0.062859,0.101886,0.123954,-83.078914,-87.241939,82.083408
487609,0.124982,-0.016149,0.027961,-83.236304,-87.228453,82.310941
487709,0.207247,-0.040518,-0.034655,-83.549705,-87.252152,82.741856
487809,0.251949,-0.116076,-0.03962,-84.746345,-87.282777,84.082681
487909,0.255786,-0.189366,-0.033108,-86.868115,-87.310834,86.351881
488009,0.253643,-0.194835,-0.016952,-89.105542,-87.325594,88.735649
488109,0.279267,-0.167246,0.005871,-91.006119,-87.323193,90.796937
488209,0.306417,-0.151694,0.018486,-92.688623,-87.3108,92.655534
488309,0.328635,-0.135927,0.009681,-94.158374,-87.301569,94.313919
488409,0.339173,-0.10051,-0.002936,-95.198026,-87.299482,95.547775
488509,0.334126,-0.07045,-0.010351,-95.885564,-87.302415,96.426213
488609,0.313686,-0.058839,-0.038077,-96.485252,-87.321418,97.204926
488709,0.291654,-0.069343,-0.078537,-97.300614,-87.362304,98.186824
488809,0.245698,-0.101519,-0.129256,-98.670268,-87.428585,99.697114
488909,0.179547,-0.14132,-0.179441,-100.789104,-87.517292,101.919216
489009,0.100106,-0.154563,-0.21985,-103.416424,-87.62297,104.604486
489109,0.031756,-0.139931,-0.239299,-106.199669,-87.736115,107.406366
489209,-0.045872,-0.133186,-0.241424,-109.227593,-87.845733,110.408358
489309,-0.117459,-0.113698,-0.242848,-112.330356,-87.953754,113.443967
489409,-0.165768,-0.099025,-0.241628,-115.559986,-88.058255,116.578618
489509,-0.188612,-0.109457,-0.242572,-119.322571,-88.153653,120.233237
489609,-0.193709,-0.127767,-0.252922,-123.863693,-88.239632,124.663678
489709,-0.187943,-0.126232,-0.269943,-129.0128,-88.321919,129.7055
489809,-0.181706,-0.127323,-0.270448,-134.656516,-88.389419,135.245545
489909,-0.188454,-0.154548,-0.253626,-140.81729,-88.422156,141.298881
490009,-0.201037,-0.172296,-0.222839,-146.831451,-88.418181,147.198341
490109,-0.215682,-0.169859,-0.186007,-152.070379,-88.388734,152.313974
490209,-0.220121,-0.162555,-0.149139,-156.357574,-88.342136,156.475086
490309,-0.217556,-0.156053,-0.117721,-159.783053,-88.284409,159.775737
490409,-0.207489,-0.151198,-0.090975,-162.475091,-88.219273,162.348538
490509,-0.182471,-0.153969,-0.069629,-164.609109,-88.145927,164.377535
490609,-0.164351,-0.15983,-0.051671,-166.297882,-88.064668,165.971578
490709,-0.161358,-0.155214,-0.037923,-167.615714,-87.982886,167.196316
490809,-0.16792,-0.142117,-0.025872,-168.611091,-87.906226,168.094756
490909,-0.162829,-0.112272,-0.011823,-169.242013,-87.844398,168.631515
491009,-0.139575,-0.048054,-0.001212,-169.49772,-87.817508,168.806204
491109,-0.082599,0.027831,0.000957,-169.476796,-87.833171,168.736783
491209,-0.029126,0.079509,-0.011582,-169.46753,-87.87929,168.709728
491309,0.007408,0.104633,-0.029337,-169.640446,-87.941439,168.885953
491409,0.038398,0.116892,-0.053975,-170.170256,-88.012969,169.437083
491509,0.059704,0.11354,-0.077065,-171.126948,-88.084531,170.427564
491609,0.079235,0.107116,-0.102815,-172.615898,-88.153839,171.961773
491709,0.105917,0.106137,-0.125683,-174.627218,-88.222511,174.033876
491809,0.163243,0.127657,-0.158001,-177.365712,-88.302033,176.866304
491909,0.254843,0.141082,-0.186607,179.102345,-88.384696,-179.45505
492009,0.355119,0.105076,-0.195997,175.127663,-88.439335,-175.276067
492109,0.406003,0.071729,-0.186169,171.23504,-88.4676,-171.150008
492209,0.385769,0.094862,-0.182822,167.161096,-88.501515,-166.854138
492309,0.311121,0.177372,-0.164738,162.710247,-88.575395,-162.22405
492409,0.211354,0.355707,-0.120257,157.043325,-88.743577,-156.434924
492509,0.135311,0.576621,-0.088683,146.847542,-89.012634,-146.160165
492609,0.115937,0.753313,-0.112409,123.180483,-89.27813,-122.424736
492709,0.134008,0.867869,-0.179683,81.805,-89.285167,-80.970175
492809,0.20673,0.81763,-0.243561,56.143527,-88.978275,-55.1883
492909,0.161726,0.567461,-0.294954,48.777503,-88.644673,-47.728995
493009,0.018215,0.262528,-0.328573,49.193988,-88.403219,-48.136242
493109,-0.128827,-0.058347,-0.30832,53.847217,-88.284999,-52.866394
493209,-0.319212,-0.319794,-0.269952,61.545382,-88.251453,-60.752252
493309,-0.487233,-0.47599,-0.227187,71.160077,-88.240819,-70.652003
493409,-0.538103,-0.549975,-0.190668,81.590858,-88.207846,-81.39758
493509,-0.52781,-0.512347,-0.166926,90.674693,-88.130934,-90.790044
493609,-0.509273,-0.380681,-0.139589,96.741414,-88.035729,-97.153641
493709,-0.493361,-0.23246,-0.090763,100.018161,-87.963619,-100.716836
493809,-0.45845,-0.152531,-0.016182,102.104369,-87.936472,-103.068886
493909,-0.461924,-0.112611,0.036882,103.720604,-87.941344,-104.952701
494009,-0.470965,-0.098678,0.087913,105.342814,-87.974607,-106.847652
494109,-0.486578,-0.11436,0.168324,107.665136,-88.047187,-109.451988
494209,-0.501557,-0.136334,0.263056,111.120682,-88.162223,-113.198542
494309,-0.512882,-0.168233,0.344547,116.262985,-88.303209,-118.638796
494409,-0.506053,-0.237323,0.388994,124.020388,-88.426799,-126.690844
494509,-0.462803,-0.314854,0.401807,134.367896,-88.490351,-137.30871
494609,-0.380857,-0.348532,0.383318,145.365976,-88.478092,-148.530239
494709,-0.274718,-0.322402,0.329456,154.623685,-88.411286,-157.950129
494809,-0.148171,-0.269239,0.263499,161.4572,-88.323587,-164.872673
494909,-0.039135,-0.229873,0.217355,166.596156,-88.230296,-170.037734
495009,0.017666,-0.212902,0.179247,170.510487,-88.130289,-173.945288
495109,0.048876,-0.201671,0.162782,173.737894,-88.027865,-177.147899
495209,0.049348,-0.190922,0.164491,176.65625,-87.926078,179.958776
495309,0.028495,-0.168996,0.183222,179.563544,-87.832165,177.064348
495409,-0.000691,-0.14308,0.197069,-177.577321,-87.747717,174.201164
495509,-0.023288,-0.125432,0.195867,-174.939557,-87.668229,171.546363
495609,-0.034546,-0.120528,0.177291,-172.730074,-87.588281,169.313557
495709,-0.023978,-0.147862,0.157249,-170.977455,-87.491328,167.543911
495809,-0.01489,-0.18214,0.136416,-169.687747,-87.375056,166.242679
495909,0.000371,-0.215645,0.131448,-168.637407,-87.239317,165.18968
496009,0.015238,-0.248823,0.127539,-167.800355,-87.084651,164.358618
496109,0.033423,-0.276568,0.120987,-167.171389,-86.914795,163.74623
496209,0.052998,-0.305565,0.116506,-166.707393,-86.729067,163.310188
496309,0.077706,-0.319992,0.119533,-166.28257,-86.534752,162.927471
496409,0.097916,-0.306621,0.133297,-165.740433,-86.345824,162.438724
496509,0.078028,-0.263148,0.136226,-165.141076,-86.180343,161.881104
496609,0.078126,-0.216227,0.140162,-164.455345,-86.039876,161.236848
496709,0.09692,-0.174042,0.149618,-163.637361,-85.920661,160.470689
496809,0.118915,-0.11235,0.155688,-162.663556,-85.833507,159.560835
496909,0.124901,-0.03912,0.162313,-161.497948,-85.783961,158.462024
497009,0.105951,0.007848,0.169389,-160.196448,-85.756839,157.216019
497109,0.067144,0.026816,0.183665,-158.778961,-85.734898,155.831383
497209,0.043545,0.034046,0.201556,-157.242519,-85.710358,154.313867
497309,0.029227,0.040269,0.219713,-155.587555,-85.681816,152.669215
497409,0.004364,0.039718,0.240008,-153.834361,-85.644393,150.911688
497509,-0.037614,0.030443,0.263024,-152.017664,-85.592139,149.066227
497609,-0.09349,0.017412,0.285097,-150.184794,-85.5228,147.172246
497709,-0.136898,0.018246,0.296475,-148.3628,-85.44594,145.263978
497809,-0.155207,0.064804,0.292264,-146.458093,-85.388079,143.261955
497909,-0.142882,0.155913,0.270279,-144.349781,-85.37487,141.062574
498009,-0.100134,0.289071,0.229745,-141.876867,-85.429677,138.521994
498109,-0.043551,0.467605,0.184039,-138.71043,-85.569966,135.318592
498209,0.001996,0.66679,0.146496,-134.437123,-85.791485,131.032153
498309,0.011368,0.819134,0.135302,-128.799688,-86.047222,125.384887
498409,-0.048136,0.865854,0.169588,-121.982173,-86.257366,118.522379
498509,-0.130661,0.780719,0.234627,-114.976864,-86.354291,111.425576
498609,-0.181118,0.548337,0.280423,-109.587098,-86.326232,105.918934
498709,-0.171714,0.257466,0.282322,-106.76536,-86.219985,102.990736
498809,-0.124302,0.069138,0.232788,-105.720934,-86.104422,101.870675
498909,-0.07689,-0.013853,0.154373,-105.538377,-86.018491,101.641597
499009,-0.015347,-0.058172,0.086731,-105.822806,-85.962985,101.915979
499109,0.031077,-0.123353,0.025905,-106.714165,-85.93023,102.825505
499209,0.083813,-0.149802,-0.019736,-107.874526,-85.916732,104.035069
