SampleTimeFine,Roll,Pitch,Yaw
524388,-0.659318,-79.945343,0.649192
524488,-0.719934,-79.944401,0.732361
524588,-0.778075,-79.941904,0.812839
524688,-0.825028,-79.941502,0.880972
524788,-0.839862,-79.940882,0.919703
524888,-0.814949,-79.939709,0.923305
524988,-0.761558,-79.933116,0.900398
525088,-0.687011,-79.916081,0.858108
525188,-0.600718,-79.888419,0.803358
525288,-0.523159,-79.850692,0.754486
525388,-0.468328,-79.808791,0.726608
525488,-0.436101,-79.768301,0.720299
525588,-0.436309,-79.730954,0.741578
525688,-0.444355,-79.697847,0.765958
525788,-0.446833,-79.670524,0.781027
525888,-0.436153,-79.646596,0.780277
525988,-0.412717,-79.621033,0.761818
526088,-0.369572,-79.593259,0.721897
526188,-0.316162,-79.561686,0.671883
526288,-0.261384,-79.527695,0.618253
526388,-0.214471,-79.493284,0.569776
526488,-0.168892,-79.459463,0.518942
526588,-0.12565,-79.42645,0.465872
526688,-0.092999,-79.396285,0.418613
526788,-0.060739,-79.370511,0.366445
526888,-0.024241,-79.341935,0.307416
526988,0.017793,-79.304553,0.249124
527088,0.068889,-79.25258,0.18618
527188,0.138445,-79.194213,0.108084
527288,0.21727,-79.137588,0.020377
527388,0.292837,-79.095546,-0.067407
527488,0.352419,-79.064727,-0.144744
527588,0.397503,-79.025767,-0.2079
527688,0.421024,-78.968682,-0.247703
527788,0.430216,-78.901502,-0.271889
527888,0.440708,-78.837121,-0.296475
527988,0.459638,-78.79072,-0.325399
528088,0.507251,-78.769889,-0.373749
528188,0.578595,-78.76696,-0.439208
528288,0.672589,-78.766286,-0.522029
528388,0.774506,-78.757643,-0.608792
528488,0.872023,-78.736753,-0.688628
528588,0.953447,-78.706215,-0.75358
528688,1.019246,-78.673007,-0.803985
528788,1.066816,-78.641405,-0.842253
528888,1.101181,-78.616633,-0.873595
528988,1.127281,-78.598372,-0.902676
529088,1.14487,-78.583791,-0.92474
529188,1.158318,-78.570771,-0.946283
529288,1.185265,-78.552563,-0.976743
529388,1.212184,-78.531545,-1.002109
529488,1.260085,-78.503786,-1.041765
529588,1.313969,-78.467944,-1.08058
529688,1.366689,-78.427719,-1.114833
529788,1.421719,-78.389732,-1.14814
529888,1.485721,-78.356864,-1.186215
529988,1.54658,-78.327296,-1.225108
530088,1.599793,-78.302003,-1.260161
530188,1.639749,-78.284196,-1.288758
530288,1.661586,-78.272212,-1.304787
530388,1.667562,-78.26302,-1.307586
530488,1.672051,-78.253952,-1.307178
530588,1.674203,-78.244415,-1.300048
530688,1.679405,-78.232781,-1.292639
530788,1.690099,-78.218101,-1.287937
530888,1.709747,-78.201689,-1.290343
530988,1.732147,-78.184058,-1.297266
531088,1.748632,-78.164765,-1.298968
531188,1.757013,-78.145778,-1.293633
531288,1.748429,-78.124768,-1.272601
531388,1.730252,-78.1012,-1.242893
531488,1.70566,-78.078737,-1.208611
531588,1.676875,-78.058456,-1.169408
531688,1.654964,-78.040137,-1.132265
531788,1.641511,-78.02006,-1.100811
531888,1.641225,-77.997146,-1.082381
531988,1.645424,-77.970375,-1.068173
532088,1.647917,-77.942104,-1.054204
532188,1.646643,-77.911921,-1.039044
532288,1.63652,-77.88015,-1.01536
532388,1.623053,-77.849989,-0.990537
532488,1.606311,-77.823674,-0.962356
532588,1.59004,-77.801593,-0.935024
532688,1.570321,-77.785947,-0.908504
532788,1.554047,-77.768944,-0.887495
532888,1.547868,-77.744616,-0.871373
532988,1.545299,-77.715858,-0.860751
533088,1.549642,-77.681982,-0.857347
533188,1.549795,-77.65444,-0.853475
533288,1.544822,-77.643662,-0.849362
533388,1.529319,-77.643668,-0.840999
533488,1.501717,-77.638648,-0.817286
533588,1.461136,-77.621093,-0.78369
533688,1.417955,-77.59757,-0.747363
533788,1.379677,-77.576138,-0.713915
533888,1.347145,-77.562641,-0.683184
533988,1.327614,-77.562322,-0.664498
534088,1.32435,-77.57495,-0.65815
534188,1.331354,-77.591417,-0.658733
534288,1.343741,-77.601517,-0.664447
534388,1.356119,-77.59886,-0.671476
534488,1.365226,-77.592172,-0.678495
534588,1.371378,-77.591789,-0.684778
534688,1.383585,-77.604147,-0.696525
534788,1.389343,-77.627707,-0.702205
534888,1.399194,-77.657681,-0.711318
534988,1.40867,-77.684438,-0.718326
535088,1.423356,-77.706037,-0.733929
535188,1.439483,-77.720835,-0.753141
535288,1.452389,-77.734195,-0.770518
535388,1.462211,-77.745712,-0.785121
535488,1.468918,-77.755284,-0.79782
535588,1.465318,-77.771072,-0.800265
535688,1.456085,-77.793555,-0.795988
535788,1.443617,-77.817332,-0.784656
535888,1.434222,-77.838529,-0.774597
535988,1.430824,-77.85646,-0.767576
536088,1.435488,-77.870168,-0.7695
536188,1.45171,-77.88186,-0.781728
536288,1.46758,-77.891451,-0.793709
536388,1.476169,-77.899634,-0.803635
536488,1.467443,-77.906799,-0.798695
536588,1.448231,-77.913707,-0.783977
536688,1.424009,-77.922803,-0.764266
536788,1.393175,-77.935427,-0.739888
536888,1.359349,-77.952844,-0.710261
536988,1.333114,-77.972981,-0.687619
537088,1.314014,-77.997149,-0.671638
537188,1.304596,-78.018083,-0.667595
537288,1.303849,-78.036485,-0.674099
537388,1.310799,-78.0543,-0.688074
537488,1.314187,-78.071107,-0.702581
537588,1.309845,-78.08844,-0.71201
537688,1.291426,-78.105709,-0.70521
537788,1.259241,-78.121658,-0.683962
537888,1.241109,-78.134969,-0.671756
537988,1.234303,-78.1514,-0.664931
538088,1.2402,-78.171163,-0.671227
538188,1.252875,-78.193985,-0.685582
538288,1.262543,-78.217925,-0.701736
538388,1.256515,-78.243941,-0.708434
538488,1.241366,-78.263702,-0.703201
538588,1.209783,-78.273757,-0.678838
538688,1.167771,-78.275611,-0.646246
538788,1.126558,-78.273877,-0.607479
538888,1.099615,-78.282034,-0.584205
538988,1.074731,-78.302933,-0.56422
539088,1.041268,-78.334797,-0.538215
539188,0.998148,-78.361273,-0.495932
539288,0.949111,-78.371092,-0.456511
539388,0.894613,-78.374849,-0.414009
539488,0.843186,-78.377283,-0.37567
539588,0.796204,-78.386659,-0.334141
539688,0.76973,-78.405024,-0.306007
539788,0.75714,-78.433497,-0.293137
539888,0.75117,-78.468458,-0.286257
539988,0.740246,-78.502942,-0.281795
540088,0.72226,-78.531788,-0.256229
540188,0.693493,-78.551762,-0.231379
540288,0.66342,-78.568172,-0.202969
540388,0.625776,-78.584888,-0.171963
540488,0.594086,-78.604904,-0.141481
540588,0.56454,-78.625951,-0.106141
540688,0.537694,-78.645903,-0.070622
540788,0.514934,-78.664829,-0.045025
540888,0.483611,-78.6773,-0.013179
540988,0.443192,-78.692654,0.025542
541088,0.392913,-78.708051,0.084058
541188,0.322708,-78.721897,0.159927
541288,0.233071,-78.738279,0.24021
541388,0.131092,-78.761177,0.335286
541488,0.024069,-78.786821,0.44513
541588,-0.077013,-78.812916,0.5486
541688,-0.166392,-78.837336,0.643422
541788,-0.24788,-78.861751,0.732925
541888,-0.325252,-78.890041,0.821846
541988,-0.406398,-78.922519,0.903312
542088,-0.499698,-78.956988,1.010981
542188,-0.609525,-78.993715,1.101399
542288,-0.746074,-79.03133,1.226768
542388,-0.892891,-79.070013,1.361738
542488,-1.042892,-79.109957,1.514781
542588,-1.190543,-79.1543,1.640017
542688,-1.33114,-79.200871,1.748901
542788,-1.462455,-79.248805,1.842007
542888,-1.586688,-79.298034,1.956385
542988,-1.729034,-79.344787,2.06798
543088,-1.887484,-79.389669,2.170531
543188,-2.0564,-79.432719,2.297196
543288,-2.235597,-79.478153,2.446411
543388,-2.416063,-79.525515,2.583794
543488,-2.596877,-79.576226,2.736715
543588,-2.779395,-79.63133,2.847873
543688,-2.9515,-79.688886,2.913784
543788,-3.133689,-79.742403,3.008217
543888,-3.310656,-79.792774,3.05264
543988,-3.494909,-79.842234,3.067665
544088,-3.691793,-79.891857,3.067529
544188,-3.894093,-79.931978,3.079354
544288,-4.109158,-79.964621,3.078312
544388,-4.318836,-79.990473,3.062545
544488,-4.52425,-80.020571,3.027025
544588,-4.724086,-80.061957,2.929094
544688,-4.915055,-80.120095,2.685808
544788,-5.103981,-80.182885,2.509018
544888,-5.280931,-80.233519,2.134042
544988,-5.453984,-80.266398,1.815961
545088,-5.641926,-80.289258,1.547864
545188,-5.836223,-80.315068,1.406435
545288,-6.050799,-80.355738,1.188036
545388,-6.270786,-80.414299,1.047177
545488,-6.494339,-80.484876,1.121913
545588,-6.700445,-80.558248,1.29624
545688,-6.89405,-80.627465,1.493969
545788,-7.065831,-80.689615,1.666043
545888,-7.201563,-80.744677,1.803421
545988,-7.311867,-80.792909,1.916055
546088,-7.396906,-80.837178,2.00535
546188,-7.477111,-80.879752,2.089926
546288,-7.55812,-80.923146,2.170355
546388,-7.645295,-80.97245,2.249595
546488,-7.745448,-81.029045,2.329472
546588,-7.854687,-81.089022,2.411638
546688,-7.962735,-81.153579,2.489635
546788,-8.053888,-81.21828,2.54948
546888,-8.122798,-81.282487,2.590118
546988,-8.172515,-81.346402,2.616893
547088,-8.206102,-81.412194,2.62762
547188,-8.234863,-81.47827,2.634949
547288,-8.257755,-81.546932,2.634835
547388,-8.279768,-81.619187,2.630279
547488,-8.305277,-81.6929,2.626685
547588,-8.330802,-81.766127,2.617822
547688,-8.357128,-81.834444,2.604727
547788,-8.379034,-81.899994,2.587432
547888,-8.406622,-81.963877,2.58314
547988,-8.438324,-82.030237,2.596864
548088,-8.498933,-82.107444,2.65647
548188,-8.599779,-82.192626,2.772574
548288,-8.737191,-82.276104,2.93407
548388,-8.892777,-82.342129,3.115761
548488,-9.058181,-82.387378,3.30434
548588,-9.236915,-82.421284,3.508007
548688,-9.415112,-82.454098,3.71618
548788,-9.57529,-82.48586,3.910245
548888,-9.698499,-82.51608,4.065795
548988,-9.765747,-82.544511,4.159966
549088,-9.784166,-82.572818,4.201784
549188,-9.730924,-82.605131,4.172388
549288,-9.619813,-82.640858,4.091943
549388,-9.477671,-82.686557,3.990263
549488,-9.325398,-82.748516,3.893316
549588,-9.185452,-82.83056,3.827468
549688,-9.082669,-82.934953,3.813586
549788,-9.011511,-83.054703,3.839049
549888,-8.993368,-83.177235,3.924333
549988,-9.041016,-83.295625,4.079647
550088,-9.179866,-83.408256,4.325784
550188,-9.412903,-83.521033,4.660015
550288,-9.697684,-83.634909,5.037098
550388,-10.031658,-83.758787,5.455842
550488,-10.424354,-83.891943,5.923349
550588,-10.83928,-84.014641,6.401357
550688,-11.270186,-84.112471,6.886654
550788,-11.668075,-84.189508,7.334395
550888,-12.033473,-84.255551,7.749719
550988,-12.354469,-84.327075,8.124458
551088,-12.649459,-84.418776,8.480212
551188,-12.916056,-84.528901,8.816134
551288,-13.151223,-84.649826,9.127516
551388,-13.32155,-84.768517,9.374566
551488,-13.408605,-84.879991,9.53513
551588,-13.398081,-84.983476,9.595291
551688,-13.263918,-85.079213,9.527362
551788,-13.014635,-85.165534,9.342831
551888,-12.662098,-85.241738,9.054878
551988,-12.239031,-85.311488,8.699622
552088,-11.796034,-85.37886,8.329859
552188,-11.354858,-85.447294,7.967385
552288,-10.932566,-85.514744,7.633855
552388,-10.522594,-85.582718,7.319082
552488,-10.05907,-85.642868,6.951434
552588,-9.510063,-85.694233,6.495863
552688,-8.858028,-85.735342,5.931841
552788,-8.068192,-85.767681,5.226728
552888,-7.135108,-85.788176,4.375736
552988,-6.030629,-85.799835,3.350622
553088,-4.833338,-85.80472,2.231522
553188,-3.563521,-85.809977,1.037399
553288,-2.249557,-85.815297,-0.206563
553388,-0.915976,-85.816808,-1.477285
553488,0.395459,-85.812752,-2.7305
553588,1.760458,-85.800667,-4.04056
553688,3.143366,-85.774954,-5.372132
553788,4.551021,-85.743753,-6.727393
553888,5.934825,-85.705488,-8.059519
553988,7.257932,-85.646802,-9.349597
554088,8.529143,-85.562943,-10.613546
554188,9.760064,-85.453089,-11.864366
554288,10.890094,-85.330245,-13.034909
554388,11.955336,-85.205729,-14.141861
554488,12.965872,-85.088033,-15.178392
554588,13.890781,-84.974375,-16.106714
554688,14.711339,-84.868251,-16.90297
554788,15.459207,-84.773572,-17.594436
554888,16.175551,-84.694973,-18.215998
554988,16.926483,-84.63888,-18.834834
555088,17.827171,-84.616188,-19.579064
555188,18.928466,-84.622094,-20.52483
555288,20.128251,-84.635674,-21.595453
555388,21.239981,-84.632714,-22.629769
555488,22.096868,-84.599431,-23.477931
555588,22.562532,-84.525911,-24.000574
555688,22.743664,-84.41948,-24.295643
555788,22.757934,-84.302264,-24.457924
555888,22.715063,-84.207458,-24.574393
555988,22.73463,-84.159758,-24.75098
556088,22.880398,-84.15327,-25.046264
556188,23.173469,-84.176136,-25.469097
556288,23.582524,-84.211199,-25.979293
556388,24.032644,-84.250388,-26.502627
556488,24.493053,-84.287636,-27.007128
556588,24.917994,-84.319695,-27.448929
556688,25.265671,-84.347425,-27.794202
556788,25.511905,-84.377056,-28.025995
556888,25.654766,-84.410857,-28.147313
556988,25.621962,-84.443022,-28.095175
557088,25.40265,-84.471106,-27.873045
557188,25.059104,-84.500271,-27.561911
557288,24.632699,-84.538467,-27.215743
557388,24.231875,-84.593957,-26.937103
557488,23.90471,-84.667912,-26.756834
557588,23.65129,-84.753878,-26.6592
557688,23.463828,-84.848836,-26.617796
557788,23.366518,-84.950147,-26.647382
557888,23.338135,-85.05429,-26.727721
557988,23.379004,-85.162772,-26.852609
558088,23.413751,-85.268719,-26.951796
558188,23.383958,-85.36835,-26.979582
558288,23.306576,-85.464791,-26.964459
558388,23.186981,-85.569511,-26.92607
558488,23.099247,-85.695662,-26.9432
558588,23.073721,-85.840029,-27.041828
558688,23.092374,-85.993894,-27.199924
558788,23.157268,-86.148911,-27.411528
558888,23.286692,-86.300502,-27.68524
558988,23.497308,-86.44915,-28.03052
559088,23.787515,-86.594134,-28.445298
559188,24.099387,-86.731282,-28.877699
559288,24.351464,-86.85983,-29.244967
559388,24.517734,-86.978661,-29.523237
559488,24.519861,-87.086631,-29.636496
559588,24.334524,-87.18235,-29.561382
559688,23.991165,-87.268367,-29.329422
559788,23.519893,-87.346678,-28.971311
559888,22.924993,-87.421418,-28.489241
559988,22.182455,-87.490765,-27.85218
560088,21.130671,-87.544361,-26.885429
560188,19.66481,-87.57266,-25.476579
560288,17.667415,-87.567443,-23.50765
560388,15.224314,-87.525278,-21.07131
560488,12.432354,-87.447103,-18.27582
560588,9.500427,-87.341817,-15.345379
560688,6.583724,-87.225459,-12.451367
560788,3.786639,-87.115578,-9.696083
560888,1.104974,-87.006621,-7.066203
560988,-1.428059,-86.875865,-4.584927
561088,-3.702402,-86.684622,-2.351122
561188,-5.652769,-86.424145,-0.42256
561288,-7.271269,-86.120891,1.18413
561388,-8.582349,-85.809665,2.485301
561488,-9.63492,-85.502562,3.525624
561588,-10.55717,-85.212817,4.428701
561688,-11.372508,-84.959746,5.210344
561788,-12.03485,-84.747574,5.808781
561888,-12.590752,-84.591695,6.258264
561988,-13.097168,-84.498559,6.630102
562088,-13.666478,-84.461583,7.057993
562188,-14.330144,-84.480664,7.581938
562288,-15.060941,-84.569012,8.200631
562388,-15.783108,-84.734189,8.868412
562488,-16.328396,-84.959,9.4326
562588,-16.47406,-85.194341,9.685831
562688,-16.039145,-85.38359,9.444751
562788,-15.008026,-85.485669,8.674568
562888,-13.59355,-85.491622,7.570723
562988,-12.017296,-85.415108,6.324159
563088,-10.480038,-85.272064,5.098175
563188,-9.165416,-85.086971,4.04193
563288,-8.195418,-84.879569,3.249271
563388,-7.621104,-84.664244,2.753428
563488,-7.379518,-84.452617,2.515931
563588,-7.318565,-84.253764,2.414754
563688,-7.209027,-84.072477,2.240623
563788,-6.95858,-83.928211,1.914603
563888,-6.537316,-83.84052,1.427408
563988,-5.966689,-83.804079,0.818806
564088,-5.243368,-83.805538,0.095254
564188,-4.364848,-83.834472,-0.750658
564288,-3.385416,-83.8812,-1.678549
564388,-2.38864,-83.940152,-2.621747
564488,-1.474012,-84.008063,-3.487934
564588,-0.658363,-84.096006,-4.265194
564688,0.050864,-84.201218,-4.942984
564788,0.652101,-84.309083,-5.516389
564888,1.105568,-84.406291,-5.944525
564988,1.43948,-84.494104,-6.258228
565088,1.720998,-84.583229,-6.532057
565188,1.990976,-84.677712,-6.8067
565288,2.207485,-84.773526,-7.02991
565388,2.365426,-84.862678,-7.188326
565488,2.498691,-84.945818,-7.312685
565588,2.647089,-85.032885,-7.441404
565688,2.830218,-85.130568,-7.600509
565788,3.051088,-85.242878,-7.800546
565888,3.276715,-85.363984,-8.011567
565988,3.511898,-85.481467,-8.244438
566088,3.782001,-85.586726,-8.523684
566188,4.116556,-85.674494,-8.872311
566288,4.529452,-85.743022,-9.299449
566388,4.9791,-85.795406,-9.757575
566488,5.459031,-85.83661,-10.234556
566588,6.021165,-85.870909,-10.781199
566688,6.62907,-85.903547,-11.359689
566788,7.308974,-85.939287,-12.003088
566888,8.085364,-85.980627,-12.738696
566988,9.028094,-86.042464,-13.641663
567088,10.156826,-86.118273,-14.722908
567188,11.430081,-86.196762,-15.919036
567288,12.664923,-86.23723,-17.032212
567388,13.681606,-86.208759,-17.890258
567488,14.465973,-86.110987,-18.502811
567588,15.018248,-85.957287,-18.898186
567688,15.370372,-85.764188,-19.139865
567788,15.706316,-85.550006,-19.429481
567888,16.13332,-85.315544,-19.869434
567988,16.620239,-85.041664,-20.417698
568088,17.08317,-84.713572,-20.974609
568188,17.498826,-84.327296,-21.504442
568288,17.852466,-83.898444,-21.967793
568388,18.042422,-83.450506,-22.24344
568488,18.035954,-83.022665,-22.2989
568588,17.901067,-82.667858,-22.185863
568688,17.692833,-82.420174,-21.959022
568788,17.500415,-82.288756,-21.72807
568888,17.416438,-82.260375,-21.60676
568988,17.614927,-82.30635,-21.747177
569088,18.16358,-82.385869,-22.212347
569188,18.97044,-82.476605,-22.943298
569288,19.8573,-82.553188,-23.81849
569388,20.56805,-82.571498,-24.61798
569488,20.857025,-82.500381,-25.088814
569588,20.704327,-82.351156,-25.183896
569688,20.212148,-82.164095,-24.972524
569788,19.53808,-81.989675,-24.580612
569888,18.836627,-81.866703,-24.134361
569988,18.155356,-81.80837,-23.668494
570088,17.492412,-81.801899,-23.176146
570188,16.900332,-81.828593,-22.702807
570288,16.437215,-81.874135,-22.298311
570388,16.089647,-81.921407,-21.9587
570488,15.817349,-81.960954,-21.665856
570588,15.568487,-81.995826,-21.395686
570688,15.305839,-82.03588,-21.132308
570788,15.005308,-82.090433,-20.866635
570888,14.659018,-82.159643,-20.594514
570988,14.254487,-82.228979,-20.299302
571088,13.758551,-82.279705,-19.940045
571188,13.12716,-82.29975,-19.468325
571288,12.387539,-82.286537,-18.903699
571388,11.565476,-82.250586,-18.263823
571488,10.711633,-82.204109,-17.589749
571588,9.875681,-82.159901,-16.923208
571688,9.162047,-82.13715,-16.359458
571788,8.601222,-82.146673,-15.922053
571888,8.206273,-82.193749,-15.625347
571988,7.961834,-82.266934,-15.458216
572088,7.819093,-82.354019,-15.374505
572188,7.748784,-82.445245,-15.345484
572288,7.711864,-82.540288,-15.339416
572388,7.667344,-82.634219,-15.315816
572488,7.55983,-82.719543,-15.228838
572588,7.360229,-82.790004,-15.057654
572688,7.078964,-82.868602,-14.817238
572788,6.715852,-82.959721,-14.512
572888,6.272579,-83.058093,-14.129948
572988,5.729176,-83.143778,-13.635499
573088,5.087105,-83.19868,-13.02109
573188,4.384097,-83.226044,-12.323025
573288,3.660202,-83.241674,-11.586816
573388,2.925955,-83.254181,-10.834768
573488,2.177077,-83.263675,-10.069036
573588,1.416612,-83.267818,-9.295466
573688,0.630179,-83.26944,-8.502156
573788,-0.159873,-83.273951,-7.712553
573888,-0.910287,-83.288005,-6.97115
573988,-1.612654,-83.307813,-6.278402
574088,-2.277033,-83.317657,-5.621078
574188,-2.92666,-83.312277,-4.976178
574288,-3.611223,-83.284791,-4.293408
574388,-4.38703,-83.233251,-3.51499
574488,-5.29848,-83.157316,-2.590613
574588,-6.31931,-83.053364,-1.544356
574688,-7.39615,-82.917797,-0.434161
574788,-8.484625,-82.747032,0.70838
574888,-9.528587,-82.524332,1.839565
574988,-10.504116,-82.262063,2.934123
575088,-11.328017,-81.977693,3.888527
575188,-11.966167,-81.676354,4.630225
575288,-12.445577,-81.35471,5.15928
575388,-12.783902,-81.027854,5.487393
575488,-13.02554,-80.729412,5.67067
575588,-13.179288,-80.508533,5.735866
575688,-13.253114,-80.38577,5.702765
575788,-13.274139,-80.361441,5.604947
575888,-13.319901,-80.431934,5.535417
575988,-13.420224,-80.584573,5.52605
576088,-13.552002,-80.818041,5.561781
576188,-13.640779,-81.125285,5.592218
576288,-13.58637,-81.455138,5.55891
576388,-13.254386,-81.738987,5.363637
576488,-12.578764,-81.923935,4.943172
576588,-11.639546,-81.978271,4.352878
576688,-10.575663,-81.907146,3.690223
576788,-9.499196,-81.738876,3.010644
576888,-8.55443,-81.516915,2.407173
576988,-7.884853,-81.284432,1.974317
577088,-7.548559,-81.0625,1.748451
577188,-7.452504,-80.861313,1.65187
577288,-7.44215,-80.680667,1.570693
577388,-7.394579,-80.540026,1.422804
577488,-7.292443,-80.469127,1.219659
577588,-7.116835,-80.465855,0.960892
577688,-6.829894,-80.507011,0.611546
577788,-6.428335,-80.57132,0.177069
577888,-5.90622,-80.645655,-0.347024
577988,-5.335796,-80.720589,-0.898564
578088,-4.801636,-80.781218,-1.41011
578188,-4.39907,-80.81664,-1.799146
578288,-4.151907,-80.838433,-2.042138
578388,-4.065183,-80.870757,-2.143002
578488,-4.111677,-80.924825,-2.133395
578588,-4.264682,-81.007578,-2.038103
578688,-4.480597,-81.103105,-1.89736
578788,-4.732162,-81.206455,-1.737698
578888,-5.028876,-81.322597,-1.5485
578988,-5.371433,-81.45341,-1.322675
579088,-5.753841,-81.599663,-1.0591
579188,-6.152924,-81.755464,-0.77484
579288,-6.558419,-81.91847,-0.475061
579388,-6.977468,-82.081579,-0.157906
579488,-7.40188,-82.234091,0.170911
579588,-7.81984,-82.362311,0.50955
579688,-8.223118,-82.466336,0.85784
579788,-8.652215,-82.568574,1.250419
579888,-9.148785,-82.693605,1.717155
579988,-9.730394,-82.846858,2.269556
580088,-10.349947,-83.00543,2.866177
580188,-10.969528,-83.144657,3.477351
580288,-11.563236,-83.259465,4.078833
580388,-12.142668,-83.368099,4.673907
580488,-12.717062,-83.489198,5.264264
580588,-13.29419,-83.631145,5.86105
580688,-13.881865,-83.799982,6.48844
580788,-14.525456,-84.002937,7.2196
580888,-15.139137,-84.205072,7.985735
580988,-15.602457,-84.353267,8.66719
581088,-15.818257,-84.414195,9.127978
581188,-15.693122,-84.380096,9.21497
581288,-15.198334,-84.264452,8.870001
581388,-14.407792,-84.082012,8.158861
581488,-13.412671,-83.857427,7.174443
581588,-12.294686,-83.633081,6.022735
581688,-11.089537,-83.413907,4.760946
581788,-9.852821,-83.191572,3.468089
581888,-8.616193,-82.994952,2.17654
581988,-7.444467,-82.881663,0.94195
582088,-6.38605,-82.892913,-0.186406
582188,-5.471423,-83.021814,-1.179493
582288,-4.668701,-83.237273,-2.074352
582388,-3.903325,-83.514403,-2.943247
582488,-3.14182,-83.830145,-3.806405
582588,-2.348059,-84.153011,-4.693714
582688,-1.501486,-84.45167,-5.63819
582788,-0.608797,-84.694396,-6.655369
582888,0.259145,-84.850345,-7.694344
582988,0.995898,-84.908549,-8.638465
583088,1.570063,-84.889028,-9.423368
583188,1.957692,-84.835341,-9.997454
583288,2.161032,-84.787658,-10.345656
583388,2.160505,-84.76019,-10.439191
583488,1.938186,-84.764591,-10.257129
583588,1.546659,-84.813769,-9.860005
583688,1.135722,-84.901915,-9.413958
583788,0.87481,-85.01481,-9.094944
583888,0.917534,-85.138144,-9.061521
583988,1.270798,-85.267582,-9.330216
584088,1.834604,-85.395292,-9.816557
584188,2.520619,-85.504498,-10.448556
584288,3.261445,-85.598764,-11.168125
584388,3.970103,-85.67879,-11.894178
584488,4.564586,-85.74616,-12.539487
584588,4.931645,-85.80755,-12.969699
584688,5.101596,-85.864375,-13.203651
584788,5.144724,-85.921487,-13.305756
584888,5.138146,-85.983816,-13.347135
584988,5.18511,-86.060123,-13.428469
585088,5.376634,-86.149684,-13.640573
585188,5.787475,-86.249767,-14.049808
585288,6.386199,-86.357088,-14.623162
585388,7.140306,-86.468331,-15.337867
585488,8.018489,-86.580928,-16.175498
585588,8.980615,-86.690587,-17.101769
585688,9.981145,-86.79964,-18.074503
585788,10.959456,-86.908584,-19.033881
585888,11.83483,-87.011295,-19.89267
585988,12.563773,-87.102994,-20.600402
586088,13.075334,-87.174789,-21.076861
586188,13.278068,-87.226168,-21.232339
586288,13.200094,-87.264814,-21.103504
586388,12.905254,-87.298916,-20.762021
586488,12.435062,-87.331081,-20.256355
586588,11.724032,-87.353295,-19.522333
586688,10.70795,-87.358128,-18.491025
586788,9.452027,-87.347219,-17.217256
586888,8.049132,-87.323147,-15.78258
586988,6.520408,-87.287422,-14.200605
587088,4.941529,-87.238276,-12.551059
587188,3.402028,-87.169531,-10.935796
587288,2.009739,-87.071495,-9.479074
587388,0.876245,-86.939892,-8.299802
587488,-0.020441,-86.771791,-7.377349
587588,-0.761423,-86.573081,-6.623672
587688,-1.400002,-86.353662,-5.979649
587788,-2.020042,-86.112367,-5.348494
587888,-2.650186,-85.84303,-4.692578
587988,-3.326248,-85.534967,-3.9632
588088,-4.005606,-85.185364,-3.201716
588188,-4.649736,-84.80664,-2.457261
588288,-5.244133,-84.421719,-1.756337
588388,-5.758567,-84.053883,-1.154034
588488,-6.254187,-83.735103,-0.618588
588588,-6.810772,-83.48543,-0.089077
588688,-7.401884,-83.3078,0.414226
588788,-7.9786,-83.19791,0.872191
588888,-8.464653,-83.152122,1.230908
588988,-8.936068,-83.166051,1.579318
589088,-9.449065,-83.227097,1.975608
589188,-9.962232,-83.323063,2.398111
589288,-10.379132,-83.438132,2.780814
589388,-10.670709,-83.544665,3.11334
589488,-10.794153,-83.626953,3.357219
589588,-10.747835,-83.683694,3.504447
589688,-10.531416,-83.717389,3.541565
589788,-10.155142,-83.728845,3.464285
589888,-9.680889,-83.713842,3.31778
589988,-9.167957,-83.678342,3.14016
590088,-8.725504,-83.637541,3.012937
590188,-8.42135,-83.59799,2.985195
590288,-8.281819,-83.548023,3.066428
590388,-8.256364,-83.47322,3.206638
590488,-8.31327,-83.372649,3.382142
590588,-8.4046,-83.250188,3.556667
590688,-8.494142,-83.132969,3.699149
590788,-8.563971,-83.049269,3.788276
590888,-8.581024,-83.012209,3.78882
590988,-8.535793,-83.014111,3.701551
591088,-8.401513,-83.035783,3.516726
591188,-8.168154,-83.066981,3.241841
591288,-7.826161,-83.108161,2.884261
591388,-7.382446,-83.163251,2.454078
591488,-6.845989,-83.234025,1.956548
591588,-6.258766,-83.315441,1.423927
591688,-5.690847,-83.389068,0.911109
591788,-5.172875,-83.439656,0.438702
591888,-4.753353,-83.466658,0.049253
591988,-4.447636,-83.478858,-0.238986
592088,-4.248075,-83.491858,-0.432453
592188,-4.125771,-83.520903,-0.556433
592288,-4.034368,-83.572912,-0.654637
592388,-3.932139,-83.64903,-0.769785
592488,-3.812319,-83.742962,-0.903965
592588,-3.663153,-83.848659,-1.061778
592688,-3.495831,-83.961834,-1.226398
592788,-3.319241,-84.079765,-1.388415
592888,-3.140165,-84.197597,-1.54138
592988,-2.971966,-84.301001,-1.669566
593088,-2.82858,-84.379728,-1.749833
593188,-2.721069,-84.442319,-1.776629
593288,-2.603874,-84.497183,-1.809608
593388,-2.489721,-84.552639,-1.845348
593488,-2.410459,-84.612607,-1.862215
593588,-2.399269,-84.67789,-1.82532
593688,-2.428988,-84.74136,-1.76122
593788,-2.452296,-84.793579,-1.713399
593888,-2.394769,-84.828616,-1.75068
593988,-2.240418,-84.846151,-1.881258
594088,-1.983223,-84.851318,-2.105955
594188,-1.631301,-84.855196,-2.408837
594288,-1.210332,-84.870888,-2.753021
594388,-0.742577,-84.899985,-3.114662
594488,-0.244152,-84.925219,-3.478564
594588,0.286384,-84.923535,-3.844922
594688,0.762507,-84.880098,-4.142173
594788,1.150874,-84.786848,-4.364857
594888,1.407923,-84.639255,-4.502087
594988,1.591272,-84.430441,-4.634189
595088,1.793361,-84.156696,-4.858115
595188,2.072306,-83.822461,-5.221014
595288,2.444312,-83.434882,-5.717544
595388,2.947093,-83.014925,-6.359661
595488,3.566446,-82.591502,-7.097272
595588,4.209418,-82.2041,-7.807641
595688,4.7884,-81.904141,-8.380715
595788,5.234162,-81.722614,-8.738435
595888,5.550792,-81.638825,-8.908606
595988,5.793168,-81.61529,-8.97931
596088,6.001744,-81.635027,-9.029913
596188,6.182947,-81.703183,-9.090186
596288,6.30941,-81.830898,-9.143998
596388,6.35497,-82.013091,-9.177111
596488,6.29752,-82.220678,-9.186793
596588,6.087335,-82.400742,-9.135617
596688,5.74898,-82.515134,-9.043284
596788,5.27922,-82.557677,-8.887566
596888,4.626241,-82.563746,-8.567279
596988,3.891273,-82.572255,-8.128812
597088,3.170433,-82.598446,-7.644066
597188,2.520915,-82.650852,-7.15473
597288,1.925294,-82.735692,-6.647901
597388,1.345142,-82.852744,-6.091915
597488,0.730802,-82.990089,-5.445586
597588,0.037109,-83.12796,-4.67494
597688,-0.744777,-83.275455,-3.787201
597788,-1.574183,-83.449611,-2.850708
597888,-2.4691,-83.649864,-1.878873
597988,-3.455352,-83.870053,-0.874916
598088,-4.512225,-84.090781,0.129632
598188,-5.55066,-84.283375,1.061217
598288,-6.471706,-84.437577,1.847993
598388,-7.213749,-84.562817,2.450225
598488,-7.803572,-84.676465,2.909764
598588,-8.298786,-84.783518,3.291371
598688,-8.778085,-84.890075,3.681595
598788,-9.299224,-84.995646,4.14197
598888,-9.852197,-85.093539,4.657316
598988,-10.392093,-85.181819,5.178125
599088,-10.869521,-85.271777,5.645934
599188,-11.26679,-85.368564,6.037531
599288,-11.577179,-85.470503,6.340649
599388,-11.846357,-85.574741,6.597231
599488,-12.053857,-85.675185,6.777567
599588,-12.193114,-85.760923,6.872565
599688,-12.316468,-85.835085,6.939486
599788,-12.440277,-85.897439,6.997432
599888,-12.519566,-85.94266,7.010224
599988,-12.588852,-85.970423,7.028408
600088,-12.664151,-85.986905,7.0773
600188,-12.789068,-86.00586,7.202936
600288,-12.932281,-86.029295,7.373388
600388,-13.074309,-86.055593,7.559803
600488,-13.181482,-86.07191,7.718536
600588,-13.272021,-86.074115,7.857349
600688,-13.416338,-86.066251,8.033684
600788,-13.61887,-86.04354,8.245916
600888,-13.862673,-85.99655,8.475804
600988,-14.100134,-85.919171,8.683211
601088,-14.320292,-85.825223,8.86524
601188,-14.516864,-85.729663,9.023455
601288,-14.660586,-85.645335,9.135466
601388,-14.683443,-85.568781,9.14
601488,-14.558745,-85.477859,9.008406
601588,-14.252166,-85.343513,8.702913
601688,-13.781362,-85.152006,8.249937
601788,-13.299952,-84.897851,7.816497
601888,-12.984251,-84.602813,7.586845
601988,-12.913987,-84.300223,7.639396
602088,-13.024631,-83.99547,7.90124
602188,-13.292503,-83.696394,8.333437
602288,-13.732796,-83.440967,8.912986
602388,-14.377185,-83.289102,9.634115
602488,-15.231102,-83.269264,10.4956
602588,-16.225131,-83.355025,11.46218
602688,-17.286995,-83.491908,12.47385
602788,-18.38444,-83.660291,13.521162
602888,-19.476566,-83.866935,14.590597
602988,-20.525834,-84.112063,15.680236
603088,-21.474948,-84.38934,16.759621
603188,-22.189393,-84.666844,17.678725
603288,-22.54766,-84.904436,18.292013
603388,-22.500206,-85.077958,18.540623
603488,-22.046349,-85.173142,18.422704
603588,-21.296939,-85.197569,18.036645
603688,-20.355514,-85.163957,17.460146
603788,-19.333959,-85.085575,16.754251
603888,-18.409418,-84.983533,16.05593
603988,-17.717799,-84.862635,15.468073
604088,-17.296869,-84.7308,15.031138
604188,-17.050031,-84.599491,14.690863
604288,-16.828487,-84.484164,14.344097
604388,-16.561046,-84.405359,13.945564
604488,-16.229582,-84.372654,13.493759
604588,-15.797847,-84.384584,12.954541
604688,-15.213741,-84.428733,12.279306
604788,-14.446222,-84.481434,11.4338
604888,-13.532247,-84.533587,10.448752
604988,-12.573401,-84.585358,9.420673
605088,-11.673654,-84.643499,8.444521
605188,-10.879786,-84.704998,7.567043
605288,-10.226504,-84.764663,6.823868
605388,-9.695203,-84.817137,6.200428
605488,-9.237356,-84.863637,5.645366
605588,-8.810822,-84.905203,5.1095
605688,-8.419242,-84.941985,4.594516
605788,-8.05377,-84.97599,4.093662
605888,-7.711245,-85.013691,3.614604
605988,-7.349364,-85.062504,3.122888
606088,-6.94094,-85.119769,2.592767
606188,-6.508829,-85.177998,2.051586
606288,-6.073393,-85.224837,1.524641
606388,-5.66797,-85.267015,1.043419
606488,-5.313817,-85.309036,0.620895
606588,-4.977689,-85.348688,0.220658
606688,-4.656466,-85.381878,-0.158035
606788,-4.311926,-85.406095,-0.55212
606888,-3.935966,-85.427001,-0.96316
606988,-3.535981,-85.446526,-1.379987
607088,-3.088652,-85.460005,-1.827454
607188,-2.576622,-85.463819,-2.322374
607288,-1.980415,-85.458809,-2.887978
607388,-1.315063,-85.443674,-3.517258
607488,-0.580925,-85.419387,-4.211113
607588,0.233576,-85.386166,-4.982902
607688,1.05246,-85.346615,-5.753725
607788,1.884655,-85.307323,-6.525687
607888,2.718536,-85.279246,-7.275533
607988,3.565479,-85.265941,-8.005833
608088,4.412375,-85.263803,-8.702637
608188,5.227578,-85.266563,-9.343396
608288,5.977563,-85.268685,-9.90626
608388,6.639215,-85.25762,-10.386717
608488,7.222812,-85.219955,-10.812079
608588,7.724065,-85.146031,-11.192886
608688,8.199023,-85.032858,-11.593652
608788,8.707183,-84.887129,-12.073741
608888,9.273973,-84.728548,-12.651325
608988,9.910187,-84.583887,-13.324278
609088,10.610764,-84.480595,-14.065161
609188,11.418255,-84.42662,-14.885653
609288,12.307837,-84.404515,-15.749689
609388,13.22084,-84.394756,-16.603099
609488,14.060538,-84.377315,-17.365288
609588,14.74292,-84.322925,-17.97503
609688,15.180417,-84.197658,-18.359197
609788,15.335877,-83.982108,-18.494387
609888,15.169803,-83.695249,-18.333431
609988,14.644946,-83.393518,-17.812999
610088,13.990381,-83.140337,-17.109623
610188,13.631215,-82.976122,-16.587239
610288,13.638,-82.89451,-16.313976
610388,13.966239,-82.875602,-16.298767
610488,14.603421,-82.911746,-16.584404
610588,15.398685,-83.002253,-17.054975
610688,16.147083,-83.143194,-17.527954
610788,16.863878,-83.295376,-18.02416
610888,17.336967,-83.421861,-18.35335
610988,17.503441,-83.513008,-18.466601
611088,17.348116,-83.574043,-18.348958
611188,16.931734,-83.622393,-18.040827
611288,16.369023,-83.666804,-17.633431
611388,15.755494,-83.704074,-17.189421
611488,15.238652,-83.726304,-16.82288
611588,14.897239,-83.732732,-16.584274
611688,14.783862,-83.735041,-16.520931
611788,14.830351,-83.743631,-16.566563
611888,14.977467,-83.756441,-16.668661
611988,15.098628,-83.760949,-16.720901
612088,15.129637,-83.750647,-16.683975
612188,15.0777,-83.73539,-16.568851
612288,14.960477,-83.719293,-16.394235
612388,14.766635,-83.703684,-16.154401
612488,14.487608,-83.672415,-15.850361
612588,14.106626,-83.609159,-15.470819
612688,13.662253,-83.51482,-15.051761
612788,13.198104,-83.405025,-14.627868
612888,12.762317,-83.299558,-14.232539
612988,12.397739,-83.216941,-13.900746
613088,12.109845,-83.16284,-13.62672
613188,11.898785,-83.135206,-13.407652
613288,11.767554,-83.137431,-13.240777
613388,11.697259,-83.165834,-13.112747
613488,11.63943,-83.201779,-12.986837
613588,11.562647,-83.239311,-12.836573
613688,11.471912,-83.276362,-12.673557
613788,11.397446,-83.313584,-12.530316
613888,11.33859,-83.346979,-12.410112
613988,11.261625,-83.36703,-12.281713
614088,11.126572,-83.372459,-12.109113
614188,10.904582,-83.366786,-11.862866
614288,10.612182,-83.364141,-11.548693
614388,10.260814,-83.373058,-11.163138
614488,9.871549,-83.390995,-10.715284
614588,9.437722,-83.407919,-10.199666
614688,8.959659,-83.423817,-9.624273
614788,8.462007,-83.444886,-9.019119
614888,7.941788,-83.477326,-8.382517
614988,7.397791,-83.522124,-7.716171
615088,6.78663,-83.563968,-6.978442
615188,6.035809,-83.583826,-6.102281
615288,5.112182,-83.565472,-5.060635
615388,4.051264,-83.510978,-3.89865
615488,2.937798,-83.447882,-2.700287
615588,1.845726,-83.40426,-1.536043
615688,0.835255,-83.387006,-0.461216
615788,-0.03694,-83.385819,0.471635
615888,-0.752549,-83.374215,1.245286
615988,-1.350166,-83.329948,1.90102
616088,-1.850615,-83.243264,2.462917
616188,-2.292473,-83.124818,2.9805
616288,-2.72987,-82.991082,3.518344
616388,-3.227915,-82.845487,4.149845
616488,-3.816413,-82.671981,4.909765
616588,-4.424437,-82.455569,5.720116
616688,-4.975759,-82.20668,6.480156
616788,-5.40227,-81.929807,7.088765
616888,-5.641634,-81.635907,7.460947
616988,-5.703642,-81.367555,7.591076
617088,-5.663611,-81.166378,7.542359
617188,-5.470965,-81.050111,7.279438
617288,-5.074533,-81.025548,6.79778
617388,-4.546507,-81.081868,6.205521
617488,-3.961796,-81.21621,5.60147
617588,-3.356522,-81.432272,5.041138
617688,-2.728801,-81.73043,4.536949
617788,-2.064407,-82.117352,4.076363
617888,-1.321906,-82.542408,3.626525
617988,-0.423979,-82.937217,3.123221
618088,0.696658,-83.247358,2.487915
618188,2.030249,-83.429421,1.677367
618288,3.505878,-83.472019,0.725982
618388,5.072077,-83.397335,-0.3471
618488,6.485999,-83.249886,-1.317056
618588,7.624197,-83.074434,-2.066302
618688,8.424583,-82.906246,-2.546851
618788,8.878998,-82.786482,-2.752263
618888,9.034675,-82.761718,-2.718455
618988,9.093114,-82.855939,-2.625589
619088,9.163856,-83.057179,-2.581403
619188,9.265101,-83.306166,-2.605134
619288,9.488349,-83.546061,-2.762902
619388,9.894075,-83.742253,-3.094868
619488,10.521176,-83.888004,-3.628823
619588,11.291751,-83.982516,-4.282707
619688,12.09072,-84.038696,-4.940598
619788,12.83321,-84.073972,-5.523472
619888,13.449166,-84.094378,-5.984278
619988,13.845724,-84.10622,-6.248172
620088,13.946437,-84.11321,-6.25039
620188,13.750482,-84.123705,-5.998385
620288,13.316591,-84.139689,-5.551744
620388,12.714555,-84.157663,-4.981445
620488,11.987279,-84.179654,-4.327589
620588,11.171726,-84.202748,-3.615118
620688,10.313806,-84.225388,-2.884819
620788,9.498614,-84.246677,-2.218043
620888,8.720978,-84.268894,-1.612004
620988,7.966222,-84.291576,-1.045441
621088,7.230901,-84.31188,-0.508928
621188,6.493182,-84.322646,0.033303
621288,5.734126,-84.313857,0.603603
621388,4.992994,-84.290682,1.159026
621488,4.321387,-84.278068,1.644536
621588,3.748094,-84.296599,2.031657
621688,3.232988,-84.347526,2.363209
621788,2.703647,-84.417878,2.709856
621888,2.139508,-84.492834,3.085142
621988,1.511498,-84.560948,3.510957
622088,0.864615,-84.623957,3.941692
622188,0.286338,-84.68438,4.301754
622288,-0.18351,-84.739738,4.575093
622388,-0.515137,-84.765054,4.75601
622488,-0.69159,-84.730704,4.839052
622588,-0.676859,-84.61504,4.754618
622688,-0.377125,-84.410099,4.360872
622788,0.292087,-84.122834,3.521548
622888,1.308201,-83.760836,2.225384
622988,2.558676,-83.338411,0.578358
623088,3.92408,-82.881995,-1.263094
623188,5.262438,-82.431441,-3.090488
623288,6.335473,-82.01016,-4.622841
623388,7.207021,-81.661565,-5.879377
623488,8.079515,-81.447502,-7.059156
623588,8.955619,-81.395227,-8.217022
623688,9.774119,-81.488396,-9.314251
623788,10.59181,-81.699824,-10.370482
623888,11.52134,-81.967251,-11.472497
623988,12.658138,-82.254993,-12.727864
624088,13.990414,-82.542693,-14.181074
624188,15.306387,-82.778834,-15.698156
624288,16.3031,-82.917943,-17.007619
624388,16.850541,-82.946669,-17.939232
624488,17.049482,-82.905932,-18.521464
624588,17.058826,-82.876631,-18.869556
624688,17.031201,-82.918805,-19.123061
624788,17.127232,-83.053256,-19.427857
624888,17.332352,-83.271103,-19.760538
624988,17.50573,-83.506401,-19.992846
625088,17.598601,-83.713226,-20.090639
625188,17.661293,-83.898456,-20.139332
625288,17.825301,-84.087759,-20.308502
625388,18.217945,-84.299995,-20.739672
625488,18.821635,-84.524142,-21.407
625588,19.633858,-84.74946,-22.305893
625688,20.502027,-84.964349,-23.2854
625788,21.392145,-85.157496,-24.308452
625888,22.253555,-85.32975,-25.311046
625988,23.059893,-85.48606,-26.261583
626088,23.823106,-85.64146,-27.173875
626188,24.648592,-85.805595,-28.155208
626288,25.577582,-85.988013,-29.245832
626388,26.682861,-86.185079,-30.50968
626488,27.988853,-86.386983,-31.967453
626588,29.374532,-86.580299,-33.488745
626688,30.818156,-86.758761,-35.049165
626788,32.34049,-86.914457,-36.672415
626888,33.895723,-87.045065,-38.322226
626988,35.43075,-87.156229,-39.947639
627088,37.005368,-87.262274,-41.610379
627188,38.731676,-87.377438,-43.423606
627288,40.705706,-87.505404,-45.485598
627388,42.844189,-87.636019,-47.709218
627488,44.805154,-87.755511,-49.741573
627588,46.259458,-87.855844,-51.253297
627688,47.064958,-87.937252,-52.107669
627788,47.164796,-88.003221,-52.250304
627888,46.662697,-88.062068,-51.78311
627988,45.7023,-88.124117,-50.84358
628088,44.32152,-88.193836,-49.469601
628188,42.313442,-88.25843,-47.455839
628288,39.323145,-88.302471,-44.445525
628388,35.152592,-88.310011,-40.24363
628488,29.947642,-88.264714,-35.012232
628588,24.312061,-88.163158,-29.377787
628688,18.931933,-88.010972,-24.043074
628788,14.175054,-87.814812,-19.375683
628888,10.20039,-87.580939,-15.51895
628988,6.915453,-87.320065,-12.353917
629088,4.028131,-87.022945,-9.567107
629188,1.373177,-86.661085,-6.966158
629288,-0.921954,-86.243133,-4.683909
629388,-2.798159,-85.791892,-2.800814
629488,-4.379461,-85.307883,-1.202972
629588,-5.879068,-84.799337,0.311295
629688,-7.330347,-84.305919,1.773537
629788,-8.679537,-83.885296,3.138587
629888,-9.800467,-83.602807,4.256646
629988,-10.729938,-83.473276,5.157117
630088,-11.564121,-83.476591,5.957796
630188,-12.358344,-83.563037,6.73205
630288,-13.118443,-83.722616,7.523318
630388,-13.7574,-83.933778,8.249593
630488,-14.301061,-84.157013,8.927137
630588,-14.597733,-84.334283,9.410283
630688,-14.603232,-84.404399,9.661475
630788,-14.246039,-84.343392,9.598903
630888,-13.554022,-84.171015,9.220214
630988,-12.752706,-83.934117,8.727365
631088,-11.994555,-83.678309,8.254633
631188,-11.367684,-83.436161,7.883249
631288,-10.890328,-83.217015,7.625512
631388,-10.576926,-83.015703,7.48501
631488,-10.357146,-82.824229,7.3874
631588,-10.125563,-82.644291,7.229529
631688,-9.858026,-82.492062,6.997573
631788,-9.567137,-82.387238,6.71487
631888,-9.211722,-82.326281,6.355808
631988,-8.785408,-82.298858,5.935102
632088,-8.284539,-82.291394,5.4638
632188,-7.769156,-82.289558,5.006569
632288,-7.272415,-82.282366,4.590533
632388,-6.835194,-82.270299,4.240769
632488,-6.469308,-82.255052,3.971689
632588,-6.172997,-82.238866,3.771038
632688,-5.947839,-82.227401,3.636047
632788,-5.749273,-82.220344,3.518646
632888,-5.556958,-82.222823,3.396048
632988,-5.362383,-82.23861,3.256554
633088,-5.190932,-82.267736,3.126591
633188,-5.045234,-82.308674,3.011453
633288,-4.923538,-82.358947,2.910514
633388,-4.812348,-82.416595,2.810319
633488,-4.72022,-82.477498,2.721208
633588,-4.659422,-82.544212,2.659131
633688,-4.599273,-82.618742,2.598512
633788,-4.504915,-82.693848,2.508867
633888,-4.364007,-82.764964,2.380262
633988,-4.167253,-82.830778,2.205084
634088,-3.918286,-82.891077,1.990144
634188,-3.636637,-82.951553,1.75009
634288,-3.348575,-83.022774,1.507137
634388,-3.088522,-83.103534,1.289066
634488,-2.84211,-83.18583,1.076079
634588,-2.586945,-83.260461,0.845133
634688,-2.303382,-83.328445,0.579384
634788,-2.000845,-83.404609,0.28957
634888,-1.698975,-83.508778,0.003174
634988,-1.395532,-83.641434,-0.268776
635088,-1.042679,-83.791533,-0.562621
635188,-0.617654,-83.927583,-0.898354
635288,-0.111976,-84.010855,-1.284949
635388,0.422081,-84.012724,-1.687064
635488,0.939568,-83.943333,-2.089261
635588,1.460712,-83.832486,-2.538671
635688,2.032395,-83.702052,-3.103064
635788,2.685125,-83.546004,-3.822521
635888,3.513763,-83.340853,-4.777458
635988,4.530085,-83.054115,-5.955163
636088,5.69499,-82.673892,-7.28986
636188,6.804992,-82.238459,-8.556329
636288,7.70442,-81.805721,-9.583846
636388,8.397862,-81.448451,-10.342798
636488,8.996223,-81.225269,-10.927243
636588,9.496979,-81.136193,-11.386278
636688,9.928734,-81.151956,-11.785739
636788,10.394654,-81.225727,-12.201901
636888,10.966446,-81.315431,-12.681139
636988,11.626886,-81.413011,-13.230067
637088,12.329001,-81.512338,-13.867832
637188,12.873864,-81.570757,-14.452277
637288,13.049086,-81.530311,-14.79374
637388,12.844103,-81.370631,-14.829586
637488,12.355437,-81.138795,-14.618397
637588,11.753761,-80.8965,-14.312644
637688,11.178747,-80.693319,-14.022321
637788,10.705502,-80.564288,-13.787917
637888,10.353858,-80.515569,-13.609842
637988,10.11162,-80.519355,-13.467588
638088,9.942526,-80.548432,-13.326694
638188,9.819794,-80.581868,-13.174421
638288,9.714303,-80.616358,-13.010476
638388,9.602203,-80.650512,-12.839992
638488,9.475839,-80.682491,-12.67343
638588,9.316941,-80.713783,-12.507563
638688,9.106997,-80.747625,-12.331014
638788,8.823877,-80.777824,-12.119987
638888,8.46648,-80.804086,-11.860449
638988,8.029095,-80.814182,-11.541645
639088,7.547799,-80.799981,-11.197832
639188,7.040704,-80.774653,-10.839595
639288,6.525349,-80.752437,-10.466272
639388,6.042055,-80.740783,-10.101936
639488,5.640603,-80.7492,-9.786642
639588,5.352788,-80.783747,-9.547349
639688,5.168258,-80.839029,-9.373536
639788,5.060217,-80.910521,-9.25029
639888,4.955989,-80.990254,-9.122531
639988,4.81287,-81.074399,-8.959489
640088,4.595554,-81.16721,-8.72912
640188,4.286856,-81.267355,-8.418363
640288,3.873134,-81.367962,-8.013965
640388,3.361974,-81.461597,-7.525827
640488,2.76628,-81.5444,-6.966982
640588,2.125653,-81.624277,-6.373472
640688,1.473343,-81.705378,-5.777347
640788,0.836532,-81.78503,-5.197461
640888,0.239052,-81.860567,-4.653064
640988,-0.331967,-81.92866,-4.124729
641088,-0.868456,-81.986134,-3.606337
641188,-1.370329,-82.032459,-3.087978
641288,-1.862179,-82.071915,-2.540449
641388,-2.369195,-82.104248,-1.94774
641488,-2.95203,-82.127893,-1.269769
641588,-3.615329,-82.142351,-0.523561
641688,-4.348588,-82.148233,0.26646
641788,-5.122567,-82.138022,1.05661
641888,-5.894791,-82.108502,1.80028
641988,-6.643802,-82.065741,2.481366
642088,-7.326402,-82.008886,3.068185
642188,-7.888703,-81.92773,3.529506
642288,-8.293374,-81.816562,3.852001
642388,-8.516036,-81.667347,4.022657
642488,-8.563518,-81.482171,4.050015
642588,-8.499066,-81.262466,3.999604
642688,-8.39345,-81.000168,3.940739
642788,-8.308417,-80.707346,3.919237
642888,-8.26144,-80.389303,3.933261
642988,-8.238987,-80.051454,3.953331
643088,-8.201031,-79.71617,3.925359
643188,-8.139171,-79.430427,3.830325
643288,-8.050439,-79.250694,3.677012
643388,-7.963753,-79.200572,3.517739
643488,-7.880064,-79.26869,3.368661
643588,-7.839271,-79.433395,3.258909
643688,-7.83212,-79.673372,3.187749
643788,-7.741505,-79.973256,3.065745
643888,-7.493958,-80.317596,2.853751
643988,-6.996956,-80.684404,2.489378
644088,-6.273001,-81.050048,2.002253
644188,-5.408442,-81.374633,1.459161
644288,-4.587519,-81.602317,1.017893
644388,-3.821846,-81.719919,0.652239
644488,-3.110587,-81.750391,0.30718
644588,-2.555959,-81.733931,0.048219
644688,-2.235645,-81.693516,-0.058042
644788,-2.162262,-81.634273,-0.000266
644888,-2.210197,-81.562455,0.110028
644988,-2.199155,-81.500641,0.107767
645088,-2.017925,-81.477991,-0.111327
645188,-1.676732,-81.507046,-0.511957
645288,-1.196148,-81.576792,-1.054866
645388,-0.585807,-81.663259,-1.724696
645488,0.159476,-81.74567,-2.521039
645588,0.997941,-81.806943,-3.398385
645688,1.830183,-81.835067,-4.254113
645788,2.574174,-81.829796,-5.011139
645888,3.135224,-81.799045,-5.577724
645988,3.510641,-81.757016,-5.95153
646088,3.767458,-81.718627,-6.202774
646188,3.946352,-81.695444,-6.377059
646288,4.084581,-81.687869,-6.518258
646388,4.18669,-81.693433,-6.630855
646488,4.249462,-81.709611,-6.709975
646588,4.28215,-81.73921,-6.764334
646688,4.288628,-81.782964,-6.800575
646788,4.278624,-81.83792,-6.824704
646888,4.265181,-81.899185,-6.844811
646988,4.251473,-81.965522,-6.85708
647088,4.251265,-82.046195,-6.868992
647188,4.270338,-82.14669,-6.889816
647288,4.296148,-82.258276,-6.911497
647388,4.345858,-82.365234,-6.959589
647488,4.423579,-82.461459,-7.046079
647588,4.503793,-82.551386,-7.151176
647688,4.566636,-82.634961,-7.251858
647788,4.604401,-82.7129,-7.332872
647888,4.628402,-82.781827,-7.401493
647988,4.684111,-82.833006,-7.495479
648088,4.77994,-82.866274,-7.619322
648188,4.95984,-82.891865,-7.812945
648288,5.235978,-82.924225,-8.085183
648388,5.614324,-82.973844,-8.429091
648488,6.017121,-83.017135,-8.745978
648588,6.377579,-83.016702,-8.953892
648688,6.631555,-82.955188,-9.01179
648788,6.768389,-82.834418,-8.939301
648888,6.799307,-82.671427,-8.797815
648988,6.710031,-82.46335,-8.616733
649088,6.516583,-82.183555,-8.400876
649188,6.298296,-81.813068,-8.200455
649288,6.146778,-81.36785,-8.0839
649388,6.097293,-80.880164,-8.0678
649488,6.187007,-80.421012,-8.178573
649588,6.435629,-80.076781,-8.437327
649688,6.77163,-79.9076,-8.762899
649788,7.162919,-79.912852,-9.117663
649888,7.624584,-80.022474,-9.509005
649988,8.17352,-80.17794,-9.940243
650088,8.798227,-80.346998,-10.41965
650188,9.457376,-80.517004,-10.955491
650288,10.088068,-80.664021,-11.538143
650388,10.534208,-80.756671,-12.030932
650488,10.685789,-80.766984,-12.334612
650588,10.554279,-80.698675,-12.42997
650688,10.146649,-80.593376,-12.291217
650788,9.557811,-80.498548,-11.982439
650888,8.87778,-80.443062,-11.56048
650988,8.169289,-80.428135,-11.065136
651088,7.514501,-80.44079,-10.563128
651188,6.99305,-80.477549,-10.131464
651288,6.693176,-80.543041,-9.86817
651388,6.615631,-80.62937,-9.802393
651488,6.702158,-80.73781,-9.890806
651588,6.883593,-80.868453,-10.072176
651688,7.080085,-81.016653,-10.286773
651788,7.223287,-81.170341,-10.494411
651888,7.260879,-81.323121,-10.660313
651988,7.164897,-81.464903,-10.752598
652088,6.949933,-81.592948,-10.767991
652188,6.644536,-81.7105,-10.713265
652288,6.313418,-81.823245,-10.632345
652388,6.024819,-81.933094,-10.57696
652488,5.834341,-82.037513,-10.594009
652588,5.783683,-82.144792,-10.723353
652688,5.899538,-82.268218,-10.994424
652788,6.193767,-82.41309,-11.422454
652888,6.665791,-82.578539,-12.008488
652988,7.306557,-82.763241,-12.749164
653088,8.112532,-82.965908,-13.635592
653188,9.029501,-83.181606,-14.612417
653288,10.018555,-83.402933,-15.643723
653388,11.040003,-83.626143,-16.695875
653488,12.064111,-83.842247,-17.74566
653588,13.022794,-84.031352,-18.733913
653688,13.815859,-84.179602,-19.563482
653788,14.379277,-84.278033,-20.171632
653888,14.707626,-84.323151,-20.550309
653988,14.842136,-84.32119,-20.742164
654088,14.862961,-84.292166,-20.814366
654188,14.813585,-84.258267,-20.799158
654288,14.705058,-84.229795,-20.699559
654388,14.484571,-84.194636,-20.458083
654488,14.08287,-84.130784,-20.00853
654588,13.42267,-84.017953,-19.28515
654688,12.528059,-83.846419,-18.33556
654788,11.538393,-83.638397,-17.313567
654888,10.500349,-83.414773,-16.272719
654988,9.423209,-83.171444,-15.220093
655088,8.292432,-82.881741,-14.121678
655188,7.176895,-82.531243,-13.025731
655288,6.163309,-82.138853,-12.012717
655388,5.260075,-81.726234,-11.08935
655488,4.469731,-81.31176,-10.253262
655588,3.77856,-80.924591,-9.494919
655688,3.259254,-80.629489,-8.929014
655788,2.895762,-80.489883,-8.570703
655888,2.548904,-80.52424,-8.241909
655988,2.145687,-80.694345,-7.835803
656088,1.701874,-80.952747,-7.351957
656188,1.270398,-81.270741,-6.831623
656288,0.863147,-81.617818,-6.287692
656388,0.483218,-81.945049,-5.724494
656488,0.156512,-82.211829,-5.172425
656588,-0.078362,-82.385229,-4.666076
656688,-0.227316,-82.444247,-4.208471
656788,-0.291041,-82.389949,-3.817154
656888,-0.268127,-82.258948,-3.52076
656988,-0.194423,-82.101079,-3.308296
657088,-0.136058,-81.945528,-3.135625
657188,-0.143608,-81.791102,-2.969293
657288,-0.18155,-81.642675,-2.848406
657388,-0.18403,-81.507292,-2.82828
657488,-0.142947,-81.407444,-2.886053
657588,-0.069118,-81.359052,-2.973848
657688,0.065908,-81.355891,-3.094105
657788,0.28174,-81.37991,-3.264951
657888,0.58253,-81.422296,-3.495976
657988,0.935281,-81.475181,-3.766862
658088,1.256888,-81.535746,-4.00646
658188,1.514224,-81.601482,-4.188979
658288,1.690615,-81.664392,-4.299985
658388,1.781984,-81.726818,-4.332761
658488,1.789858,-81.789374,-4.290409
658588,1.721375,-81.852047,-4.180372
658688,1.595708,-81.921496,-4.02074
658788,1.449961,-81.998585,-3.849308
658888,1.285092,-82.080762,-3.669936
658988,1.091244,-82.165843,-3.475964
659088,0.855485,-82.253185,-3.252891
659188,0.597808,-82.343199,-3.015542
659288,0.336026,-82.437746,-2.778794
659388,0.107317,-82.53987,-2.576123
659488,-0.089365,-82.649264,-2.40734
659588,-0.266507,-82.761103,-2.262806
659688,-0.424731,-82.868352,-2.137823
659788,-0.5911,-82.971108,-2.001872
659888,-0.765946,-83.075998,-1.849239
659988,-0.95941,-83.190381,-1.668009
660088,-1.183793,-83.317901,-1.439645
660188,-1.431365,-83.454092,-1.161602
660288,-1.725826,-83.597205,-0.808623
660388,-2.065512,-83.745052,-0.386408
660488,-2.466061,-83.894928,0.114158
660588,-2.920054,-84.03549,0.67107
660688,-3.404909,-84.165889,1.252476
660788,-3.87489,-84.303967,1.810612
660888,-4.301439,-84.441409,2.314523
660988,-4.647064,-84.558244,2.739087
661088,-4.879588,-84.628699,3.067044
661188,-4.987804,-84.632926,3.2879
661288,-4.911077,-84.57785,3.312083
661388,-4.612388,-84.476297,3.076866
661488,-4.107852,-84.338259,2.576845
661588,-3.39381,-84.172743,1.808541
661688,-2.473812,-83.984144,0.779184
661788,-1.365375,-83.771255,-0.476417
661888,-0.17446,-83.534728,-1.821904
661988,0.933398,-83.291048,-3.058267
662088,1.880309,-83.06655,-4.079988
662188,2.648693,-82.915774,-4.839828
662288,3.33651,-82.881081,-5.442883
662388,3.924539,-82.950054,-5.917427
662488,4.403045,-83.079746,-6.275858
662588,4.880223,-83.220335,-6.617334
662688,5.412337,-83.359836,-7.001247
662788,6.024661,-83.501933,-7.488845
662888,6.760157,-83.639085,-8.189106
662988,7.520718,-83.737528,-9.054147
663088,8.026347,-83.757204,-9.800094
663188,8.131821,-83.690989,-10.249203
663288,7.935932,-83.597554,-10.424875
663388,7.584384,-83.533339,-10.407685
663488,7.200862,-83.521148,-10.283649
663588,6.862771,-83.552173,-10.108837
663688,6.583426,-83.597768,-9.90849
663788,6.352997,-83.647262,-9.686473
663888,6.173173,-83.685675,-9.455765
663988,6.06943,-83.718565,-9.259872
664088,6.030024,-83.761445,-9.109969
664188,6.029836,-83.837735,-9.001519
664288,6.032442,-83.945629,-8.916206
664388,6.033881,-84.069218,-8.867624
664488,5.962262,-84.18786,-8.808328
664588,5.764249,-84.281687,-8.691592
664688,5.503404,-84.345904,-8.554754
664788,5.237368,-84.384674,-8.429502
664888,5.021063,-84.409183,-8.352705
664988,4.89383,-84.433211,-8.350347
665088,4.871397,-84.461296,-8.428847
665188,4.95009,-84.501352,-8.580914
665288,5.140575,-84.555379,-8.822715
665388,5.453686,-84.616398,-9.172402
665488,5.86807,-84.679176,-9.615921
665588,6.37882,-84.741486,-10.161396
665688,6.931444,-84.81245,-10.759229
665788,7.513725,-84.903938,-11.394611
665888,8.130218,-85.014336,-12.065681
665988,8.737308,-85.129734,-12.724693
666088,9.334443,-85.23713,-13.36878
666188,9.903982,-85.327933,-13.978775
666288,10.422428,-85.395031,-14.539569
666388,10.872658,-85.430365,-15.035545
666488,11.229359,-85.437444,-15.442517
666588,11.459792,-85.420781,-15.720826
666688,11.503339,-85.385156,-15.801457
666788,11.37726,-85.340845,-15.697059
666888,11.160216,-85.310786,-15.486612
666988,10.902247,-85.300969,-15.222218
667088,10.612283,-85.299876,-14.923322
667188,10.279809,-85.295466,-14.58419
667288,9.806932,-85.271451,-14.110051
667388,9.147378,-85.207768,-13.463077
667488,8.341108,-85.102013,-12.68637
667588,7.47185,-84.953996,-11.862987
667688,6.596088,-84.776677,-11.049663
667788,5.780801,-84.588662,-10.309293
667888,5.025043,-84.403236,-9.625096
667988,4.304179,-84.217246,-8.95812
668088,3.615837,-84.009682,-8.297913
668188,2.940332,-83.756189,-7.624214
668288,2.21692,-83.435159,-6.881596
668388,1.46733,-83.048798,-6.101592
668488,0.769291,-82.619599,-5.368474
668588,0.134773,-82.160197,-4.696708
668688,-0.458671,-81.704537,-4.077714
668788,-1.029206,-81.306285,-3.516652
668888,-1.525238,-81.000305,-3.06676
668988,-1.868029,-80.804165,-2.788679
669088,-2.039876,-80.735575,-2.682729
669188,-2.10949,-80.775234,-2.676506
669288,-2.173794,-80.894659,-2.657808
669388,-2.265345,-81.078162,-2.569536
669488,-2.305248,-81.305076,-2.466603
669588,-2.218939,-81.536196,-2.417008
669688,-2.035318,-81.727977,-2.402008
669788,-1.81467,-81.852076,-2.370308
669888,-1.574992,-81.898898,-2.306079
669988,-1.328338,-81.873772,-2.211564
670088,-1.075476,-81.789689,-2.111859
670188,-0.849747,-81.666474,-2.008444
670288,-0.696408,-81.519621,-1.884686
670388,-0.667289,-81.361412,-1.722917
670488,-0.794463,-81.194158,-1.502578
670588,-1.012711,-81.020464,-1.281709
670688,-1.140318,-80.851925,-1.228573
670788,-1.105903,-80.711961,-1.392212
670888,-0.900588,-80.618841,-1.73989
670988,-0.556493,-80.57356,-2.20417
671088,-0.090498,-80.565431,-2.755331
671188,0.464778,-80.580813,-3.366181
671288,1.041289,-80.601748,-3.980686
671388,1.578018,-80.611057,-4.541675
671488,2.013523,-80.600031,-4.985595
671588,2.315758,-80.569364,-5.281034
671688,2.475621,-80.531011,-5.4287
671788,2.510705,-80.494008,-5.461012
671888,2.442295,-80.470247,-5.411414
671988,2.29466,-80.460539,-5.309042
672088,2.102075,-80.468209,-5.181616
672188,1.904529,-80.493534,-5.061336
672288,1.722138,-80.531023,-4.964985
672388,1.564172,-80.578929,-4.897133
672488,1.455712,-80.638014,-4.874518
672588,1.383783,-80.713002,-4.882166
672688,1.322463,-80.797091,-4.888043
672788,1.251456,-80.875365,-4.876342
672888,1.164804,-80.941714,-4.837242
672988,1.083648,-81.007301,-4.79084
673088,1.002752,-81.083004,-4.741296
673188,0.929652,-81.173339,-4.705171
673288,0.869465,-81.276652,-4.684429
673388,0.82362,-81.378742,-4.672088
673488,0.806854,-81.4767,-4.678237
673588,0.810903,-81.573386,-4.690494
673688,0.832307,-81.6718,-4.707742
673788,0.866886,-81.77535,-4.728318
673888,0.925635,-81.885586,-4.760845
673988,1.019743,-82.001719,-4.820542
674088,1.158572,-82.12658,-4.920075
674188,1.346172,-82.267734,-5.059844
674288,1.606006,-82.424433,-5.254745
674388,1.947706,-82.578257,-5.506035
674488,2.374024,-82.68721,-5.816712
674588,2.875458,-82.715595,-6.18729
674688,3.435558,-82.662741,-6.624492
674788,4.029116,-82.558679,-7.118706
674888,4.627643,-82.43676,-7.657718
674988,5.291779,-82.316421,-8.31513
675088,6.109885,-82.193097,-9.168999
675188,7.075069,-82.03401,-10.197306
675288,8.153251,-81.803096,-11.355185
675388,9.228334,-81.481325,-12.542846
675488,10.23501,-81.090637,-13.675954
675588,11.048894,-80.672624,-14.607068
675688,11.571663,-80.279252,-15.225755
675788,11.892848,-79.979324,-15.587799
675888,12.119514,-79.811931,-15.805594
675988,12.406163,-79.764078,-16.072816
676088,12.823659,-79.801932,-16.457369
676188,13.451922,-79.893167,-17.012191
676288,14.279037,-80.018562,-17.72644
676388,15.28677,-80.181001,-18.631056
676488,16.390945,-80.357947,-19.715114
676588,17.251814,-80.486439,-20.658546
676688,17.660228,-80.491312,-21.246242
676788,17.513937,-80.353328,-21.32774
676888,16.911811,-80.13594,-20.971022
676988,16.107191,-79.90114,-20.429846
677088,15.30892,-79.708359,-19.873791
677188,14.598009,-79.594489,-19.347573
677288,14.091361,-79.581608,-18.948306
677388,13.807934,-79.64578,-18.697229
677488,13.653843,-79.728135,-18.511138
677588,13.561342,-79.794679,-18.331904
677688,13.521011,-79.854827,-18.176318
677788,13.523122,-79.924884,-18.068962
677888,13.517344,-80.007746,-17.984308
677988,13.438576,-80.094819,-17.882731
678088,13.236216,-80.177745,-17.73057
678188,12.93589,-80.258014,-17.531489
678288,12.578083,-80.345281,-17.289692
678388,12.196423,-80.437408,-17.014159
678488,11.815197,-80.529467,-16.721808
678588,11.476753,-80.621909,-16.449382
678688,11.18378,-80.716006,-16.197638
678788,10.922961,-80.812046,-15.951948
678888,10.707513,-80.912229,-15.735151
678988,10.564065,-81.017939,-15.576469
679088,10.454725,-81.114891,-15.451459
679188,10.356231,-81.198611,-15.350444
679288,10.235295,-81.269866,-15.238929
679388,10.087554,-81.331543,-15.109456
679488,9.894367,-81.379573,-14.936867
679588,9.654547,-81.413322,-14.711413
679688,9.369651,-81.427981,-14.427338
679788,9.058744,-81.427444,-14.106587
679888,8.719487,-81.416821,-13.748897
679988,8.35836,-81.398584,-13.364691
680088,7.969254,-81.375777,-12.954696
680188,7.544234,-81.35398,-12.511325
680288,7.079323,-81.327808,-12.027214
680388,6.554472,-81.290837,-11.46962
680488,5.981893,-81.245512,-10.847025
680588,5.374625,-81.204148,-10.174141
680688,4.752679,-81.180808,-9.481782
680788,4.132513,-81.178692,-8.798657
680888,3.517783,-81.186993,-8.14003
680988,2.934726,-81.193818,-7.531027
681088,2.382208,-81.18813,-6.966969
681188,1.871116,-81.173471,-6.452657
681288,1.392106,-81.145804,-5.97401
681388,0.932524,-81.119599,-5.511306
681488,0.50232,-81.102594,-5.069599
681588,0.100249,-81.097002,-4.641505
681688,-0.303186,-81.091254,-4.192466
681788,-0.719263,-81.065456,-3.712113
681888,-1.142013,-81.003196,-3.20776
681988,-1.563728,-80.89853,-2.69364
682088,-1.956009,-80.748882,-2.195988
682188,-2.311927,-80.558703,-1.713079
682288,-2.647782,-80.329213,-1.219988
682388,-3.002324,-80.07114,-0.677969
682488,-3.347361,-79.798056,-0.142702
682588,-3.636413,-79.516619,0.312487
682688,-3.857483,-79.228988,0.662791
682788,-3.980958,-78.979653,0.878274
682888,-4.046434,-78.846008,0.960176
682988,-4.013055,-78.848927,0.825954
683088,-3.843023,-78.926567,0.454245
683188,-3.561497,-79.027011,-0.103858
683288,-3.291035,-79.138395,-0.681677
683388,-3.035354,-79.309574,-1.210368
683488,-2.751096,-79.589287,-1.685005
683588,-2.362965,-79.962034,-2.1393
683688,-1.825924,-80.348652,-2.595273
683788,-1.163561,-80.675825,-3.049643
683888,-0.485766,-80.917336,-3.436466
683988,0.118536,-81.071394,-3.70999
684088,0.598523,-81.151118,-3.861485
684188,0.946676,-81.192012,-3.920901
684288,1.150419,-81.216801,-3.91159
684388,1.179184,-81.228808,-3.813396
684488,1.034828,-81.215091,-3.609892
684588,0.808599,-81.16999,-3.382006
684688,0.641972,-81.122563,-3.273405
684788,0.612571,-81.112323,-3.34655
684888,0.716554,-81.163469,-3.571056
684988,0.986625,-81.273621,-3.949061
685088,1.444313,-81.427541,-4.488381
685188,2.044572,-81.599805,-5.13388
685288,2.7132,-81.767888,-5.815165
685388,3.365958,-81.918789,-6.462868
685488,3.874461,-82.050034,-6.96018
685588,4.180656,-82.167004,-7.254688
685688,4.324088,-82.279586,-7.390912
685788,4.355744,-82.398342,-7.427815
685888,4.318175,-82.531265,-7.407207
685988,4.276562,-82.676823,-7.389075
686088,4.283387,-82.832376,-7.422087
686188,4.367225,-82.995577,-7.532917
686288,4.50745,-83.16334,-7.701266
686388,4.691313,-83.329174,-7.911256
686488,4.915938,-83.495855,-8.159624
686588,5.174156,-83.672965,-8.441636
686688,5.426486,-83.864427,-8.720263
686788,5.642609,-84.054548,-8.962634
686888,5.82388,-84.2266,-9.159299
686988,5.987924,-84.370698,-9.318552
687088,6.152178,-84.486673,-9.462003
687188,6.310763,-84.576161,-9.597121
687288,6.460409,-84.650701,-9.729041
687388,6.577418,-84.716617,-9.83723
687488,6.691195,-84.781508,-9.949302
687588,6.829481,-84.841023,-10.087133
687688,7.028896,-84.888159,-10.28048
687788,7.316962,-84.916718,-10.545495
687888,7.762045,-84.930503,-10.945882
687988,8.400337,-84.936535,-11.514795
688088,9.18615,-84.926408,-12.198915
688188,9.97162,-84.877983,-12.848518
688288,10.617886,-84.77398,-13.325496
688388,11.073076,-84.611965,-13.591604
688488,11.355525,-84.393769,-13.688243
688588,11.501338,-84.124418,-13.693454
688688,11.579196,-83.814805,-13.704404
688788,11.609764,-83.463443,-13.754733
688888,11.656119,-83.077643,-13.884746
688988,11.800324,-82.671094,-14.131991
689088,12.061664,-82.266073,-14.486737
689188,12.360058,-81.885502,-14.864063
689288,12.645163,-81.566857,-15.206721
689388,12.987814,-81.360919,-15.568909
689488,13.362891,-81.287639,-15.921768
689588,13.787499,-81.307764,-16.285265
689688,14.296868,-81.370494,-16.692131
689788,14.890269,-81.444021,-17.156773
689888,15.533962,-81.51378,-17.681906
689988,16.149995,-81.565813,-18.227596
690088,16.57529,-81.566396,-18.672509
690188,16.680665,-81.490582,-18.897249
690288,16.477648,-81.34134,-18.888644
690388,16.060251,-81.149201,-18.698175
690488,15.517373,-80.948721,-18.370395
690588,14.926797,-80.754953,-17.946914
690688,14.35241,-80.582523,-17.463123
690788,13.845046,-80.450438,-16.964845
690888,13.466669,-80.361585,-16.534884
690988,13.261737,-80.316639,-16.255737
691088,13.188315,-80.317127,-16.106313
691188,13.200131,-80.355497,-16.044339
691288,13.268831,-80.429003,-16.043369
691388,13.373933,-80.530022,-16.093213
691488,13.475084,-80.645228,-16.167739
691588,13.544578,-80.756421,-16.252793
691688,13.552822,-80.85164,-16.316176
691788,13.480544,-80.931278,-16.320081
691888,13.32912,-81.00627,-16.24819
691988,13.139199,-81.082063,-16.133682
692088,12.951264,-81.166681,-16.013124
692188,12.806081,-81.266976,-15.926524
692288,12.733637,-81.394234,-15.900182
692388,12.745811,-81.550538,-15.946772
692488,12.856383,-81.729879,-16.079434
692588,13.070942,-81.916036,-16.303729
692688,13.374412,-82.093675,-16.604223
692788,13.736601,-82.251339,-16.948748
692888,14.114668,-82.381163,-17.298929
692988,14.492913,-82.488357,-17.649493
693088,14.865507,-82.586644,-18.000025
693188,15.227983,-82.686672,-18.346758
693288,15.540419,-82.784197,-18.648156
693388,15.767957,-82.874726,-18.867943
693488,15.897052,-82.958489,-18.991633
693588,15.894681,-83.032281,-18.986668
693688,15.777089,-83.088523,-18.872158
693788,15.554886,-83.117575,-18.658503
693888,15.266039,-83.123036,-18.377541
693988,14.931213,-83.11589,-18.041527
694088,14.545472,-83.10258,-17.641191
694188,14.113822,-83.088386,-17.179878
694288,13.601249,-83.061658,-16.635619
694388,12.992005,-83.005579,-16.004153
694488,12.287787,-82.912796,-15.293059
694588,11.520833,-82.783797,-14.535428
694688,10.73451,-82.628287,-13.773135
694788,9.956762,-82.45402,-13.031643
694888,9.220592,-82.274239,-12.335792
694988,8.536394,-82.086107,-11.689362
695088,7.85474,-81.87166,-11.039422
695188,7.142266,-81.606735,-10.347242
695288,6.412418,-81.286091,-9.617947
695388,5.735802,-80.917595,-8.917819
695488,5.178643,-80.537076,-8.314554
695588,4.756543,-80.199014,-7.853795
695688,4.476635,-79.952851,-7.586285
695788,4.298838,-79.811131,-7.510805
695888,4.157847,-79.753617,-7.554621
695988,3.982895,-79.757617,-7.614988
696088,3.752157,-79.822255,-7.63782
696188,3.489442,-79.955369,-7.60938
696288,3.263793,-80.148417,-7.555018
696388,3.124522,-80.367739,-7.497387
696488,3.083296,-80.588175,-7.438286
696588,3.148022,-80.795236,-7.386177
696688,3.302425,-80.959591,-7.338253
696788,3.495903,-81.062651,-7.264315
696888,3.69714,-81.106108,-7.154793
696988,3.870906,-81.106595,-7.000947
697088,3.981473,-81.082744,-6.799041
697188,3.954314,-81.037456,-6.507406
697288,3.74503,-80.968609,-6.110548
697388,3.342465,-80.881069,-5.610745
697488,2.794177,-80.782617,-5.051962
697588,2.22529,-80.672724,-4.52988
697688,1.746562,-80.542482,-4.13203
697788,1.419115,-80.401262,-3.902298
697888,1.269791,-80.273237,-3.850629
697988,1.264999,-80.177894,-3.928324
698088,1.361991,-80.130237,-4.081837
698188,1.543878,-80.135911,-4.293209
698288,1.791789,-80.189055,-4.543976
698388,2.064255,-80.276369,-4.798961
698488,2.351608,-80.384861,-5.052124
698588,2.614473,-80.499699,-5.272288
698688,2.825401,-80.615223,-5.449429
698788,2.959318,-80.728385,-5.571129
698888,2.991207,-80.832661,-5.621569
698988,2.91545,-80.940509,-5.591419
699088,2.753567,-81.060648,-5.501064
699188,2.547397,-81.195174,-5.383075
699288,2.313467,-81.342113,-5.24393
699388,2.088776,-81.494718,-5.112231
699488,1.902725,-81.643154,-5.008195
699588,1.783194,-81.781722,-4.958055
699688,1.726425,-81.906065,-4.959414
699788,1.708996,-82.021442,-4.99496
699888,1.712511,-82.141744,-5.049584
699988,1.718885,-82.281854,-5.107458
700088,1.70469,-82.440938,-5.147912
700188,1.675864,-82.61116,-5.180654
700288,1.603307,-82.782013,-5.177785
700388,1.50567,-82.945906,-5.153287
700488,1.390789,-83.095033,-5.111473
700588,1.263679,-83.224886,-5.051535
700688,1.154758,-83.340565,-4.996177
700788,1.091605,-83.448109,-4.96531
700888,1.096067,-83.553911,-4.976109
700988,1.183725,-83.668745,-5.046641
701088,1.338366,-83.803071,-5.164059
701188,1.57078,-83.965199,-5.335828
701288,1.862821,-84.149499,-5.542699
701388,2.205997,-84.321266,-5.773982
701488,2.55735,-84.432877,-5.98649
701588,2.935471,-84.456208,-6.221503
701688,3.349822,-84.405525,-6.525809
701788,3.846164,-84.30796,-6.968654
701888,4.410548,-84.18189,-7.549584
701988,5.104435,-84.032486,-8.334263
702088,6.025079,-83.862146,-9.416775
702188,7.213244,-83.653167,-10.800142
702288,8.60635,-83.392235,-12.387566
702388,10.052633,-83.08752,-14.00488
702488,11.323643,-82.763189,-15.413042
702588,12.372036,-82.467757,-16.544427
702688,13.180124,-82.243633,-17.371278
702788,13.891335,-82.11516,-18.062846
702888,14.586413,-82.084574,-18.721996
702988,15.35302,-82.115205,-19.426016
703088,16.259423,-82.167175,-20.237588
703188,17.318174,-82.232165,-21.206413
703288,18.568338,-82.306209,-22.428711
703388,19.851354,-82.353103,-23.791442
703488,20.748491,-82.321716,-24.868945
703588,21.092892,-82.195978,-25.445962
703688,20.91322,-81.998104,-25.533333
703788,20.323297,-81.765827,-25.235405
703888,19.64642,-81.566108,-24.822526
703988,19.113311,-81.446781,-24.479499
704088,18.733548,-81.410349,-24.193991
704188,18.468587,-81.426895,-23.951257
704288,18.291711,-81.458879,-23.756648
704388,18.219358,-81.489916,-23.63784
704488,18.263412,-81.506734,-23.612813
704588,18.382302,-81.502276,-23.648739
704688,18.570983,-81.493004,-23.754457
704788,18.787457,-81.483244,-23.909561
704888,18.970552,-81.474737,-24.072402
704988,19.059977,-81.468086,-24.187239
705088,19.035804,-81.465517,-24.221452
705188,18.945843,-81.484313,-24.203585
705288,18.867985,-81.536781,-24.19592
705388,18.866163,-81.631508,-24.253674
705488,19.006121,-81.780553,-24.442292
705588,19.30528,-81.974832,-24.774308
705688,19.697265,-82.182147,-25.180318
705788,20.118284,-82.382886,-25.602356
705888,20.558955,-82.572917,-26.027219
705988,21.011704,-82.74854,-26.440573
706088,21.471766,-82.909755,-26.842643
706188,21.939698,-83.053872,-27.241646
706288,22.423843,-83.187162,-27.655239
706388,22.897239,-83.316021,-28.068554
706488,23.31786,-83.439049,-28.455624
706588,23.643347,-83.550599,-28.780828
706688,23.864968,-83.648721,-29.029869
706788,23.9933,-83.734699,-29.201438
706888,24.068747,-83.810559,-29.319427
706988,24.137132,-83.878361,-29.414913
707088,24.237392,-83.942867,-29.520848
707188,24.34659,-84.003795,-29.610354
707288,24.423993,-84.061012,-29.643971
707388,24.455422,-84.112114,-29.609432
707488,24.420941,-84.153302,-29.496822
707588,24.292211,-84.178789,-29.281727
707688,24.032088,-84.185431,-28.937089
707788,23.635694,-84.173101,-28.466352
707888,23.093252,-84.145218,-27.859795
707988,22.43504,-84.105294,-27.14392
708088,21.744301,-84.061502,-26.391308
708188,21.122811,-84.031954,-25.700022
708288,20.57591,-84.018411,-25.089508
708388,20.045476,-84.01039,-24.516266
708488,19.457183,-83.99606,-23.900896
708588,18.784856,-83.956516,-23.202832
708688,18.03642,-83.880787,-22.418288
708788,17.227659,-83.765254,-21.542094
708888,16.425803,-83.617647,-20.620895
708988,15.641026,-83.439802,-19.668256
709088,14.844736,-83.225469,-18.663752
709188,14.010026,-82.96511,-17.58659
709288,13.123456,-82.660565,-16.440062
709388,12.167371,-82.316487,-15.22962
709488,11.179102,-81.940577,-14.004925
709588,10.272972,-81.569139,-12.894867
709688,9.534385,-81.252633,-12.015864
709788,9.058855,-81.029712,-11.488599
709888,8.883241,-80.916864,-11.329725
709988,8.88352,-80.903681,-11.379407
710088,8.932888,-80.953021,-11.484295
710188,9.030805,-81.045278,-11.605182
710288,9.251484,-81.181817,-11.774712
710388,9.636693,-81.348188,-12.007081
710488,10.162031,-81.510407,-12.276064
710588,10.746851,-81.627206,-12.525405
710688,11.28874,-81.681142,-12.687021
710788,11.701654,-81.695372,-12.7072
710888,11.971695,-81.695671,-12.601985
710988,12.114268,-81.69876,-12.413192
711088,12.135903,-81.713374,-12.176869
711188,11.972843,-81.72776,-11.852437
711288,11.626978,-81.72953,-11.435756
711388,11.148207,-81.711923,-10.958306
711488,10.65864,-81.668089,-10.531727
711588,10.255339,-81.611244,-10.237415
711688,9.99419,-81.567919,-10.107959
711788,9.888336,-81.551824,-10.124917
711888,9.934721,-81.563252,-10.2655
711988,10.092724,-81.593694,-10.491959
712088,10.276106,-81.632508,-10.730087
712188,10.395343,-81.676781,-10.902154
712288,10.393394,-81.726083,-10.950349
712388,10.257261,-81.776317,-10.862573
712488,10.004968,-81.821385,-10.661832
712588,9.66974,-81.864381,-10.390458
712688,9.309165,-81.911301,-10.116412
712788,8.943323,-81.958151,-9.85819
712888,8.584232,-82.002408,-9.620638
712988,8.255153,-82.047646,-9.418896
713088,7.95179,-82.106156,-9.243299
713188,7.679305,-82.174922,-9.094942
713288,7.425302,-82.246595,-8.961621
713388,7.16374,-82.316458,-8.810875
713488,6.878734,-82.382352,-8.626155
713588,6.566089,-82.444505,-8.399522
713688,6.226805,-82.501767,-8.131144
713788,5.870705,-82.55513,-7.833876
713888,5.528555,-82.613732,-7.542901
713988,5.197421,-82.673734,-7.269519
714088,4.903536,-82.724708,-7.051478
714188,4.608256,-82.763283,-6.849564
714288,4.322545,-82.778672,-6.667303
714388,4.061943,-82.772054,-6.511259
714488,3.834633,-82.757915,-6.381418
714588,3.640901,-82.746809,-6.271073
714688,3.489381,-82.746027,-6.189028
714788,3.385915,-82.761813,-6.147073
714888,3.330278,-82.795434,-6.145066
714988,3.323818,-82.848554,-6.180169
715088,3.378703,-82.917241,-6.259547
715188,3.499019,-82.988573,-6.385601
715288,3.683999,-83.039801,-6.55646
715388,3.926844,-83.038428,-6.768305
715488,4.228575,-82.95975,-7.034699
715588,4.570988,-82.802832,-7.357078
715688,4.957646,-82.586238,-7.755695
715788,5.371598,-82.325666,-8.22934
715888,5.858141,-82.027901,-8.845571
715988,6.375682,-81.685603,-9.55536
716088,6.84498,-81.281821,-10.245835
716188,7.184012,-80.828499,-10.800086
716288,7.545755,-80.423103,-11.3221
716388,8.086489,-80.173243,-11.951413
716488,8.769417,-80.10998,-12.658608
716588,9.538949,-80.21275,-13.420877
716688,10.340924,-80.425096,-14.203374
716788,11.20759,-80.705508,-15.05394
716888,12.169032,-81.031154,-16.006634
716988,13.206413,-81.371372,-17.055602
717088,14.182774,-81.676827,-18.091578
717188,14.836384,-81.879103,-18.883154
717288,14.935311,-81.937621,-19.217284
717388,14.520502,-81.869228,-19.123318
717488,13.805845,-81.742081,-18.767657
717588,13.019824,-81.632637,-18.31371
717688,12.362012,-81.58377,-17.906538
717788,11.875547,-81.597268,-17.569174
717888,11.566014,-81.651838,-17.315733
717988,11.451038,-81.727483,-17.179053
718088,11.480232,-81.802075,-17.13462
718188,11.604586,-81.88239,-17.156262
718288,11.812876,-81.991138,-17.25326
718388,12.078129,-82.134163,-17.420044
718488,12.339855,-82.304208,-17.614259
718588,12.508449,-82.476559,-17.765601
718688,12.536094,-82.633662,-17.830387
718788,12.427631,-82.769343,-17.801338
718888,12.231001,-82.891111,-17.705561
718988,12.002921,-83.008817,-17.583074
719088,11.777828,-83.132901,-17.452226
719188,11.593224,-83.264329,-17.335872
719288,11.461206,-83.400136,-17.238519
719388,11.403621,-83.530433,-17.189498
719488,11.455807,-83.65732,-17.236166
719588,11.64164,-83.785996,-17.410799
719688,11.951053,-83.915217,-17.712557
719788,12.379098,-84.046784,-18.138822
719888,12.882872,-84.181862,-18.638071
719988,13.398238,-84.31402,-19.13846
720088,13.879159,-84.438735,-19.603146
720188,14.297688,-84.554428,-20.012885
720288,14.656989,-84.663901,-20.377955
720388,14.989487,-84.770977,-20.724575
720488,15.321381,-84.878994,-21.066877
720588,15.68437,-84.989448,-21.420886
720688,16.088529,-85.100108,-21.788804
720788,16.482529,-85.209176,-22.124129
720888,16.827237,-85.318001,-22.397158
720988,17.06926,-85.426663,-22.564135
721088,17.174695,-85.535987,-22.595392
721188,17.132034,-85.649369,-22.479829
721288,16.849015,-85.75508,-22.124646
721388,16.298127,-85.842117,-21.49953
721488,15.524939,-85.905973,-20.65304
721588,14.569535,-85.936865,-19.633554
721688,13.468849,-85.926713,-18.48814
721788,12.215829,-85.877306,-17.220434
721888,10.901831,-85.796751,-15.91869
721988,9.60804,-85.70065,-14.649195
722088,8.323102,-85.593223,-13.386201
722188,7.024035,-85.462433,-12.097711
722288,5.706556,-85.299209,-10.772672
722388,4.343766,-85.095828,-9.378189
722488,2.959355,-84.849099,-7.923499
722588,1.649961,-84.587223,-6.509785
722688,0.472745,-84.347607,-5.213975
722788,-0.588974,-84.154595,-4.056166
722888,-1.544009,-84.008587,-3.066227
722988,-2.432588,-83.897712,-2.217251
723088,-3.173996,-83.796505,-1.571961
723188,-3.733226,-83.696235,-1.140729
723288,-4.177569,-83.600449,-0.837085
723388,-4.49586,-83.540366,-0.642426
723488,-4.690025,-83.543422,-0.520514
723588,-4.751137,-83.603214,-0.450265
723688,-4.603742,-83.694529,-0.498426
723788,-4.253341,-83.787656,-0.674199
723888,-3.795952,-83.848774,-0.891869
723988,-3.262672,-83.870925,-1.124607
724088,-2.732411,-83.856339,-1.313064
724188,-2.216453,-83.817282,-1.475216
724288,-1.751389,-83.762152,-1.609753
724388,-1.410447,-83.694201,-1.671298
724488,-1.24035,-83.603931,-1.640492
724588,-1.285711,-83.481204,-1.476866
724688,-1.500983,-83.327291,-1.206382
724788,-1.748402,-83.151375,-0.9438
724888,-1.889546,-82.976366,-0.812953
724988,-1.89373,-82.81982,-0.839099
725088,-1.74931,-82.684959,-1.030048
725188,-1.469077,-82.563864,-1.356349
725288,-1.096158,-82.451336,-1.75715
725388,-0.674147,-82.357511,-2.184489
725488,-0.233687,-82.285167,-2.612173
725588,0.169351,-82.228991,-2.990274
725688,0.439688,-82.177719,-3.228095
725788,0.545447,-82.124132,-3.302202
725888,0.51975,-82.073404,-3.243081
725988,0.412778,-82.030426,-3.099398
726088,0.289258,-82.001809,-2.94282
726188,0.188899,-81.991305,-2.819899
726288,0.135981,-81.998005,-2.760524
726388,0.114505,-82.009377,-2.747403
726488,0.096774,-82.009188,-2.751622
726588,0.071228,-81.994149,-2.760413
726688,0.039452,-81.970732,-2.774276
726788,0.004664,-81.946577,-2.794607
726888,-0.012966,-81.931206,-2.838723
726988,0.001161,-81.929967,-2.916282
727088,0.044093,-81.944453,-3.011671
727188,0.127992,-81.968616,-3.136211
727288,0.24135,-81.996076,-3.280104
727388,0.403851,-82.025395,-3.466762
727488,0.602039,-82.060507,-3.691861
727588,0.827494,-82.102261,-3.948072
727688,1.061904,-82.158653,-4.212201
727788,1.286569,-82.225461,-4.462908
727888,1.525438,-82.294425,-4.717506
727988,1.771902,-82.361567,-4.96718
728088,2.044873,-82.418273,-5.231018
728188,2.377791,-82.463236,-5.546051
728288,2.776935,-82.502028,-5.924717
728388,3.240702,-82.544252,-6.368785
728488,3.755983,-82.590095,-6.865519
728588,4.320138,-82.634922,-7.41088
728688,4.919354,-82.679766,-7.984315
728788,5.526363,-82.719845,-8.555343
728888,6.13615,-82.743601,-9.119938
728988,6.727569,-82.731405,-9.665378
729088,7.278956,-82.672525,-10.178774
729188,7.798938,-82.566948,-10.677481
729288,8.310029,-82.423652,-11.189897
729388,8.830003,-82.239361,-11.728821
729488,9.38687,-81.998733,-12.325357
729588,9.97391,-81.695596,-12.966911
729688,10.591036,-81.328851,-13.655937
729788,11.192645,-80.896423,-14.351017
729888,11.706974,-80.410307,-14.959373
729988,12.067154,-79.909111,-15.380333
730088,12.236367,-79.446425,-15.556559
730188,12.280109,-79.077059,-15.548832
730288,12.305385,-78.839188,-15.488284
730388,12.384697,-78.731489,-15.463271
730488,12.631236,-78.719107,-15.555173
730588,13.110259,-78.743795,-15.801671
730688,13.762082,-78.785118,-16.170728
730788,14.457246,-78.8448,-16.617465
730888,15.058425,-78.898081,-17.103917
730988,15.328875,-78.888704,-17.415291
731088,15.232044,-78.795246,-17.484352
731188,14.854028,-78.648461,-17.354053
731288,14.344195,-78.505904,-17.136018
731388,13.854368,-78.410257,-16.939209
731488,13.492663,-78.370818,-16.825807
731588,13.298366,-78.368717,-16.808469
731688,13.278445,-78.383111,-16.878629
731788,13.385427,-78.400716,-16.994314
731888,13.548686,-78.412471,-17.109644
731988,13.73086,-78.414563,-17.214536
732088,13.902385,-78.416976,-17.298851
732188,14.030312,-78.421262,-17.34953
732288,14.081971,-78.426958,-17.349749
732388,14.03535,-78.428908,-17.290009
732488,13.896498,-78.423044,-17.179965
732588,13.677717,-78.40888,-17.020993
732688,13.402537,-78.393716,-16.821503
732788,13.096063,-78.391247,-16.597425
732888,12.793124,-78.412892,-16.378489
732988,12.509209,-78.464843,-16.174248
733088,12.264026,-78.545581,-15.992373
733188,12.076846,-78.642543,-15.845372
733288,11.95579,-78.744989,-15.74125
733388,11.900883,-78.854059,-15.684861
733488,11.899583,-78.956875,-15.670415
733588,11.938555,-79.040418,-15.691602
733688,11.991444,-79.103654,-15.733012
733788,12.057384,-79.158351,-15.79894
733888,12.139618,-79.211252,-15.89007
733988,12.219788,-79.265136,-15.984689
734088,12.301858,-79.321131,-16.081663
734188,12.382976,-79.379173,-16.17387
734288,12.468683,-79.440572,-16.263563
734388,12.557731,-79.502802,-16.346949
734488,12.634028,-79.560161,-16.407307
734588,12.676166,-79.607446,-16.430658
734688,12.659218,-79.639927,-16.393645
734788,12.567589,-79.663401,-16.284291
734888,12.415344,-79.682825,-16.117579
734988,12.20382,-79.704819,-15.892211
735088,11.947638,-79.731752,-15.618274
735188,11.667282,-79.769624,-15.3156
735288,11.367912,-79.817059,-14.985534
735388,11.051973,-79.87214,-14.626346
735488,10.725019,-79.937408,-14.250536
735588,10.400767,-80.012664,-13.881742
735688,10.083611,-80.089799,-13.535854
735788,9.761598,-80.161869,-13.208033
735888,9.41886,-80.229071,-12.880789
735988,9.055388,-80.291892,-12.546306
736088,8.70795,-80.355249,-12.223413
736188,8.410563,-80.422907,-11.930367
736288,8.166112,-80.493584,-11.661676
736388,7.962127,-80.555286,-11.401364
736488,7.70699,-80.572544,-11.054382
736588,7.343906,-80.519017,-10.56351
736688,6.874661,-80.396254,-9.933454
736788,6.30861,-80.223996,-9.182281
736888,5.619076,-80.016409,-8.286453
736988,4.831563,-79.795951,-7.273824
737088,4.01805,-79.566824,-6.218782
737188,3.260305,-79.325152,-5.221511
737288,2.638193,-79.086695,-4.398628
737388,2.189587,-78.900977,-3.839862
737488,1.968631,-78.816677,-3.626968
737588,1.969777,-78.834575,-3.731831
737688,2.104282,-78.934037,-4.004895
737788,2.238418,-79.094996,-4.285297
737888,2.337981,-79.324613,-4.512064
737988,2.486474,-79.641268,-4.722052
738088,2.734797,-80.030089,-4.955302
738188,3.075906,-80.44791,-5.199885
738288,3.473023,-80.835383,-5.426951
738388,3.870751,-81.144481,-5.593575
738488,4.241186,-81.35966,-5.685635
738588,4.563022,-81.483582,-5.702421
738688,4.844723,-81.524459,-5.687215
738788,5.078458,-81.495037,-5.672592
738888,5.218281,-81.412744,-5.643194
738988,5.200504,-81.291174,-5.547961
739088,5.010029,-81.143826,-5.36416
739188,4.754946,-80.988434,-5.186129
739288,4.601292,-80.845215,-5.158654
739388,4.598102,-80.751928,-5.313598
739488,4.696685,-80.731482,-5.571128
739588,4.899809,-80.789314,-5.900564
739688,5.209019,-80.904408,-6.294924
739788,5.595927,-81.047637,-6.736272
739888,6.040768,-81.204732,-7.217917
739988,6.49465,-81.366517,-7.710015
740088,6.910963,-81.524729,-8.173035
740188,7.243179,-81.668454,-8.561214
740288,7.486028,-81.801419,-8.868698
740388,7.671421,-81.933109,-9.131493
740488,7.844797,-82.074849,-9.395608
740588,8.00893,-82.22834,-9.660039
740688,8.168858,-82.38726,-9.934173
740788,8.302784,-82.54385,-10.196143
740888,8.398931,-82.702728,-10.424998
740988,8.439805,-82.859585,-10.596773
741088,8.410947,-83.010573,-10.69217
741188,8.326648,-83.162253,-10.726201
741288,8.220662,-83.324656,-10.735047
741388,8.104301,-83.500806,-10.726428
741488,7.953596,-83.683602,-10.675181
741588,7.794303,-83.864832,-10.605157
741688,7.627903,-84.035918,-10.518133
741788,7.464243,-84.190659,-10.426975
741888,7.2993,-84.335452,-10.334846
741988,7.152392,-84.469394,-10.262049
742088,7.008143,-84.589089,-10.183759
742188,6.849189,-84.686106,-10.075164
742288,6.75906,-84.768112,-10.015928
742388,6.768282,-84.849255,-10.039248
742488,6.837824,-84.938399,-10.11352
742588,6.926654,-85.037816,-10.202766
742688,7.010839,-85.145352,-10.280343
742788,7.139578,-85.25465,-10.382733
742888,7.359789,-85.364254,-10.547412
742988,7.640075,-85.458021,-10.740278
743088,7.871925,-85.501065,-10.85895
743188,8.048107,-85.477132,-10.922482
743288,8.208017,-85.396116,-10.992784
743388,8.442494,-85.275998,-11.172386
743488,8.780625,-85.125899,-11.489814
743588,9.222873,-84.945382,-11.941778
743688,9.763468,-84.729798,-12.523552
743788,10.34682,-84.476901,-13.172419
743888,10.958513,-84.197819,-13.864551
743988,11.558086,-83.908337,-14.544787
744088,12.10994,-83.620988,-15.165996
744188,12.528259,-83.33078,-15.646174
744288,12.717651,-83.033637,-15.872763
744388,12.700159,-82.769497,-15.840819
744488,12.681455,-82.614923,-15.759605
744588,12.758265,-82.574533,-15.748075
744688,12.985254,-82.592069,-15.86819
744788,13.422086,-82.621186,-16.175692
744888,14.033062,-82.656086,-16.65423
744988,14.740384,-82.697785,-17.26484
745088,15.469608,-82.73396,-17.970753
745188,16.009557,-82.741043,-18.583593
745288,16.140208,-82.684646,-18.897289
745388,15.931144,-82.563679,-18.931845
745488,15.475569,-82.407077,-18.741123
745588,14.88566,-82.245817,-18.419722
745688,14.273261,-82.115235,-18.043068
745788,13.70778,-82.038427,-17.649076
745888,13.192701,-82.012327,-17.225917
745988,12.769165,-82.02008,-16.81389
746088,12.461936,-82.042233,-16.452371
746188,12.282407,-82.067142,-16.185196
746288,12.180303,-82.095293,-15.991662
746388,12.111886,-82.139212,-15.84632
746488,12.069378,-82.214901,-15.7582
746588,12.034425,-82.324606,-15.716037
746688,11.974984,-82.452033,-15.697531
746788,11.839391,-82.57696,-15.645001
746888,11.63148,-82.6812,-15.539342
746988,11.358023,-82.75491,-15.366894
747088,11.023826,-82.803767,-15.117744
747188,10.679315,-82.847716,-14.837271
747288,10.408667,-82.917276,-14.605971
747388,10.243912,-83.032233,-14.457748
747488,10.212628,-83.18512,-14.424908
747588,10.277197,-83.359984,-14.479998
747688,10.423734,-83.535923,-14.616194
747788,10.638376,-83.700992,-14.821937
747888,10.872134,-83.842223,-15.046037
747988,11.120396,-83.953424,-15.277516
748088,11.374415,-84.044538,-15.50493
748188,11.612159,-84.121453,-15.715321
748288,11.823601,-84.19715,-15.897457
748388,11.965736,-84.278065,-16.00238
748488,12.013441,-84.360905,-15.998319
748588,11.927205,-84.43642,-15.847433
748688,11.741812,-84.496793,-15.58423
748788,11.474926,-84.540715,-15.229437
748888,11.118914,-84.576129,-14.786444
748988,10.657797,-84.612554,-14.243797
749088,10.102999,-84.641129,-13.613698
749188,9.429407,-84.650684,-12.872763
749288,8.627976,-84.624581,-12.016745
749388,7.726141,-84.558621,-11.073502
749488,6.769673,-84.461507,-10.085613
749588,5.822491,-84.345887,-9.115044
749688,4.924358,-84.217797,-8.197827
749788,4.099146,-84.076484,-7.357074
749888,3.381913,-83.925393,-6.633484
749988,2.745735,-83.765113,-6.003293
750088,2.159761,-83.580113,-5.437299
750188,1.584525,-83.346279,-4.888986
750288,1.020281,-83.048351,-4.351604
750388,0.473841,-82.690976,-3.8197
750488,-0.025068,-82.299686,-3.305157
750588,-0.466203,-81.918039,-2.806867
750688,-0.838574,-81.58042,-2.350146
750788,-1.10829,-81.30733,-2.007728
750888,-1.256363,-81.108346,-1.842741
750988,-1.3665,-80.980056,-1.816296
751088,-1.49428,-80.920053,-1.855068
751188,-1.658055,-80.915243,-1.906058
751288,-1.840141,-80.957518,-1.933425
751388,-1.989745,-81.039471,-1.935274
751488,-2.030409,-81.139135,-1.951609
751588,-1.932471,-81.230362,-2.005269
751688,-1.718138,-81.30114,-2.079257
751788,-1.394454,-81.356405,-2.184388
751888,-0.994052,-81.404238,-2.310473
751988,-0.565589,-81.451019,-2.434584
752088,-0.142405,-81.495543,-2.542921
752188,0.234899,-81.533434,-2.614511
752288,0.501712,-81.55148,-2.613506
752388,0.597919,-81.522477,-2.512439
752488,0.50519,-81.432468,-2.313222
752588,0.245917,-81.288623,-2.038379
752688,-0.089579,-81.113397,-1.75803
752788,-0.383159,-80.932634,-1.561034
752888,-0.572835,-80.772947,-1.479535
752988,-0.64495,-80.650107,-1.503617
753088,-0.61484,-80.568687,-1.604822
753188,-0.513235,-80.526974,-1.748872
753288,-0.377121,-80.511758,-1.901495
753388,-0.230343,-80.505219,-2.041994
753488,-0.083921,-80.497123,-2.163728
753588,0.043196,-80.492585,-2.252891
753688,0.140712,-80.497381,-2.310998
753788,0.181245,-80.510686,-2.323036
753888,0.17146,-80.524279,-2.298987
753988,0.106259,-80.530574,-2.236031
754088,-0.004137,-80.530242,-2.148327
754188,-0.146132,-80.5294,-2.044995
754288,-0.315752,-80.532222,-1.927038
754388,-0.49631,-80.538614,-1.807608
754488,-0.670411,-80.55242,-1.699866
754588,-0.828249,-80.579572,-1.604223
754688,-0.970454,-80.619171,-1.516424
754788,-1.093891,-80.662206,-1.442861
754888,-1.183292,-80.69892,-1.399434
754988,-1.242525,-80.729723,-1.381344
755088,-1.276323,-80.75804,-1.385387
755188,-1.302719,-80.790917,-1.393578
755288,-1.328921,-80.83256,-1.397611
755388,-1.354326,-80.885809,-1.398068
755488,-1.380244,-80.954258,-1.389513
755588,-1.38389,-81.035927,-1.392396
755688,-1.35761,-81.122039,-1.417162
755788,-1.286504,-81.208749,-1.481336
755888,-1.167287,-81.296619,-1.591673
755988,-1.00471,-81.387624,-1.747725
756088,-0.802558,-81.472608,-1.94912
756188,-0.57261,-81.551364,-2.182218
756288,-0.305036,-81.627976,-2.455068
756388,0.012168,-81.69912,-2.774215
756488,0.379347,-81.765683,-3.138644
756588,0.792148,-81.83409,-3.540803
756688,1.25503,-81.903446,-3.982925
756788,1.764665,-81.962563,-4.460238
756888,2.324179,-81.991471,-4.97723
756988,2.918446,-81.976767,-5.526135
757088,3.564179,-81.917076,-6.129549
757188,4.271758,-81.803814,-6.81026
757288,5.066092,-81.629214,-7.611808
757388,5.962235,-81.383814,-8.563602
757488,6.954764,-81.065897,-9.659998
757588,8.013511,-80.70112,-10.853961
757688,9.064476,-80.328181,-12.04343
757788,9.986701,-79.977202,-13.072029
757888,10.732583,-79.679826,-13.868938
757988,11.353816,-79.47174,-14.465184
758088,11.871176,-79.389205,-14.905529
758188,12.375775,-79.450944,-15.335661
758288,12.999694,-79.627767,-15.885609
758388,13.804597,-79.856551,-16.589286
758488,14.77818,-80.101332,-17.43584
758588,15.86972,-80.351293,-18.419487
758688,16.977005,-80.585491,-19.498504
758788,17.851796,-80.752314,-20.452401
758888,18.31801,-80.814829,-21.088584
758988,18.397932,-80.786213,-21.380599
759088,18.150862,-80.705842,-21.365536
759188,17.712978,-80.612995,-21.158299
759288,17.288073,-80.549457,-20.934093
759388,16.973494,-80.519739,-20.768192
759488,16.808355,-80.519794,-20.683563
759588,16.755552,-80.548762,-20.642172
759688,16.730626,-80.58143,-20.564577
759788,16.689093,-80.602346,-20.427153
759888,16.653413,-80.621924,-20.278915
759988,16.647402,-80.658629,-20.168336
760088,16.663647,-80.719615,-20.104106
760188,16.653663,-80.790043,-20.048132
760288,16.547196,-80.848903,-19.937326
760388,16.308843,-80.886643,-19.731088
760488,15.956185,-80.91193,-19.433688
760588,15.530401,-80.941006,-19.075761
760688,15.07501,-80.990325,-18.690285
760788,14.619761,-81.063441,-18.300681
760888,14.169153,-81.156111,-17.903918
760988,13.73063,-81.256613,-17.504033
761088,13.314627,-81.348333,-17.11818
761188,12.928686,-81.422753,-16.754915
761288,12.556098,-81.472238,-16.403582
761388,12.200787,-81.507698,-16.061656
761488,11.870089,-81.544647,-15.739113
761588,11.558037,-81.590963,-15.428042
761688,11.263127,-81.649679,-15.129373
761788,10.946279,-81.716836,-14.810497
761888,10.586456,-81.786077,-14.456684
761988,10.185691,-81.849439,-14.077711
762088,9.749942,-81.902313,-13.683393
762188,9.306176,-81.943166,-13.297697
762288,8.894375,-81.973417,-12.950107
762388,8.530925,-81.99961,-12.638152
762488,8.225066,-82.024333,-12.355614
762588,7.949188,-82.051411,-12.069016
762688,7.660442,-82.087914,-11.73896
762788,7.318294,-82.13696,-11.332721
762888,6.918729,-82.19293,-10.854212
762988,6.454346,-82.248284,-10.302217
763088,5.91388,-82.299622,-9.676088
763188,5.296109,-82.34412,-8.983172
763288,4.597454,-82.381454,-8.225262
763388,3.820208,-82.411495,-7.406411
763488,2.989655,-82.439534,-6.557528
763588,2.141653,-82.46598,-5.71631
763688,1.32685,-82.492153,-4.928487
763788,0.555816,-82.517508,-4.189909
763888,-0.175961,-82.540771,-3.474541
763988,-0.839878,-82.553218,-2.791692
764088,-1.441268,-82.550986,-2.130446
764188,-1.999866,-82.532691,-1.482992
764288,-2.565837,-82.493705,-0.810474
764388,-3.176557,-82.425448,-0.081105
764488,-3.856825,-82.320284,0.722559
764588,-4.64576,-82.179639,1.643062
764688,-5.522698,-82.0081,2.665972
764788,-6.483159,-81.80217,3.794188
764888,-7.463463,-81.558583,4.963988
764988,-8.312529,-81.283159,6.007781
765088,-9.003487,-80.98594,6.877314
765188,-9.500315,-80.689182,7.507782
765288,-9.837883,-80.434717,7.895992
765388,-10.093633,-80.25473,8.105936
765488,-10.245309,-80.150435,8.141577
765588,-10.261337,-80.11898,8.016857
765688,-10.258073,-80.139181,7.880199
765788,-10.315157,-80.203053,7.841661
765888,-10.421522,-80.322976,7.914978
765988,-10.519611,-80.492653,8.074213
766088,-10.576812,-80.671812,8.305205
766188,-10.56238,-80.812268,8.565739
766288,-10.441355,-80.893189,8.778372
766388,-10.276964,-80.916821,8.961476
766488,-10.138061,-80.896954,9.144376
766588,-10.023333,-80.858338,9.296116
766688,-9.960409,-80.817291,9.427482
766788,-9.95701,-80.760558,9.535991
766888,-10.033503,-80.688061,9.643736
766988,-10.158684,-80.613935,9.736182
767088,-10.227248,-80.555775,9.739995
767188,-10.192574,-80.53584,9.626123
767288,-10.077733,-80.565076,9.426319
767388,-9.884088,-80.630668,9.158705
767488,-9.582252,-80.715039,8.797628
767588,-9.172619,-80.796416,8.341568
767688,-8.697691,-80.862541,7.828778
767788,-8.246425,-80.908686,7.341492
767888,-7.888838,-80.934795,6.943677
767988,-7.637485,-80.944956,6.643887
768088,-7.451131,-80.944181,6.405092
768188,-7.310353,-80.941345,6.205445
768288,-7.170884,-80.946772,6.001824
768388,-7.002289,-80.974404,5.763833
768488,-6.790459,-81.031394,5.477118
768588,-6.521301,-81.109649,5.130963
768688,-6.195188,-81.193397,4.729216
768788,-5.835936,-81.276561,4.29089
768888,-5.485173,-81.361998,3.861501
768988,-5.16565,-81.455412,3.470104
769088,-4.880093,-81.558529,3.119339
769188,-4.624255,-81.672512,2.805415
769288,-4.38904,-81.79993,2.524005
769388,-4.151541,-81.939015,2.25189
769488,-3.887625,-82.074845,1.959797
769588,-3.587999,-82.197665,1.630766
769688,-3.237141,-82.306967,1.243516
769788,-2.849362,-82.405912,0.810847
769888,-2.450119,-82.499523,0.358025
769988,-2.028776,-82.579489,-0.117254
770088,-1.58126,-82.654924,-0.611847
770188,-1.097396,-82.734524,-1.131394
770288,-0.552795,-82.814053,-1.701449
770388,0.053455,-82.88555,-2.313882
770488,0.709449,-82.934396,-2.955718
770588,1.415032,-82.952174,-3.63155
770688,2.144205,-82.947248,-4.321367
770788,2.8761,-82.932606,-5.012084
770888,3.598949,-82.9168,-5.695425
770988,4.315924,-82.894217,-6.368974
771088,5.038106,-82.848978,-7.033787
771188,5.775778,-82.770816,-7.701437
771288,6.543523,-82.652282,-8.40044
771388,7.33257,-82.484358,-9.143718
771488,8.138731,-82.26631,-9.954043
771588,8.959707,-81.99824,-10.833015
771688,9.768526,-81.684297,-11.741309
771788,10.536446,-81.330837,-12.610982
771888,11.248821,-80.949236,-13.391766
771988,11.859673,-80.57023,-14.011249
772088,12.312677,-80.24099,-14.39636
772188,12.670907,-80.004831,-14.621861
772288,12.986506,-79.883552,-14.785832
772388,13.370765,-79.892604,-15.027867
772488,13.942303,-79.995547,-15.456315
772588,14.723779,-80.133301,-16.064483
772688,15.69279,-80.281035,-16.849344
772788,16.756861,-80.422135,-17.776985
772888,17.730652,-80.511456,-18.722176
772988,18.350099,-80.499713,-19.429564
773088,18.561441,-80.383886,-19.809629
773188,18.473866,-80.208632,-19.931051
773288,18.211337,-80.022714,-19.896218
773388,17.902111,-79.865457,-19.806618
773488,17.68391,-79.765447,-19.759438
773588,17.602806,-79.738859,-19.775561
773688,17.627073,-79.780472,-19.822687
773788,17.732004,-79.876273,-19.896189
773888,17.873388,-79.997623,-19.960634
773988,17.999093,-80.121161,-19.979676
774088,18.087205,-80.246188,-19.953736
774188,18.153683,-80.385205,-19.92433
774288,18.213214,-80.539381,-19.930379
774388,18.254801,-80.696412,-19.971467
774488,18.255168,-80.839956,-20.020395
774588,18.18815,-80.965801,-20.040083
774688,18.069215,-81.083111,-20.03624
774788,17.919343,-81.203408,-20.019028
774888,17.772289,-81.342574,-20.010985
774988,17.677635,-81.510909,-20.05333
775088,17.701759,-81.711859,-20.204592
775188,17.882033,-81.949382,-20.495224
775288,18.201668,-82.210134,-20.906846
775388,18.628126,-82.465925,-21.416467
775488,19.139573,-82.692758,-21.99933
775588,19.720509,-82.885996,-22.626869
775688,20.361331,-83.050043,-23.294551
775788,21.023977,-83.195656,-23.97711
775888,21.66875,-83.326386,-24.640335
775988,22.231526,-83.436526,-25.226958
776088,22.704466,-83.525265,-25.72803
776188,23.105505,-83.600715,-26.154864
776288,23.465625,-83.666039,-26.532901
776388,23.810792,-83.724654,-26.887321
776488,24.128693,-83.775732,-27.203021
776588,24.399706,-83.816866,-27.457082
776688,24.542548,-83.842687,-27.566573
776788,24.504271,-83.846503,-27.48615
776888,24.278739,-83.833395,-27.222439
776988,23.915308,-83.812885,-26.83598
777088,23.435642,-83.790369,-26.354372
777188,22.882315,-83.767054,-25.819851
777288,22.277076,-83.741998,-25.249361
777388,21.629436,-83.71165,-24.646629
777488,20.940031,-83.668789,-24.005509
777588,20.166883,-83.609328,-23.28321
777688,19.327793,-83.533542,-22.497784
777788,18.435831,-83.442424,-21.658894
777888,17.552753,-83.339306,-20.816556
777988,16.668734,-83.227832,-19.957115
778088,15.739066,-83.099862,-19.031814
778188,14.725677,-82.950287,-18.001593
778288,13.590468,-82.761318,-16.830881
778388,12.365122,-82.515312,-15.543551
778488,11.106967,-82.211938,-14.190726
778588,9.899814,-81.868152,-12.848776
778688,8.758452,-81.532314,-11.541811
778788,7.744937,-81.268771,-10.378827
778888,6.903532,-81.109465,-9.45435
778988,6.206333,-81.042305,-8.765465
779088,5.607619,-81.041931,-8.247344
779188,5.067565,-81.091531,-7.824714
779288,4.549761,-81.185391,-7.433912
779388,4.103875,-81.336454,-7.081991
779488,3.78441,-81.54873,-6.794885
779588,3.621791,-81.809442,-6.582972
779688,3.634641,-82.080567,-6.465079
779788,3.739829,-82.316257,-6.377023
779888,3.873771,-82.490201,-6.261319
779988,4.010808,-82.592096,-6.106041
780088,4.108002,-82.627672,-5.898668
780188,4.186487,-82.613234,-5.693343
780288,4.213383,-82.562215,-5.497749
780388,4.116963,-82.479662,-5.270141
780488,3.834398,-82.366509,-4.946318
780588,3.382167,-82.218578,-4.523978
780688,2.886668,-82.045176,-4.096686
780788,2.454043,-81.863786,-3.748894
780888,2.163194,-81.702163,-3.553292
780988,1.99517,-81.588342,-3.477108
781088,1.956533,-81.532128,-3.51538
781188,2.015342,-81.523292,-3.627596
781288,2.134329,-81.543107,-3.768449
781388,2.270567,-81.565785,-3.896559
781488,2.376238,-81.575044,-3.975393
781588,2.410171,-81.565508,-3.975672
781688,2.353104,-81.543936,-3.892298
781788,2.226443,-81.523773,-3.759991
781888,2.065922,-81.515617,-3.618073
781988,1.900745,-81.521626,-3.492313
782088,1.751463,-81.533385,-3.401741
782188,1.607833,-81.541361,-3.331036
782288,1.458868,-81.543156,-3.264691
782388,1.31376,-81.545385,-3.204993
782488,1.166351,-81.557431,-3.141192
782588,1.029378,-81.582114,-3.084008
782688,0.908031,-81.616097,-3.039207
782788,0.806528,-81.657869,-3.016698
782888,0.731275,-81.704166,-3.028126
782988,0.661538,-81.759151,-3.04903
783088,0.604532,-81.825243,-3.080092
783188,0.58163,-81.89607,-3.138961
783288,0.602819,-81.974654,-3.233632
783388,0.663752,-82.066928,-3.361192
783488,0.767316,-82.166448,-3.52143
783588,0.890659,-82.269583,-3.687951
783688,1.017167,-82.376289,-3.84154
783788,1.149376,-82.491296,-3.982991
783888,1.290359,-82.609071,-4.120871
783988,1.469658,-82.727545,-4.290799
784088,1.703981,-82.847923,-4.51376
784188,1.996401,-82.970585,-4.79973
784288,2.342647,-83.099305,-5.143052
784388,2.745721,-83.227905,-5.54124
784488,3.191274,-83.357797,-5.975996
784588,3.691681,-83.500056,-6.44988
784688,4.269015,-83.668405,-6.989457
784788,4.956854,-83.870395,-7.628625
784888,5.717938,-84.095707,-8.324635
784988,6.532474,-84.32662,-9.052452
785088,7.481987,-84.54079,-9.906736
785188,8.535424,-84.70981,-10.870653
785288,9.67135,-84.799275,-11.947029
785388,10.783609,-84.791184,-13.045246
785488,11.832722,-84.697486,-14.125436
785588,12.88528,-84.525563,-15.247265
785688,13.998509,-84.275281,-16.448383
785788,15.090532,-83.955597,-17.639069
785888,16.07412,-83.587117,-18.724757
785988,16.836808,-83.193093,-19.557448
786088,17.259848,-82.785808,-19.986463
786188,17.42317,-82.374512,-20.080776
786288,17.49815,-82.008625,-20.027904
786388,17.545391,-81.743041,-19.94388
786488,17.722904,-81.585803,-20.017098
786588,18.140623,-81.491732,-20.318642
786688,18.766772,-81.428585,-20.815713
786788,19.503174,-81.371219,-21.425573
786888,20.163443,-81.301774,-22.013025
786988,20.474175,-81.181953,-22.354351
787088,20.351666,-80.999478,-22.337483
787188,19.826813,-80.758683,-21.974504
787288,18.97485,-80.501366,-21.320291
787388,18.064656,-80.293374,-20.614463
787488,17.301518,-80.164457,-20.010705
787588,16.777139,-80.107139,-19.56314
787688,16.494801,-80.094343,-19.278092
787788,16.380971,-80.093276,-19.105976
787888,16.355853,-80.087233,-18.994306
787988,16.367723,-80.066541,-18.90328
788088,16.377787,-80.029078,-18.80018
788188,16.331182,-79.982032,-18.632115
788288,16.180176,-79.926347,-18.374887
788388,15.86461,-79.866653,-17.978032
788488,15.373262,-79.824136,-17.437753
788588,14.745251,-79.81116,-16.796672
788688,14.035688,-79.829343,-16.084546
788788,13.282017,-79.874704,-15.315358
788888,12.536009,-79.917987,-14.532793
788988,11.855471,-79.948703,-13.79277
789088,11.275817,-79.969526,-13.131151
789188,10.824285,-79.984132,-12.578158
789288,10.505575,-80.009679,-12.141875
789388,10.297685,-80.062705,-11.809121
789488,10.111823,-80.145441,-11.495758
789588,9.927648,-80.23692,-11.196587
789688,9.705059,-80.319221,-10.879664
789788,9.441412,-80.392186,-10.539008
789888,9.159503,-80.457845,-10.196445
789988,8.848474,-80.509163,-9.832902
790088,8.506271,-80.538929,-9.443622
790188,8.129676,-80.5534,-9.025546
790288,7.750026,-80.565475,-8.60791
790388,7.38476,-80.589016,-8.206917
790488,7.046081,-80.633657,-7.831589
790588,6.705241,-80.695973,-7.452071
790688,6.324895,-80.771892,-7.027887
790788,5.913114,-80.852656,-6.570422
790888,5.48699,-80.932772,-6.095811
790988,5.059758,-81.003708,-5.611014
791088,4.568502,-81.064087,-5.043799
791188,4.051642,-81.127406,-4.437711
791288,3.506581,-81.194225,-3.805387
791388,2.924462,-81.260075,-3.146983
791488,2.368016,-81.323004,-2.528735
791588,1.694445,-81.369333,-1.807845
791688,0.929382,-81.397591,-0.992279
791788,0.156973,-81.393584,-0.169549
791888,-0.593436,-81.368474,0.632185
791988,-1.28818,-81.353749,1.385825
792088,-1.888711,-81.350152,2.05166
792188,-2.409499,-81.350185,2.648824
792288,-2.917441,-81.341128,3.249057
792388,-3.428412,-81.3067,3.85285
792488,-3.988355,-81.236543,4.491908
792588,-4.590027,-81.140656,5.157363
792688,-5.228406,-81.023607,5.864145
792788,-5.911103,-80.891078,6.644701
792888,-6.609798,-80.733996,7.484497
792988,-7.287734,-80.545634,8.335772
793088,-7.8613,-80.329704,9.073156
793188,-8.348088,-80.090225,9.686609
793288,-8.715877,-79.845076,10.139392
793388,-8.955177,-79.640515,10.414991
793488,-9.016774,-79.516769,10.452101
793588,-8.859199,-79.472692,10.223669
793688,-8.620061,-79.494651,9.873241
793788,-8.424561,-79.554614,9.53452
793888,-8.275106,-79.642316,9.236167
793988,-8.129149,-79.758111,8.978479
794088,-7.935989,-79.899476,8.751294
794188,-7.659595,-80.045326,8.515039
794288,-7.290352,-80.18697,8.241426
794388,-6.820439,-80.306551,7.915041
794488,-6.271,-80.390986,7.540542
794588,-5.70361,-80.449392,7.158949
794688,-5.163956,-80.494077,6.797989
794788,-4.670625,-80.524451,6.448735
794888,-4.270305,-80.541305,6.131101
794988,-3.984592,-80.546595,5.852992
795088,-3.754787,-80.536495,5.567095
795188,-3.528191,-80.513312,5.247341
795288,-3.266097,-80.490557,4.867398
795388,-2.964749,-80.485712,4.424275
795488,-2.606282,-80.508744,3.909134
795588,-2.200118,-80.554428,3.344275
795688,-1.779067,-80.61371,2.775094
795788,-1.360413,-80.676107,2.221719
795888,-0.952543,-80.736052,1.689938
795988,-0.555298,-80.789354,1.176584
796088,-0.157781,-80.841771,0.668686
796188,0.236828,-80.898907,0.167941
796288,0.618042,-80.965586,-0.318374
796388,0.954413,-81.04648,-0.767789
796488,1.24502,-81.141292,-1.181055
796588,1.483432,-81.241425,-1.553332
796688,1.683539,-81.335138,-1.899639
796788,1.873857,-81.421588,-2.239196
796888,2.092848,-81.501596,-2.602396
796988,2.350933,-81.575274,-2.997982
797088,2.640651,-81.643392,-3.4174
797188,2.96202,-81.700177,-3.866418
797288,3.315722,-81.746895,-4.344147
797388,3.697336,-81.805348,-4.848555
797488,4.077677,-81.886512,-5.357061
797588,4.431564,-82.001248,-5.845468
797688,4.726355,-82.138295,-6.279138
797788,4.970263,-82.274993,-6.665715
797888,5.212944,-82.398464,-7.055168
797988,5.506705,-82.507044,-7.490046
798088,5.911551,-82.603729,-8.017755
798188,6.428016,-82.694211,-8.629782
798288,7.035036,-82.784268,-9.302112
798388,7.714887,-82.875562,-10.019453
798488,8.420692,-82.969949,-10.737911
798588,9.117896,-83.061568,-11.434347
798688,9.790529,-83.13852,-12.10105
798788,10.438687,-83.194845,-12.743069
798888,11.103213,-83.228288,-13.40348
798988,11.815387,-83.248864,-14.116741
799088,12.615526,-83.266482,-14.923574
799188,13.5319,-83.284087,-15.852827
799288,14.506144,-83.29529,-16.845223
799388,15.48692,-83.293151,-17.843813
799488,16.46259,-83.27899,-18.832522
799588,17.398966,-83.257966,-19.775028
799688,18.321277,-83.243264,-20.683859
799788,19.252986,-83.22592,-21.580919
799888,20.136341,-83.177148,-22.423094
799988,20.90752,-83.077093,-23.176843
800088,21.51378,-82.915326,-23.813446
800188,21.968468,-82.692481,-24.356597
800288,22.327506,-82.417949,-24.852849
800388,22.634761,-82.107465,-25.324109
800488,22.906132,-81.775192,-25.769814
800588,23.141471,-81.439225,-26.179885
800688,23.332358,-81.130098,-26.545659
800788,23.535652,-80.892555,-26.916673
800888,23.994743,-80.770212,-27.514359
800988,24.813038,-80.755247,-28.412462
801088,25.877894,-80.808811,-29.481924
801188,27.155561,-80.899709,-30.693307
801288,28.527991,-81.007183,-31.979726
801388,29.841104,-81.10641,-33.263779
801488,30.867697,-81.178302,-34.367415
801588,31.418595,-81.217577,-35.10583
801688,31.530844,-81.23555,-35.486263
801788,31.317779,-81.254029,-35.590895
801888,30.83098,-81.283288,-35.439871
801988,30.192813,-81.328742,-35.10924
802088,29.554199,-81.388616,-34.704792
802188,28.990671,-81.452034,-34.279
802288,28.494513,-81.504708,-33.824596
802388,28.063023,-81.548178,-33.361816
802488,27.65721,-81.587936,-32.898419
802588,27.239884,-81.629747,-32.433989
802688,26.839234,-81.684145,-32.012745
802788,26.550792,-81.766268,-31.732997
802888,26.352406,-81.866536,-31.565353
802988,26.185781,-81.971567,-31.447517
803088,25.951336,-82.074219,-31.275304
803188,25.558339,-82.165343,-30.956088
803288,24.992573,-82.247084,-30.469325
803388,24.305924,-82.333067,-29.85841
803488,23.563851,-82.42492,-29.176839
803588,22.837772,-82.51803,-28.48891
803688,22.20674,-82.609494,-27.868177
803788,21.687618,-82.69224,-27.339679
803888,21.274539,-82.754451,-26.90891
803988,20.930975,-82.792175,-26.547314
804088,20.651496,-82.812231,-26.258096
804188,20.456563,-82.830064,-26.063752
804288,20.353196,-82.864911,-25.966426
804388,20.330457,-82.928548,-25.952634
804488,20.378222,-83.017342,-26.005418
804588,20.50663,-83.121489,-26.127246
804688,20.740514,-83.229561,-26.338694
804788,21.048524,-83.330668,-26.618281
804888,21.393348,-83.418546,-26.936245
804988,21.753757,-83.493389,-27.283388
805088,22.111107,-83.557523,-27.646704
805188,22.479687,-83.623121,-28.038137
805288,22.883235,-83.69399,-28.480702
805388,23.29965,-83.769359,-28.939295
805488,23.694695,-83.843817,-29.372384
805588,24.036309,-83.908678,-29.738122
805688,24.319527,-83.957147,-30.022991
805788,24.5132,-83.98456,-30.191592
805888,24.580045,-83.992551,-30.216499
805988,24.548622,-83.982223,-30.134179
806088,24.432018,-83.965039,-29.968715
806188,24.222346,-83.947047,-29.719399
806288,23.891655,-83.925762,-29.358245
806388,23.404127,-83.891323,-28.84571
806488,22.743079,-83.83843,-28.164975
806588,21.959597,-83.764979,-27.372702
806688,21.1064,-83.674398,-26.520764
806788,20.208014,-83.568522,-25.628623
806888,19.296134,-83.442064,-24.720184
806988,18.38875,-83.293617,-23.803918
807088,17.499534,-83.112909,-22.883173
807188,16.559343,-82.885954,-21.883237
807288,15.495599,-82.598583,-20.720973
807388,14.36812,-82.264434,-19.450636
807488,13.356414,-81.938309,-18.266812
807588,12.543085,-81.668583,-17.285094
807688,11.925782,-81.473092,-16.544925
807788,11.518327,-81.350837,-16.106984
807888,11.326748,-81.295059,-15.987656
807988,11.292163,-81.29146,-16.085214
808088,11.354815,-81.315977,-16.295284
808188,11.522909,-81.364033,-16.583162
808288,11.806014,-81.444468,-16.925128
808388,12.202066,-81.545158,-17.299772
808488,12.662646,-81.646942,-17.657518
808588,13.121124,-81.729814,-17.937997
808688,13.523403,-81.781227,-18.110693
808788,13.840784,-81.800792,-18.172735
808888,14.079855,-81.804123,-18.143643
808988,14.298263,-81.805767,-18.090874
809088,14.499453,-81.814801,-18.036579
809188,14.650441,-81.832679,-17.965899
809288,14.688439,-81.844841,-17.838851
809388,14.564028,-81.837088,-17.61201
809488,14.242611,-81.802956,-17.252642
809588,13.786007,-81.739903,-16.822972
809688,13.30963,-81.657631,-16.429827
809788,12.917677,-81.573406,-16.151886
809888,12.66142,-81.502287,-16.01213
809988,12.55284,-81.452511,-15.999723
810088,12.571118,-81.426259,-16.086071
810188,12.67442,-81.426662,-16.225136
810288,12.801916,-81.445729,-16.355483
810388,12.93256,-81.470356,-16.453527
810488,13.037868,-81.483129,-16.499178
810588,13.111314,-81.483201,-16.497073
810688,13.126903,-81.47326,-16.439553
810788,13.087164,-81.453271,-16.341935
810888,12.999124,-81.433463,-16.219304
810988,12.866302,-81.419473,-16.077397
811088,12.693749,-81.415026,-15.918436
811188,12.497935,-81.418308,-15.750323
811288,12.29377,-81.427344,-15.583367
811388,12.084763,-81.443802,-15.413587
811488,11.86545,-81.461993,-15.248515
811588,11.627147,-81.479801,-15.069396
811688,11.339929,-81.491375,-14.845246
811788,11.010887,-81.494543,-14.579454
811888,10.678321,-81.497779,-14.299588
811988,10.374057,-81.505884,-14.0323
812088,10.115336,-81.520715,-13.796171
812188,9.880382,-81.53764,-13.574815
812288,9.654969,-81.562229,-13.364671
812388,9.442133,-81.596355,-13.177273
812488,9.228249,-81.644126,-13.005409
812588,9.013706,-81.699305,-12.848281
812688,8.813189,-81.756508,-12.717331
812788,8.640984,-81.814674,-12.612564
812888,8.525829,-81.869279,-12.552086
812988,8.477304,-81.914119,-12.541961
813088,8.495562,-81.945153,-12.586193
813188,8.580368,-81.970636,-12.688185
813288,8.692994,-81.996421,-12.812365
813388,8.817653,-82.033898,-12.939841
813488,8.950633,-82.089711,-13.055859
813588,9.048313,-82.150794,-13.113179
813688,9.121362,-82.196415,-13.11537
813788,9.230894,-82.214227,-13.122279
813888,9.401111,-82.178816,-13.174401
813988,9.60239,-82.074908,-13.263665
814088,9.770843,-81.898525,-13.343132
814188,9.901043,-81.652065,-13.422339
814288,10.050382,-81.345512,-13.564052
814388,10.28568,-80.982978,-13.840939
814488,10.644848,-80.566532,-14.281577
814588,11.117406,-80.106946,-14.865048
814688,11.681615,-79.629022,-15.55623
814788,12.148756,-79.150107,-16.160884
814888,12.463366,-78.724494,-16.583304
814988,12.752199,-78.418459,-16.896318
815088,13.02694,-78.257918,-17.161769
815188,13.378574,-78.231564,-17.544976
815288,13.899098,-78.318295,-18.111078
815388,14.63599,-78.470071,-18.839005
815488,15.596377,-78.65543,-19.713022
815588,16.687253,-78.842265,-20.702448
815688,17.666429,-78.96495,-21.655871
815788,18.152918,-78.961882,-22.232983
815888,18.111752,-78.837305,-22.368543
815988,17.747454,-78.651389,-22.229899
816088,17.226299,-78.483085,-21.946048
816188,16.696056,-78.393171,-21.618526
816288,16.240851,-78.384851,-21.299105
816388,15.88972,-78.430714,-20.996147
816488,15.703983,-78.503324,-20.767988
816588,15.697814,-78.585452,-20.636068
816688,15.777562,-78.656984,-20.52609
816788,15.891156,-78.720469,-20.415001
816888,16.01833,-78.790554,-20.31305
816988,16.113357,-78.878974,-20.214486
817088,16.130994,-78.98625,-20.103116
817188,16.042186,-79.104257,-19.96621
817288,15.845702,-79.221508,-19.789084
817388,15.570803,-79.334559,-19.561664
817488,15.22405,-79.446298,-19.258249
817588,14.824222,-79.566745,-18.887078
817688,14.402054,-79.706435,-18.478524
817788,14.015273,-79.862928,-18.083689
817888,13.694258,-80.030585,-17.726704
817988,13.438264,-80.195156,-17.407272
818088,13.236885,-80.347553,-17.128515
818188,13.097112,-80.486596,-16.914865
818288,12.978471,-80.610341,-16.737162
818388,12.84708,-80.721722,-16.577498
818488,12.7028,-80.824335,-16.439575
818588,12.552069,-80.926003,-16.327588
818688,12.393386,-81.026989,-16.237167
818788,12.219832,-81.120178,-16.145821
818888,12.031356,-81.198853,-16.041871
818988,11.875064,-81.262784,-15.963667
819088,11.737419,-81.315686,-15.886689
819188,11.605017,-81.356149,-15.791841
819288,11.51417,-81.400094,-15.715429
819388,11.448137,-81.459439,-15.649578
819488,11.401667,-81.538736,-15.593886
819588,11.363007,-81.623279,-15.536684
819688,11.240002,-81.691658,-15.388008
819788,11.017329,-81.747308,-15.135205
819888,10.704792,-81.786213,-14.797947
819988,10.320933,-81.809839,-14.400783
820088,9.895828,-81.83226,-13.968546
820188,9.465513,-81.870724,-13.530154
820288,9.080433,-81.944541,-13.137354
820388,8.787683,-82.066453,-12.847795
820488,8.589982,-82.222975,-12.665477
820588,8.506985,-82.389296,-12.606536
820688,8.516013,-82.546042,-12.649698
820788,8.504242,-82.674469,-12.679503
820888,8.415948,-82.762145,-12.647345
820988,8.240195,-82.821522,-12.541222
821088,7.923821,-82.869452,-12.282492
821188,7.50972,-82.911526,-11.889628
821288,7.064766,-82.93408,-11.413737
821388,6.622765,-82.919805,-10.890058
821488,6.135403,-82.853298,-10.280487
821588,5.569272,-82.751401,-9.570155
821688,4.945033,-82.637591,-8.795127
821788,4.345444,-82.53276,-8.052811
821888,3.789004,-82.464996,-7.388068
821988,3.3433,-82.443218,-6.898239
822088,3.053578,-82.475118,-6.658741
822188,3.093687,-82.571364,-6.841374
822288,3.516044,-82.714121,-7.478684
822388,4.261664,-82.8751,-8.463905
822488,5.340771,-83.033027,-9.747066
822588,6.717121,-83.179566,-11.243265
822688,8.274213,-83.300103,-12.822943
822788,9.827113,-83.389775,-14.330004
822888,11.276504,-83.446709,-15.690753
822988,12.566068,-83.466208,-16.856864
823088,13.574633,-83.444664,-17.707994
823188,14.281736,-83.389431,-18.238529
823288,14.750547,-83.318824,-18.541387
823388,15.021389,-83.250705,-18.712955
823488,15.097953,-83.200635,-18.789645
823588,15.028029,-83.168187,-18.801145
823688,14.870509,-83.142116,-18.777735
823788,14.721723,-83.118237,-18.795952
823888,14.751557,-83.097149,-19.005579
823988,15.050068,-83.081322,-19.481533
824088,15.569861,-83.070625,-20.162888
824188,16.250954,-83.060556,-20.980305
824288,17.01038,-83.04902,-21.846068
824388,17.756369,-83.031306,-22.671731
824488,18.413867,-83.010212,-23.386963
824588,18.91773,-82.986245,-23.93226
824688,19.209203,-82.965326,-24.255797
824788,19.270774,-82.952103,-24.346554
824888,19.22578,-82.952496,-24.328157
824988,19.143475,-82.964843,-24.275972
825088,19.07686,-82.986315,-24.254172
825188,19.05873,-83.016942,-24.296264
825288,19.080913,-83.053856,-24.393205
825388,19.14444,-83.099993,-24.543079
825488,19.249814,-83.163278,-24.740331
825588,19.409479,-83.240884,-24.982599
825688,19.615338,-83.327513,-25.253755
825788,19.888803,-83.41799,-25.575184
825888,20.220145,-83.512552,-25.938776
825988,20.535113,-83.607313,-26.268473
826088,20.786988,-83.698423,-26.522568
826188,20.916908,-83.779728,-26.653016
826288,20.915893,-83.846245,-26.655513
826388,20.84515,-83.901921,-26.594728
826488,20.792814,-83.955736,-26.554486
826588,20.83516,-84.01452,-26.600551
826688,20.975723,-84.075867,-26.730067
826788,21.168899,-84.128524,-26.893653
826888,21.337322,-84.163996,-27.014888
826988,21.429958,-84.176413,-27.047176
827088,21.454536,-84.169194,-26.997914
827188,21.478399,-84.158688,-26.927954
827288,21.551124,-84.14789,-26.88977
827388,21.690669,-84.13631,-26.901419
827488,21.919047,-84.125557,-26.981262
827588,22.241122,-84.115598,-27.127789
827688,22.56187,-84.092451,-27.243088
827788,22.795959,-84.036161,-27.24389
827888,22.853107,-83.937039,-27.057457
827988,22.703154,-83.790055,-26.670833
828088,22.361918,-83.597444,-26.113319
828188,21.845428,-83.353536,-25.410221
828288,21.179842,-83.038245,-24.594837
828388,20.523699,-82.636952,-23.831033
828488,19.87839,-82.143299,-23.112786
828588,19.276496,-81.571698,-22.468237
828688,18.676024,-80.946221,-21.852066
828788,17.978088,-80.31256,-21.136528
828888,17.203284,-79.73457,-20.288146
828988,16.586381,-79.294008,-19.512566
829088,16.149921,-79.036622,-18.85669
829188,15.988174,-78.94735,-18.462862
829288,16.068266,-78.970649,-18.315113
829388,16.325368,-79.065113,-18.340713
829488,16.719547,-79.207638,-18.527717
829588,17.134512,-79.36491,-18.816468
829688,17.352811,-79.479504,-19.033397
829788,17.215997,-79.502534,-19.019135
829888,16.748896,-79.439623,-18.769739
829988,16.053459,-79.340446,-18.361185
830088,15.263592,-79.252307,-17.878225
830188,14.529488,-79.200332,-17.414031
830288,13.93361,-79.187917,-16.99393
830388,13.523359,-79.230274,-16.643829
830488,13.322625,-79.328912,-16.419571
830588,13.258638,-79.46562,-16.297009
830688,13.251945,-79.617946,-16.221734
830788,13.231531,-79.773013,-16.128303
830888,13.17655,-79.926103,-16.003235
830988,13.078835,-80.078832,-15.846178
831088,12.934873,-80.229883,-15.66887
831188,12.735071,-80.378409,-15.475303
831288,12.467433,-80.520594,-15.255562
831388,12.134017,-80.651168,-14.995469
831488,11.752499,-80.769135,-14.694509
831588,11.364809,-80.874516,-14.379658
831688,11.004673,-80.968532,-14.075936
831788,10.709534,-81.061891,-13.813762
831888,10.506618,-81.157863,-13.621783
831988,10.415762,-81.258038,-13.519354
832088,10.41785,-81.362933,-13.493013
832188,10.474657,-81.466285,-13.508223
832288,10.548136,-81.565526,-13.531877
832388,10.588619,-81.650766,-13.516295
832488,10.577681,-81.720664,-13.446015
832588,10.508118,-81.777045,-13.323265
832688,10.384275,-81.82773,-13.154914
832788,10.198193,-81.883275,-12.934917
832888,9.957366,-81.93946,-12.663832
832988,9.69391,-81.999947,-12.369888
833088,9.415549,-82.070606,-12.059148
833188,9.136269,-82.143194,-11.749441
833288,8.841201,-82.207611,-11.428994
833388,8.499639,-82.253069,-11.059216
833488,8.097779,-82.272888,-10.62612
833588,7.608016,-82.269328,-10.108466
833688,7.029865,-82.264986,-9.516112
833788,6.388294,-82.276585,-8.889725
833888,5.709112,-82.301081,-8.255549
833988,4.994333,-82.314262,-7.603011
834088,4.237653,-82.305123,-6.913791
834188,3.437078,-82.270821,-6.183442
834288,2.59068,-82.223852,-5.414052
834388,1.722689,-82.1772,-4.634446
834488,0.827976,-82.136259,-3.843019
834588,-0.067784,-82.094827,-3.066774
834688,-0.949992,-82.049974,-2.313554
834788,-1.79281,-81.990747,-1.602211
834888,-2.566048,-81.908012,-0.949982
834988,-3.269502,-81.793294,-0.332144
835088,-3.947023,-81.641435,0.315928
835188,-4.635916,-81.437812,1.047815
835288,-5.343311,-81.184343,1.877188
835388,-6.085735,-80.907803,2.791763
835488,-6.85227,-80.643133,3.726105
835588,-7.606174,-80.416021,4.578433
835688,-8.265558,-80.262423,5.209985
835788,-8.812171,-80.194692,5.606974
835888,-9.212482,-80.205435,5.788667
835988,-9.49335,-80.259754,5.813668
836088,-9.745401,-80.341588,5.783085
836188,-9.988369,-80.458576,5.741839
836288,-10.163206,-80.62903,5.674806
836388,-10.205891,-80.865844,5.552003
836488,-10.054311,-81.150704,5.319475
836588,-9.692394,-81.446952,4.955539
836688,-9.100278,-81.722815,4.430743
836788,-8.299849,-81.953747,3.755767
836888,-7.36201,-82.136242,2.988797
836988,-6.334626,-82.271071,2.153552
837088,-5.229213,-82.351785,1.219836
837188,-4.162366,-82.379284,0.257974
837288,-3.232748,-82.368538,-0.648901
837388,-2.465989,-82.328189,-1.461818
837488,-1.829198,-82.259181,-2.181265
837588,-1.253156,-82.162858,-2.858417
837688,-0.685144,-82.057978,-3.549219
837788,-0.103744,-81.967921,-4.288559
837888,0.544052,-81.909092,-5.102293
837988,1.282585,-81.875097,-5.987291
838088,2.074556,-81.857165,-6.880924
838188,2.908301,-81.858268,-7.76202
838288,3.762133,-81.881449,-8.627248
838388,4.658276,-81.922537,-9.526174
838488,5.540444,-81.978688,-10.425002
838588,6.35787,-82.050458,-11.282134
838688,7.109294,-82.132432,-12.081179
838788,7.807289,-82.212985,-12.824127
838888,8.46561,-82.282471,-13.526726
838988,9.102489,-82.340225,-14.209541
839088,9.695728,-82.386849,-14.853381
839188,10.261937,-82.426378,-15.478279
839288,10.778402,-82.469141,-16.061882
839388,11.245735,-82.520966,-16.603717
839488,11.673435,-82.582172,-17.10991
839588,12.080368,-82.649799,-17.59546
839688,12.50523,-82.720464,-18.08733
839788,12.967691,-82.792474,-18.596746
839888,13.491834,-82.868314,-19.144304
839988,14.087222,-82.947336,-19.748919
840088,14.724034,-83.027037,-20.389034
840188,15.350159,-83.097969,-21.020499
840288,15.909631,-83.159271,-21.594811
840388,16.392757,-83.215341,-22.109995
840488,16.818293,-83.270645,-22.583806
840588,17.221683,-83.330266,-23.042863
840688,17.606442,-83.396017,-23.48044
840788,17.998679,-83.463638,-23.911218
840888,18.391354,-83.527381,-24.319533
840988,18.806343,-83.582354,-24.72439
841088,19.267692,-83.62606,-25.149531
841188,19.777619,-83.66739,-25.597435
841288,20.336431,-83.709467,-26.068493
841388,20.949329,-83.765455,-26.566277
841488,21.60803,-83.828141,-27.082497
841588,22.206859,-83.878742,-27.517151
841688,22.597491,-83.882246,-27.728997
841788,22.645095,-83.813839,-27.592649
841888,22.318293,-83.671478,-27.098125
841988,21.732517,-83.455297,-26.388454
842088,21.016505,-83.164018,-25.594248
842188,20.307129,-82.79617,-24.850282
842288,19.650787,-82.346033,-24.202133
842388,19.029806,-81.809706,-23.627746
842488,18.456685,-81.200961,-23.132521
842588,17.905582,-80.548273,-22.673998
842688,17.275598,-79.908898,-22.121843
842788,16.6491,-79.360685,-21.509897
842888,16.226604,-78.994695,-21.026677
842988,16.044022,-78.861829,-20.738193
843088,16.101263,-78.924838,-20.651684
843188,16.44613,-79.100092,-20.777494
