SampleTimeFine,Gyr_X,Gyr_Y,Gyr_Z,Roll,Pitch,Yaw
108178,0.069135,-0.106102,-0.012213,-12.578278,-84.213164,12.516202
108278,0.062059,-0.096989,-0.007169,-12.612152,-84.268721,12.585861
108378,0.050518,-0.088976,-0.006178,-12.648514,-84.319671,12.651372
108478,0.035198,-0.087277,-0.006513,-12.689971,-84.369701,12.713181
108578,0.030871,-0.087124,-0.007674,-12.727436,-84.419773,12.768486
108678,0.024898,-0.08509,-0.004176,-12.786191,-84.468239,12.84174
108778,0.012369,-0.075195,0.002049,-12.87592,-84.510352,12.938895
108878,0.005467,-0.051631,0.009182,-12.980584,-84.538357,13.047079
108978,0.002721,-0.033364,0.023202,-13.144657,-84.554308,13.213359
109078,0.000505,-0.013735,0.030597,-13.32651,-84.558287,13.396227
109178,-0.013864,-4.40E-05,0.035392,-13.525018,-84.553943,13.587558
109278,-0.043413,0.002718,0.036049,-13.739336,-84.547911,13.777772
109378,-0.069778,0.005613,0.03442,-13.953928,-84.540422,13.953093
109478,-0.094257,0.010236,0.033558,-14.169516,-84.530413,14.115334
109578,-0.124942,0.017122,0.029744,-14.369109,-84.517055,14.243854
109678,-0.146707,0.020112,0.027324,-14.561477,-84.502338,14.352593
109778,-0.157568,0.020088,0.026705,-14.755408,-84.487685,14.456657
109878,-0.143231,0.008254,0.022921,-14.93651,-84.480105,14.556088
109978,-0.115296,-0.004501,0.017669,-15.090737,-84.480331,14.6446
110078,-0.083175,-0.010175,0.008881,-15.185111,-84.484983,14.691469
110178,-0.0514,0.006359,0.001981,-15.196281,-84.481508,14.673036
110278,-0.03689,0.046707,-0.001661,-15.116244,-84.456241,14.57132
110378,-0.044172,0.085959,-0.003261,-14.972891,-84.409451,14.401788
110478,-0.061756,0.104289,0.001238,-14.840524,-84.35179,14.233154
110578,-0.071837,0.108972,0.012889,-14.774939,-84.28978,14.12581
110678,-0.071395,0.103292,0.0244,-14.782346,-84.229211,14.092069
110778,-0.068191,0.093776,0.029257,-14.828181,-84.173188,14.098797
110878,-0.058581,0.084711,0.024047,-14.852984,-84.122938,14.08992
110978,-0.036695,0.091482,0.014042,-14.802348,-84.070389,14.017807
111078,-0.01341,0.1151,0.002614,-14.646537,-84.006385,13.853354
111178,-0.003979,0.157089,-0.006647,-14.384061,-83.920336,13.587054
111278,-0.010012,0.194658,-0.009255,-14.070507,-83.813632,13.26586
111378,-0.027709,0.216853,-0.016811,-13.712255,-83.695416,12.889436
111478,-0.047119,0.218767,-0.012683,-13.396704,-83.575339,12.544706
111578,-0.062003,0.21632,-0.006256,-13.135725,-83.455586,12.246238
111678,-0.065283,0.213108,-0.002712,-12.907129,-83.33701,11.97841
111778,-0.063501,0.21689,0.001025,-12.699817,-83.215703,11.732979
111878,-0.061374,0.230843,0.005717,-12.506736,-83.085875,11.503046
111978,-0.067967,0.259583,0.000925,-12.275201,-82.940417,11.230503
112078,-0.075189,0.295878,-0.00858,-11.981697,-82.775591,10.891247
112178,-0.091511,0.320954,-0.009888,-11.683532,-82.596621,10.537739
112278,-0.109078,0.330594,-0.010544,-11.399805,-82.412079,10.188499
112378,-0.11802,0.323127,-0.001825,-11.178254,-82.230551,9.896685
112478,-0.112633,0.313147,0.015249,-11.042114,-82.052629,9.694082
112578,-0.097403,0.285673,0.032959,-10.995728,-81.888177,9.590853
112678,-0.103369,0.256559,0.04275,-11.01568,-81.739043,9.551151
112778,-0.073998,0.232226,0.051369,-11.070417,-81.602665,9.563597
112878,-0.056109,0.200554,0.056608,-11.157186,-81.483522,9.618793
112978,-0.05452,0.170228,0.058506,-11.270741,-81.381211,9.702011
113078,-0.046835,0.138962,0.060615,-11.408742,-81.296215,9.814428
113178,-0.033254,0.122903,0.068363,-11.576981,-81.219322,9.96533
113278,-0.026063,0.126875,0.073801,-11.755296,-81.139519,10.130626
113378,-0.015515,0.127246,0.0807,-11.949185,-81.058634,10.317833
113478,-0.007219,0.11751,0.091432,-12.180541,-80.98183,10.54782
113578,-0.006999,0.091592,0.100064,-12.458361,-80.918349,10.825024
113678,-0.01176,0.054627,0.10394,-12.777866,-80.874858,11.141721
113778,-0.012319,0.004761,0.103739,-13.134428,-80.858979,11.495647
113878,-0.007925,-0.045886,0.098933,-13.512875,-80.871652,11.874288
113978,0.001523,-0.079502,0.092272,-13.892816,-80.903578,12.259898
114078,0.010444,-0.095714,0.080699,-14.244477,-80.945769,12.622004
114178,0.012288,-0.100189,0.068828,-14.561093,-80.991836,12.949647
114278,0.007632,-0.099658,0.058933,-14.848583,-81.038807,13.245055
114378,0.001222,-0.102822,0.051949,-15.121362,-81.08837,13.521812
114478,-0.011761,-0.119918,0.052347,-15.422958,-81.147134,13.820159
114578,-0.029249,-0.131487,0.054852,-15.759336,-81.211665,14.143511
114678,-0.038466,-0.139915,0.058327,-16.127216,-81.280013,14.493331
114778,-0.05094,-0.15634,0.057694,-16.523296,-81.357165,14.864378
114878,-0.066272,-0.165106,0.052073,-16.924398,-81.439692,15.231538
114978,-0.068655,-0.178214,0.044919,-17.323095,-81.530241,15.5948
115078,-0.062358,-0.179092,0.038045,-17.701964,-81.622102,15.941577
115178,-0.044717,-0.154765,0.034693,-18.036616,-81.700974,16.2538
115278,-0.013419,-0.122461,0.035808,-18.323538,-81.761819,16.535854
115378,0.033485,-0.097558,0.038958,-18.568297,-81.808367,16.802414
115478,0.084637,-0.104211,0.049764,-18.836569,-81.856371,17.122296
115578,0.127955,-0.144205,0.063934,-19.190921,-81.923147,17.554143
115678,0.168441,-0.20243,0.08112,-19.674993,-82.017656,18.140322
115778,0.203295,-0.264064,0.098571,-20.308714,-82.141113,18.897585
115878,0.225699,-0.30326,0.112063,-21.064806,-82.28155,19.791064
115978,0.231499,-0.299644,0.121799,-21.881435,-82.416302,20.748676
116078,0.224842,-0.233631,0.124062,-22.631636,-82.51375,21.635168
116178,0.20743,-0.146449,0.119202,-23.241347,-82.564845,22.369755
116278,0.177833,-0.077375,0.108337,-23.710223,-82.581179,22.945156
116378,0.143114,-0.044308,0.097067,-24.096092,-82.582217,23.416779
116478,0.112956,-0.03681,0.082399,-24.426583,-82.582377,23.815135
116578,0.088603,-0.038391,0.069448,-24.721775,-82.586137,24.163826
116678,0.071921,-0.047642,0.055287,-24.98707,-82.597869,24.472729
116778,0.060516,-0.056819,0.043249,-25.228526,-82.617085,24.750998
116878,0.058183,-0.067153,0.028762,-25.433919,-82.645031,24.991547
116978,0.06426,-0.070968,0.014891,-25.588758,-82.678235,25.18462
117078,0.07316,-0.073859,0.003006,-25.697404,-82.715781,25.336252
117178,0.076584,-0.073122,-0.008906,-25.755412,-82.75584,25.438803
117278,0.06894,-0.080533,-0.020145,-25.787295,-82.802473,25.510596
117378,0.057723,-0.087959,-0.023634,-25.826651,-82.853764,25.583435
117478,0.051747,-0.091719,-0.020431,-25.891053,-82.906151,25.678055
117578,0.047541,-0.098287,-0.011642,-26.009103,-82.959668,25.824293
117678,0.037886,-0.104595,-0.002069,-26.187977,-83.013943,26.02622
117778,0.027543,-0.114147,0.002141,-26.413654,-83.071935,26.269301
117878,0.015243,-0.11923,-0.00212,-26.643092,-83.133468,26.509039
117978,0.002094,-0.112958,-0.0089,-26.841652,-83.193391,26.710059
118078,-0.013521,-0.095788,-0.017818,-26.976464,-83.246745,26.837849
118178,-0.026472,-0.080773,-0.027656,-27.044741,-83.294936,26.891155
118278,-0.014711,-0.061539,-0.035243,-27.031071,-83.335266,26.868733
118378,-0.000232,-0.057815,-0.043157,-26.96583,-83.375741,26.802742
118478,0.016872,-0.070329,-0.049056,-26.892106,-83.424127,26.738082
118578,0.043362,-0.102693,-0.050014,-26.871266,-83.489291,26.741934
118678,0.061759,-0.150647,-0.053408,-26.934637,-83.579823,26.841142
118778,0.067397,-0.186916,-0.057447,-27.063815,-83.689879,27.009795
118878,0.074359,-0.212054,-0.061779,-27.234588,-83.813802,27.224263
118978,0.078789,-0.211313,-0.067873,-27.37946,-83.938844,27.415185
119078,0.075819,-0.188324,-0.076722,-27.431256,-84.05445,27.510763
119178,0.073318,-0.163951,-0.082517,-27.395378,-84.159148,27.51674
119278,0.077955,-0.147194,-0.084772,-27.30076,-84.25587,27.466346
119378,0.083995,-0.141902,-0.086542,-27.176764,-84.350309,27.389913
119478,0.087614,-0.153784,-0.089041,-27.065786,-84.451408,27.328657
119578,0.09449,-0.183294,-0.087899,-27.034132,-84.567222,27.351057
119678,0.098896,-0.217483,-0.085793,-27.106978,-84.699887,27.48095
119778,0.102231,-0.238129,-0.083787,-27.254022,-84.842479,27.687238
119878,0.095974,-0.241338,-0.083956,-27.423048,-84.986642,27.911948
119978,0.086554,-0.231576,-0.084817,-27.573253,-85.125956,28.112299
120078,0.068302,-0.225601,-0.085429,-27.720965,-85.262293,28.299611
120178,0.050251,-0.214812,-0.087491,-27.839778,-85.393606,28.447514
120278,0.038318,-0.204462,-0.088375,-27.931632,-85.519815,28.561485
120378,0.035624,-0.189945,-0.086171,-27.993872,-85.637988,28.644185
120478,0.040974,-0.169884,-0.082999,-28.005444,-85.745063,28.679131
120578,0.039054,-0.1489,-0.07868,-27.971237,-85.840258,28.667065
120678,0.027102,-0.124227,-0.079773,-27.84173,-85.923146,28.552585
120778,0.009973,-0.097407,-0.080125,-27.61206,-85.992384,28.327862
120878,0.0022,-0.076528,-0.081938,-27.285182,-86.05128,28.001246
120978,-0.020481,-0.046013,-0.086987,-26.806788,-86.095628,27.509749
121078,-0.034796,-0.014734,-0.09324,-26.1599,-86.125069,26.841168
121178,-0.038239,0.00647,-0.097374,-25.394758,-86.14391,26.052102
121278,-0.021693,0.011628,-0.102779,-24.551434,-86.160505,25.194192
121378,0.009429,0.002381,-0.109646,-23.660191,-86.182548,24.306142
121478,0.043884,-0.017357,-0.115865,-22.754853,-86.215333,23.423776
121578,0.083019,-0.041015,-0.118069,-21.870403,-86.260103,22.584848
121678,0.113579,-0.058161,-0.121253,-20.975617,-86.313708,21.753149
121778,0.131256,-0.078106,-0.119407,-20.122936,-86.376702,20.973837
121878,0.136552,-0.107739,-0.1159,-19.359525,-86.454175,20.287065
121978,0.136766,-0.135715,-0.112066,-18.682801,-86.545414,19.68732
122078,0.134817,-0.148151,-0.105227,-18.073457,-86.641622,19.154008
122178,0.129989,-0.145707,-0.098774,-17.487236,-86.73488,18.641131
122278,0.10702,-0.132851,-0.09258,-16.903999,-86.819594,18.1181
122378,0.077562,-0.122839,-0.089011,-16.313528,-86.897769,17.570955
122478,0.053155,-0.118993,-0.085465,-15.732916,-86.972811,17.019712
122578,0.040472,-0.094625,-0.091878,-14.991503,-87.034874,16.300199
122678,0.049896,-0.05986,-0.094219,-14.091868,-87.07732,15.427688
122778,0.072074,-0.036497,-0.095484,-13.07933,-87.106063,14.454872
122878,0.100229,-0.039594,-0.093668,-12.059337,-87.135361,13.490762
122978,0.12584,-0.088665,-0.085003,-11.214535,-87.190363,12.716778
123078,0.165566,-0.166651,-0.075882,-10.593948,-87.28773,12.190103
123178,0.215382,-0.22699,-0.076518,-10.027431,-87.418881,11.746174
123278,0.257113,-0.238235,-0.086971,-9.269714,-87.557116,11.134836
123378,0.27862,-0.232937,-0.104479,-8.161092,-87.693399,10.184683
123478,0.288406,-0.236085,-0.115491,-6.759601,-87.831384,8.947134
123578,0.28425,-0.247681,-0.120676,-5.116717,-87.974929,7.465758
123678,0.256406,-0.227918,-0.121396,-3.221614,-88.105419,5.71617
123778,0.200341,-0.16329,-0.113434,-1.213518,-88.196532,3.821497
123878,0.121591,-0.076293,-0.110698,0.87731,-88.23546,1.798968
123978,0.032206,-0.004899,-0.107059,2.870776,-88.231228,-0.177379
124078,-0.063173,0.043496,-0.100718,4.61008,-88.197528,-1.954141
124178,-0.148647,0.067562,-0.108853,6.333182,-88.147982,-3.763738
124278,-0.23758,0.08818,-0.107183,7.836897,-88.085252,-5.404874
124378,-0.311116,0.062607,-0.104177,9.220092,-88.035997,-6.967632
124478,-0.372087,-0.00661,-0.093919,10.542732,-88.025686,-8.504781
124578,-0.425344,-0.093304,-0.08353,11.954304,-88.064119,-10.161432
124678,-0.449871,-0.183563,-0.078186,13.699629,-88.152216,-12.166012
124778,-0.431216,-0.247991,-0.077871,15.972846,-88.273796,-14.687926
124878,-0.399834,-0.272631,-0.08237,18.87809,-88.404507,-17.823973
124978,-0.35842,-0.270241,-0.08531,22.380602,-88.528146,-21.533572
125078,-0.283012,-0.252631,-0.078624,26.239185,-88.637589,-25.555937
125178,-0.189234,-0.220454,-0.066437,30.123774,-88.727128,-29.550406
125278,-0.113969,-0.179458,-0.0582,33.80886,-88.792981,-33.302071
125378,-0.069907,-0.134733,-0.050891,36.993839,-88.835383,-36.528199
125478,-0.05543,-0.104287,-0.040391,39.617618,-88.86439,-39.184678
125578,-0.070428,-0.118481,-0.022275,42.252132,-88.903887,-41.860458
125678,-0.139203,-0.182718,0.000743,45.977013,-88.97609,-45.666151
125778,-0.222327,-0.253907,0.019375,51.726975,-89.077213,-51.544747
125878,-0.273748,-0.299586,0.027263,60.189828,-89.183753,-60.165838
125978,-0.296765,-0.305867,0.031218,71.083672,-89.270408,-71.231124
126078,-0.30718,-0.285863,0.023398,83.361921,-89.318281,-83.686725
126178,-0.308527,-0.244788,0.015913,94.730355,-89.328804,-95.233151
126278,-0.294739,-0.190852,0.002845,103.350046,-89.312869,-104.022755
126378,-0.264187,-0.141963,-0.008297,109.131486,-89.285703,-109.956436
126478,-0.23698,-0.106795,-0.010804,112.980843,-89.258451,-113.942328
126578,-0.232288,-0.074168,-0.005831,115.374257,-89.238748,-116.469489
126678,-0.240097,-0.046291,0.000321,116.703809,-89.228158,-117.937179
126778,-0.255412,-0.038561,0.007706,117.841404,-89.22293,-119.221674
126878,-0.264186,-0.044201,0.012828,119.265787,-89.218332,-120.798015
126978,-0.25897,-0.058303,0.017858,121.283429,-89.21149,-122.964687
127078,-0.247784,-0.073202,0.023779,123.911413,-89.201696,-125.735355
127178,-0.22747,-0.07149,0.030789,126.590655,-89.193972,-128.545654
127278,-0.200788,-0.042393,0.040673,128.556663,-89.199306,-130.627362
127378,-0.161114,0.011303,0.051272,129.126147,-89.22801,-131.289673
127478,-0.106175,0.075086,0.054736,127.634818,-89.281021,-129.85951
127578,-0.047733,0.11822,0.054598,124.182011,-89.347624,-126.434258
127678,-0.002102,0.145192,0.054134,118.657177,-89.418691,-120.910758
127778,0.01232,0.173538,0.059503,110.110761,-89.491561,-112.357346
127878,0.0032,0.21159,0.072888,96.390648,-89.560097,-98.63538
127978,-0.006175,0.257245,0.088477,75.115346,-89.598506,-77.363495
128078,0.004538,0.294354,0.094403,50.511335,-89.565214,-52.756683
128178,0.038576,0.318411,0.096129,31.336866,-89.457242,-33.559861
128278,0.085591,0.333879,0.096029,19.183358,-89.301725,-21.357034
128378,0.120196,0.352158,0.101845,11.348454,-89.116796,-13.452935
128478,0.12365,0.379041,0.113048,5.882471,-88.906333,-7.915696
128578,0.098449,0.414538,0.127016,1.82758,-88.66894,-3.803881
128678,0.041628,0.456044,0.133799,-1.13231,-88.402906,-0.819554
128778,-0.029763,0.502506,0.143288,-3.392821,-88.10682,1.424571
128878,-0.085071,0.547006,0.15771,-5.224049,-87.782372,3.207848
128978,-0.096139,0.584563,0.177469,-6.792901,-87.433509,4.722599
129078,-0.063645,0.62959,0.200135,-8.153817,-87.055798,6.048268
129178,-0.013121,0.696043,0.216619,-9.236029,-86.637692,7.124302
129278,0.055939,0.770461,0.224024,-9.992882,-86.175934,7.9145
129378,0.137893,0.799556,0.21917,-10.461898,-85.697832,8.463676
129478,0.188675,0.735779,0.192195,-10.701858,-85.258407,8.812632
129578,0.158571,0.621378,0.156866,-10.825763,-84.887292,9.028024
129678,0.044473,0.484594,0.101966,-10.821538,-84.599319,9.049234
129778,-0.104624,0.329485,0.044776,-10.742384,-84.405061,8.909378
129878,-0.188117,0.151918,-0.001018,-10.647953,-84.31589,8.70608
129978,-0.169332,-0.03661,-0.022899,-10.621941,-84.335391,8.582348
130078,-0.085058,-0.176705,-0.04621,-10.563109,-84.436392,8.474168
130178,0.025736,-0.274005,-0.067125,-10.419926,-84.594464,8.345038
130278,0.129682,-0.324466,-0.072907,-10.229379,-84.781575,8.228177
130378,0.209011,-0.280607,-0.084661,-9.85728,-84.945059,7.974688
130478,0.273812,-0.155804,-0.104927,-9.159165,-85.039704,7.431242
130578,0.315456,0.036521,-0.124617,-8.09802,-85.026355,6.547372
130678,0.329496,0.231494,-0.142939,-6.76276,-84.902029,5.396306
130778,0.34426,0.355492,-0.164177,-5.274139,-84.70594,4.099452
130878,0.347886,0.395684,-0.181378,-3.765615,-84.484755,2.784258
130978,0.353191,0.366526,-0.189942,-2.322169,-84.277485,1.537037
131078,0.33961,0.314434,-0.182693,-1.026795,-84.097143,0.430409
131178,0.284429,0.275104,-0.15588,0.021253,-83.937005,-0.459669
131278,0.192672,0.257217,-0.104109,0.696153,-83.785982,-1.027581
131378,0.082971,0.252436,-0.050742,1.005508,-83.637697,-1.291128
131478,-0.011791,0.233608,-0.024671,1.118915,-83.500439,-1.412196
131578,-0.066172,0.181374,-0.025179,1.204465,-83.39315,-1.53661
131678,-0.056764,0.120921,-0.036429,1.353606,-83.320391,-1.719639
131778,-0.010858,0.045517,-0.051085,1.606303,-83.290593,-1.980469
131878,0.043909,-0.035385,-0.06069,1.947691,-83.306839,-2.299012
131978,0.088734,-0.110616,-0.06907,2.372346,-83.365745,-2.675509
132078,0.118912,-0.160263,-0.074813,2.862087,-83.452568,-3.100068
132178,0.141464,-0.181572,-0.075145,3.384939,-83.551136,-3.544876
132278,0.162386,-0.172092,-0.07164,3.913434,-83.643942,-3.983221
132378,0.177199,-0.140664,-0.065609,4.420736,-83.718595,-4.39164
132478,0.187982,-0.112376,-0.060157,4.903835,-83.776964,-4.769449
132578,0.1879,-0.114708,-0.046324,5.322929,-83.837057,-5.082885
132678,0.168489,-0.144156,-0.031403,5.673785,-83.914553,-5.338842
132778,0.137648,-0.189045,-0.012289,5.936061,-84.018616,-5.523454
132878,0.098455,-0.233102,0.003264,6.123209,-84.148655,-5.65508
132978,0.07307,-0.274381,0.014372,6.26493,-84.302857,-5.75564
133078,0.056289,-0.295784,0.020715,6.379803,-84.469612,-5.838864
133178,0.047224,-0.284579,0.023325,6.47129,-84.630106,-5.903801
133278,0.045125,-0.24288,0.024928,6.525843,-84.766907,-5.932848
133378,0.03368,-0.186442,0.027364,6.518571,-84.87167,-5.906404
133478,0.013726,-0.13079,0.029057,6.446668,-84.944784,-5.826563
133578,-0.009536,-0.088862,0.031306,6.313516,-84.994081,-5.698631
133678,-0.024708,-0.074464,0.031432,6.157566,-85.035091,-5.556555
133778,-0.023954,-0.076887,0.029224,6.015528,-85.077249,-5.428022
133878,-0.014503,-0.087238,0.023891,5.919045,-85.124905,-5.339789
133978,0.012013,-0.087976,0.01559,5.892193,-85.172434,-5.306201
134078,0.040754,-0.084473,0.011041,5.90939,-85.217653,-5.300297
134178,0.059562,-0.072917,0.003181,5.982745,-85.255781,-5.339939
134278,0.064227,-0.063824,-0.002871,6.09435,-85.288318,-5.415283
134378,0.054059,-0.055349,-0.006265,6.218122,-85.315767,-5.508681
134478,0.03263,-0.064114,-0.010231,6.364985,-85.347907,-5.637567
134578,0.015261,-0.084361,-0.011294,6.527169,-85.391451,-5.791804
134678,0.029764,-0.11285,-0.013067,6.736837,-85.451029,-5.985335
134778,0.073472,-0.118227,-0.018239,7.018665,-85.513227,-6.226119
134878,0.136274,-0.094575,-0.02239,7.351448,-85.561567,-6.481909
134978,0.201014,-0.045731,-0.026388,7.70816,-85.581726,-6.724489
135078,0.239213,0.023179,-0.034105,8.074069,-85.562013,-6.954348
135178,0.229932,0.085443,-0.044261,8.43839,-85.505961,-7.187969
135278,0.171064,0.132555,-0.055497,8.789472,-85.422,-7.442177
135378,0.059695,0.172567,-0.070575,9.125896,-85.313732,-7.745747
135478,-0.059503,0.235527,-0.097246,9.488701,-85.167008,-8.14439
135578,-0.143409,0.361763,-0.134704,9.881388,-84.9449,-8.621401
135678,-0.206811,0.561012,-0.168838,10.1909,-84.606464,-9.051586
135778,-0.255207,0.704514,-0.205195,10.484279,-84.182993,-9.493701
135878,-0.258781,0.742953,-0.232216,10.826711,-83.734683,-9.987553
135978,-0.189142,0.705554,-0.216489,11.111488,-83.308863,-10.383647
136078,-0.083833,0.653036,-0.161242,11.211525,-82.918657,-10.533223
136178,0.027789,0.570838,-0.08154,11.087066,-82.583705,-10.392151
136278,0.15409,0.395046,-0.028255,10.963886,-82.353758,-10.179283
136378,0.165228,0.199724,0.015611,10.829231,-82.238788,-9.9483
136478,0.123016,0.013172,0.028486,10.767488,-82.230503,-9.815261
136578,0.144976,-0.190939,0.013041,10.944801,-82.335706,-9.910757
136678,0.171638,-0.358111,-0.02309,11.437994,-82.530936,-10.309438
136778,0.150339,-0.440446,-0.072228,12.237934,-82.766006,-11.029492
136878,0.056071,-0.419715,-0.120764,13.233881,-82.981856,-12.001132
136978,-0.108007,-0.287092,-0.151146,14.183066,-83.117607,-13.01999
137078,-0.280957,-0.051928,-0.143891,14.747365,-83.122216,-13.750821
137178,-0.388569,0.199996,-0.101923,14.751739,-82.992925,-13.979789
137278,-0.386423,0.352438,-0.047951,14.340288,-82.787057,-13.78854
137378,-0.304756,0.347449,-0.00648,13.82015,-82.589744,-13.440434
137478,-0.21086,0.227347,0.008743,13.432586,-82.461247,-13.171631
137578,-0.115929,0.093271,0.021946,13.185779,-82.409271,-12.989883
137678,-0.068072,0.003573,0.027945,13.030591,-82.408218,-12.872883
137778,-0.055666,-0.053276,0.028167,12.936104,-82.439038,-12.809949
137878,-0.047519,-0.08146,0.025336,12.884608,-82.485336,-12.785677
137978,-0.016673,-0.094999,0.017573,12.896469,-82.538289,-12.807484
138078,0.039525,-0.121181,0.019654,12.957761,-82.606192,-12.846664
138178,0.05923,-0.145465,0.027427,13.022001,-82.688685,-12.877424
138278,0.036328,-0.146229,0.036606,13.034642,-82.772803,-12.869387
138378,-0.017595,-0.132474,0.049119,12.946574,-82.850857,-12.790982
138478,-0.078121,-0.114391,0.062591,12.742767,-82.92051,-12.6309
138578,-0.118796,-0.09391,0.072055,12.448234,-82.979828,-12.402904
138678,-0.120235,-0.082452,0.08804,12.06368,-83.03454,-12.085071
138778,-0.103911,-0.078377,0.108874,11.58247,-83.089155,-11.660485
138878,-0.091306,-0.076614,0.128082,11.009801,-83.144504,-11.136547
138978,-0.074727,-0.085824,0.137692,10.400344,-83.20546,-10.566054
139078,-0.044985,-0.107765,0.143707,9.786779,-83.278726,-9.974339
139178,-0.007813,-0.15184,0.141458,9.227136,-83.376023,-9.41557
139278,0.023913,-0.200814,0.14193,8.704043,-83.500507,-8.875416
139378,0.057996,-0.235606,0.140318,8.213712,-83.644049,-8.348722
139478,0.083638,-0.237793,0.135979,7.739142,-83.787995,-7.823248
139578,0.094524,-0.211132,0.129511,7.263911,-83.915829,-7.29097
139678,0.09388,-0.164946,0.125734,6.757879,-84.016634,-6.728202
139778,0.094947,-0.12736,0.122525,6.229676,-84.095293,-6.142619
139878,0.095133,-0.111487,0.122981,5.675644,-84.164363,-5.531037
139978,0.099323,-0.12384,0.125544,5.102284,-84.240006,-4.89769
140078,0.105803,-0.137912,0.123711,4.534089,-84.322954,-4.265886
140178,0.111152,-0.127424,0.119164,3.97417,-84.399092,-3.639402
140278,0.129751,-0.092932,0.118124,3.403345,-84.454856,-2.991319
140378,0.158496,-0.049894,0.12441,2.787343,-84.48554,-2.281346
140478,0.182788,-0.003564,0.135229,2.103654,-84.48919,-1.489407
140578,0.20283,0.032207,0.145724,1.363385,-84.471584,-0.629079
140678,0.213823,0.045335,0.15353,0.587811,-84.445421,0.27308
140778,0.211841,0.051159,0.155198,-0.190547,-84.414706,1.176939
140878,0.194542,0.061322,0.154788,-0.96599,-84.376922,2.067962
140978,0.157573,0.07645,0.159113,-1.773288,-84.329145,2.969777
141078,0.094483,0.111967,0.165179,-2.626952,-84.259551,3.881956
141178,0.015256,0.172881,0.167029,-3.493308,-84.153644,4.761411
141278,-0.049302,0.21757,0.166811,-4.344779,-84.02085,5.588911
141378,-0.085176,0.206595,0.159375,-5.145021,-83.893444,6.344432
141478,-0.086461,0.178955,0.147568,-5.866713,-83.781391,7.020385
141578,-0.060491,0.149159,0.137465,-6.513905,-83.686051,7.6365
141678,-0.018763,0.155735,0.12647,-7.058268,-83.586978,8.173329
141778,0.029352,0.186914,0.116075,-7.486337,-83.470388,8.620982
141878,0.08421,0.239018,0.118071,-7.842394,-83.323664,9.027904
141978,0.129354,0.298696,0.130945,-8.176643,-83.141728,9.439053
142078,0.160108,0.352351,0.146882,-8.51045,-82.927747,9.867684
142178,0.1714,0.374203,0.154264,-8.833347,-82.700482,10.292049
142278,0.138814,0.335465,0.148515,-9.154635,-82.495441,10.696174
142378,0.06132,0.24355,0.126698,-9.473727,-82.344246,11.053466
142478,-0.087078,0.145117,0.081228,-9.746035,-82.252945,11.277863
142578,-0.267054,0.078087,0.031159,-9.957444,-82.204448,11.336773
142678,-0.41326,0.025716,-0.020384,-10.077,-82.190776,11.218433
142778,-0.512155,-0.027373,-0.07448,-10.069003,-82.21264,10.914168
142878,-0.515783,-0.124532,-0.095766,-10.044391,-82.291575,10.591076
142978,-0.460497,-0.247219,-0.082785,-10.130389,-82.438556,10.411625
143078,-0.383752,-0.381112,-0.075106,-10.308122,-82.6604,10.369109
143178,-0.289369,-0.536126,-0.087684,-10.507622,-82.970989,10.40305
143278,-0.117686,-0.662405,-0.112117,-10.614047,-83.355306,10.44228
143378,0.167059,-0.686845,-0.134499,-10.4707,-83.755766,10.394286
143478,0.466516,-0.63839,-0.154652,-9.979424,-84.130964,10.168969
143578,0.692124,-0.564299,-0.161172,-9.196768,-84.464708,9.78086
143678,0.783533,-0.448088,-0.144459,-8.282538,-84.730652,9.313383
143778,0.764601,-0.321051,-0.117949,-7.369861,-84.921739,8.836734
143878,0.634513,-0.23805,-0.096509,-6.55765,-85.063499,8.386232
143978,0.450437,-0.201009,-0.064075,-6.009386,-85.181668,8.094868
144078,0.265081,-0.160679,-0.008179,-5.906184,-85.273386,8.143585
144178,0.093856,-0.086113,0.058909,-6.313951,-85.318524,8.606556
144278,-0.015096,0.000422,0.102253,-7.021744,-85.3112,9.307915
144378,-0.081227,0.028154,0.073632,-7.541485,-85.289653,9.78259
144478,-0.117803,-0.051867,0.013232,-7.737257,-85.317985,9.91118
144578,-0.115049,-0.184201,-0.025763,-7.787021,-85.424502,9.894858
144678,-0.072034,-0.275117,-0.055392,-7.686274,-85.58496,9.752285
144778,-0.003165,-0.298739,-0.087368,-7.315205,-85.761187,9.378221
144878,0.063647,-0.277709,-0.116884,-6.616895,-85.927211,8.714515
144978,0.122776,-0.258563,-0.144301,-5.581954,-86.083221,7.747449
145078,0.152686,-0.25302,-0.151943,-4.377109,-86.235074,6.627447
145178,0.145397,-0.265479,-0.131787,-3.268866,-86.39172,5.600257
145278,0.132584,-0.289804,-0.083763,-2.53808,-86.559809,4.944066
145378,0.122313,-0.315929,-0.027602,-2.315613,-86.741151,4.791287
145478,0.100727,-0.330004,0.01641,-2.559284,-86.929477,5.092995
145578,0.062665,-0.340524,0.042925,-3.169137,-87.122929,5.739487
145678,0.007234,-0.352811,0.051064,-4.01213,-87.322657,6.58748
145778,-0.047103,-0.356134,0.046352,-4.965256,-87.523804,7.514412
145878,-0.082988,-0.347043,0.033727,-5.911329,-87.719714,8.413565
145978,-0.087055,-0.342943,0.020394,-6.817457,-87.913502,9.270288
146078,-0.060877,-0.344001,0.013585,-7.774638,-88.107832,10.192995
146178,-0.034915,-0.341585,0.011444,-8.884473,-88.30036,11.283209
146278,-0.0143,-0.345106,0.014552,-10.344471,-88.493759,12.735427
146378,-0.00316,-0.354084,0.017173,-12.33876,-88.690585,14.72835
146478,0.001573,-0.35391,0.020501,-15.125423,-88.884636,17.516377
146578,-0.000431,-0.330988,0.021631,-18.849052,-89.062266,21.240193
146678,-0.012808,-0.270702,0.013866,-22.969501,-89.204187,25.353608
146778,-0.029461,-0.170385,0.00771,-26.350478,-89.290876,28.71783
146878,-0.017988,-0.081166,-0.005875,-27.82842,-89.333586,30.185407
146978,-0.000879,-0.036238,-0.012673,-28.07164,-89.355084,30.427975
147078,0.007807,0.001783,-0.015377,-27.285187,-89.357997,29.645781
147178,0.012458,0.023971,-0.014009,-26.054431,-89.349015,28.42192
147278,0.012283,0.040919,-0.018305,-24.317726,-89.331906,26.691972
147378,-0.003986,0.062778,-0.033271,-21.626906,-89.305818,23.998511
147478,-0.018961,0.092378,-0.059465,-17.601191,-89.266909,19.961452
147578,-0.005337,0.132361,-0.088415,-12.428127,-89.206193,14.7847
147678,0.046688,0.168153,-0.116876,-6.753009,-89.121652,9.135562
147778,0.126332,0.228055,-0.138601,-1.285067,-88.996072,3.739105
147878,0.207844,0.321113,-0.158311,3.399814,-88.809576,-0.827696
147978,0.247563,0.432722,-0.17702,6.958541,-88.552611,-4.245657
148078,0.203266,0.557278,-0.182111,9.152894,-88.220956,-6.324547
148178,0.080121,0.673077,-0.17574,10.193975,-87.822986,-7.320499
148278,-0.061074,0.731428,-0.161861,10.535806,-87.393165,-7.697841
148378,-0.157196,0.740117,-0.148074,10.561755,-86.959856,-7.814189
148478,-0.205806,0.695834,-0.137784,10.526201,-86.552609,-7.896873
148578,-0.230115,0.602281,-0.122917,10.49506,-86.199696,-7.997962
148678,-0.217805,0.492972,-0.117155,10.580106,-85.909071,-8.208471
148778,-0.173453,0.34379,-0.127809,10.961773,-85.70137,-8.690972
148878,-0.128251,0.156322,-0.138965,11.685253,-85.597573,-9.490391
148978,-0.085725,-0.009409,-0.133954,12.625868,-85.586476,-10.483205
149078,-0.017164,-0.14012,-0.126549,13.777825,-85.647946,-11.648545
149178,0.017342,-0.213642,-0.123069,15.102927,-85.748787,-12.967566
149278,-0.011432,-0.20502,-0.120034,16.432689,-85.842995,-14.307622
149378,-0.098486,-0.124011,-0.107747,17.482389,-85.892733,-15.416775
149478,-0.238967,0.041024,-0.091819,17.943304,-85.854041,-16.016305
149578,-0.388205,0.233694,-0.085542,17.799308,-85.711228,-16.095088
149678,-0.514563,0.363626,-0.086113,17.303199,-85.49737,-15.893341
149778,-0.568136,0.405209,-0.073825,16.644609,-85.262688,-15.559307
149878,-0.524318,0.373048,-0.051395,15.975167,-85.049084,-15.189065
149978,-0.410931,0.332179,-0.026538,15.330005,-84.861601,-14.777857
150078,-0.269224,0.304318,-0.004059,14.712131,-84.692555,-14.312398
150178,-0.134197,0.267766,0.014879,14.147635,-84.546133,-13.822724
150278,-0.041807,0.220659,0.019063,13.704279,-84.426154,-13.40146
150378,-0.013256,0.180207,0.011982,13.388574,-84.327553,-13.091946
150478,-0.030931,0.148113,-0.00077,13.185335,-84.245084,-12.905586
150578,-0.030624,0.091708,-0.002213,13.067174,-84.193883,-12.804539
150678,-0.013733,0.031659,0.007709,12.982035,-84.177484,-12.726947
150778,-0.01342,-0.026553,0.022718,12.888493,-84.195503,-12.640728
150878,-0.047083,-0.070428,0.033756,12.769352,-84.239403,-12.54817
150978,-0.11389,-0.091961,0.040933,12.597312,-84.296187,-12.440923
151078,-0.185739,-0.08417,0.043207,12.358861,-84.348817,-12.308319
151178,-0.246519,-0.055054,0.037626,12.078377,-84.384368,-12.16848
151278,-0.278872,-0.033265,0.03369,11.773338,-84.407136,-12.0226
151378,-0.295784,-0.034661,0.030142,11.479112,-84.430182,-11.897327
151478,-0.295505,-0.053979,0.024425,11.238985,-84.463369,-11.826251
151578,-0.282975,-0.085979,0.015465,11.093556,-84.513522,-11.843105
151678,-0.251957,-0.12515,0.004493,11.07547,-84.584489,-11.970024
151778,-0.210035,-0.166103,-0.009067,11.213824,-84.676954,-12.229928
151878,-0.166231,-0.197632,-0.027548,11.537829,-84.784924,-12.651025
151978,-0.130191,-0.213387,-0.035651,11.970602,-84.900504,-13.160522
152078,-0.115812,-0.217889,-0.036411,12.445114,-85.018118,-13.703558
152178,-0.115705,-0.215877,-0.029873,12.898617,-85.135004,-14.225349
152278,-0.116349,-0.18323,-0.018624,13.248709,-85.234772,-14.643651
152378,-0.12016,-0.122833,-0.005231,13.423095,-85.302438,-14.887788
152478,-0.124219,-0.047804,0.00952,13.376777,-85.330187,-14.9128
152578,-0.113527,0.003693,0.02804,13.126614,-85.331617,-14.727144
152678,-0.102446,0.033827,0.04746,12.703188,-85.318583,-14.361275
152778,-0.096492,0.064621,0.059393,12.15873,-85.289512,-13.870535
152878,-0.089338,0.095985,0.06464,11.545927,-85.243044,-13.307077
152978,-0.087224,0.13248,0.065279,10.894542,-85.175602,-12.703638
153078,-0.085031,0.154141,0.068598,10.21434,-85.095702,-12.069951
153178,-0.058991,0.151978,0.079947,9.499066,-85.017459,-11.386011
153278,-0.014274,0.128796,0.089033,8.79597,-84.952403,-10.688502
153378,0.0318,0.102152,0.095535,8.120121,-84.902232,-9.991781
153478,0.053279,0.115427,0.099357,7.435343,-84.844052,-9.273681
153578,0.044161,0.178799,0.100517,6.708019,-84.749083,-8.518017
153678,-0.000843,0.282787,0.094787,5.951115,-84.593597,-7.758386
153778,-0.061927,0.396275,0.092732,5.154703,-84.372283,-6.993984
153878,-0.093178,0.49357,0.098931,4.324596,-84.094633,-6.213377
153978,-0.071254,0.574604,0.110004,3.494851,-83.769951,-5.420071
154078,-0.004431,0.639526,0.113159,2.751974,-83.407096,-4.67512
154178,0.106605,0.656624,0.087477,2.266261,-83.032957,-4.124513
154278,0.197616,0.660848,0.056735,2.020265,-82.655364,-3.762496
154378,0.236547,0.642706,0.037554,1.909283,-82.287692,-3.513854
154478,0.208658,0.579818,0.034097,1.820775,-81.955995,-3.303813
154578,0.111565,0.457962,0.028518,1.725201,-81.694066,-3.142669
154678,-0.018186,0.276114,0.0141,1.638827,-81.536174,-3.065871
154778,-0.087845,0.035802,0.017314,1.528216,-81.516115,-3.004896
154878,-0.080713,-0.18144,0.037941,1.363003,-81.620897,-2.884594
154978,-0.014115,-0.341101,0.060907,1.154582,-81.817472,-2.682119
155078,0.091577,-0.471433,0.067858,0.97748,-82.088755,-2.45024
155178,0.215424,-0.54879,0.060877,0.89226,-82.404255,-2.239652
155278,0.356329,-0.548258,0.049282,0.928218,-82.719337,-2.070019
155378,0.49452,-0.465472,0.033551,1.105876,-82.986862,-1.963518
155478,0.622184,-0.320868,0.011577,1.451348,-83.171323,-1.95244
155578,0.719678,-0.153795,-0.009877,1.942832,-83.259745,-2.03216
155678,0.761178,0.01591,-0.0213,2.488455,-83.250677,-2.142449
155778,0.735104,0.182441,-0.032304,3.031469,-83.145891,-2.265171
155878,0.654668,0.304151,-0.044604,3.54272,-82.970965,-2.402358
155978,0.526518,0.351637,-0.037029,3.917157,-82.76907,-2.475714
156078,0.352866,0.357153,-0.004857,4.038615,-82.565292,-2.394351
156178,0.166633,0.351509,0.041381,3.858262,-82.366594,-2.116139
156278,0.024192,0.318765,0.068906,3.502953,-82.187511,-1.743599
156378,-0.055492,0.252395,0.064391,3.152294,-82.046001,-1.421696
156478,-0.07363,0.138423,0.039084,2.928587,-81.968785,-1.238393
156578,-0.041488,0.015666,0.020087,2.827825,-81.961262,-1.160632
156678,0.014359,-0.083105,0.010353,2.818196,-82.010022,-1.142592
156778,0.073784,-0.16802,-0.002886,2.914349,-82.107022,-1.196987
156878,0.120593,-0.233122,-0.013558,3.098398,-82.240933,-1.313019
156978,0.14579,-0.270232,-0.017445,3.327862,-82.395869,-1.460274
157078,0.158707,-0.284651,-0.017184,3.57525,-82.558944,-1.618095
157178,0.155817,-0.286326,-0.005379,3.777548,-82.723289,-1.732067
157278,0.148014,-0.260059,0.015424,3.879126,-82.873333,-1.74899
157378,0.147161,-0.201032,0.030847,3.892014,-82.990192,-1.677038
157478,0.151959,-0.138726,0.049953,3.796819,-83.072131,-1.493449
157578,0.144152,-0.102652,0.07328,3.571857,-83.134228,-1.183686
157678,0.117029,-0.117433,0.091422,3.24312,-83.205217,-0.785107
157778,0.085616,-0.171543,0.104643,2.837033,-83.307266,-0.326838
157878,0.063792,-0.225143,0.116732,2.355595,-83.439893,0.194583
157978,0.052836,-0.265214,0.119617,1.838688,-83.59499,0.745228
158078,0.037288,-0.257746,0.112605,1.321817,-83.745118,1.286703
158178,0.027948,-0.245067,0.09777,0.851712,-83.887268,1.775598
158278,-0.001607,-0.245745,0.084591,0.413559,-84.029243,2.215196
158378,-0.035694,-0.239829,0.071264,0.008738,-84.167383,2.60153
158478,-0.058723,-0.232383,0.064763,-0.39126,-84.300913,2.969652
158578,-0.074068,-0.191242,0.057849,-0.774967,-84.410588,3.312484
158678,-0.083494,-0.129446,0.05425,-1.150123,-84.484622,3.641241
158778,-0.094329,-0.098684,0.049709,-1.509225,-84.540856,3.947593
158878,-0.085001,-0.11009,0.045166,-1.84479,-84.603492,4.235636
158978,-0.060669,-0.144805,0.042357,-2.16467,-84.685879,4.52189
159078,-0.029802,-0.191064,0.035668,-2.44709,-84.794737,4.788239
159178,0.014522,-0.236446,0.026667,-2.671815,-84.929664,5.022101
159278,0.075474,-0.265931,0.024375,-2.868895,-85.081413,5.263213
159378,0.144125,-0.285856,0.025824,-3.057948,-85.244414,5.535682
159478,0.207098,-0.286215,0.024655,-3.219238,-85.407554,5.816428
159578,0.281834,-0.255295,0.019312,-3.301146,-85.553112,6.060435
159678,0.365413,-0.217844,0.008374,-3.246604,-85.677596,6.215571
159778,0.451904,-0.178532,0.000366,-3.066405,-85.779869,6.294368
159878,0.519847,-0.12175,-0.014435,-2.705151,-85.850092,6.230648
159978,0.512419,-0.065572,-0.040006,-2.118323,-85.888697,5.936502
160078,0.415301,-0.041454,-0.062902,-1.389744,-85.91357,5.444462
160178,0.256773,-0.035447,-0.083045,-0.581304,-85.934598,4.781308
160278,0.066107,-0.004328,-0.108279,0.329183,-85.936948,3.906334
160378,-0.129352,0.10043,-0.151822,1.459083,-85.877601,2.699071
160478,-0.258372,0.253027,-0.219103,2.946911,-85.727282,1.058633
160578,-0.296887,0.382316,-0.283407,4.70168,-85.49714,-0.872071
160678,-0.28383,0.432498,-0.330507,6.567536,-85.231138,-2.907377
160778,-0.283179,0.435346,-0.335521,8.256208,-84.958199,-4.765267
160878,-0.282507,0.414481,-0.32729,9.733905,-84.693619,-6.411697
160978,-0.240266,0.330061,-0.282402,10.921172,-84.478067,-7.742718
161078,-0.197882,0.174908,-0.219223,11.866821,-84.35482,-8.806936
161178,-0.178593,-0.024455,-0.17576,12.790774,-84.347144,-9.838348
161278,-0.139567,-0.215014,-0.147695,13.84099,-84.447964,-10.97406
161378,-0.0825,-0.352729,-0.145102,15.166449,-84.623432,-12.353139
161478,-0.033494,-0.433768,-0.154388,16.815549,-84.838683,-14.028575
161578,-0.060178,-0.466068,-0.186473,18.863458,-85.060804,-16.119134
161678,-0.176015,-0.412274,-0.227108,21.163975,-85.238715,-18.529185
161778,-0.337803,-0.193088,-0.189008,22.692809,-85.301165,-20.257516
161878,-0.461508,0.094521,-0.117144,22.931393,-85.225347,-20.762316
161978,-0.485728,0.280286,-0.060083,22.310393,-85.063989,-20.418445
162078,-0.454314,0.306606,-0.010157,21.378133,-84.898993,-19.74395
162178,-0.393564,0.212352,0.027119,20.520837,-84.791332,-19.109615
162278,-0.306654,0.085439,0.048872,19.884421,-84.755654,-18.646992
162378,-0.222016,0.003471,0.06734,19.364767,-84.76747,-18.252908
162478,-0.179876,-0.049911,0.072822,18.943444,-84.809006,-17.933331
162578,-0.174436,-0.090504,0.063919,18.655487,-84.870802,-17.744558
162678,-0.161403,-0.135085,0.049079,18.552047,-84.954082,-17.733555
162778,-0.11809,-0.161471,0.031006,18.640769,-85.048416,-17.890534
162878,-0.052389,-0.165436,0.012283,18.900899,-85.141413,-18.181745
162978,-0.025822,-0.162955,2.20E-05,19.261742,-85.230626,-18.558708
163078,-0.078094,-0.151792,-0.002043,19.594488,-85.313203,-18.937481
163178,-0.175921,-0.130258,0.012356,19.735817,-85.386783,-19.180397
163278,-0.281132,-0.096695,0.032054,19.60775,-85.446026,-19.213507
163378,-0.348983,-0.071586,0.047779,19.270923,-85.494691,-19.076197
163478,-0.370597,-0.0606,0.066141,18.762885,-85.540738,-18.779585
163578,-0.361829,-0.060993,0.073403,18.201429,-85.588088,-18.424375
163678,-0.341983,-0.069867,0.077645,17.631582,-85.640738,-18.049371
163778,-0.305868,-0.058845,0.077789,17.04551,-85.687075,-17.637371
163878,-0.274768,-0.024867,0.071607,16.438325,-85.713399,-17.186351
163978,-0.258379,0.001763,0.055038,15.900756,-85.722071,-16.795735
164078,-0.233698,-0.00234,0.043295,15.471324,-85.730923,-16.499382
164178,-0.203524,-0.011119,0.036789,15.12416,-85.743468,-16.268194
164278,-0.163615,-0.033705,0.029141,14.900517,-85.767251,-16.137945
164378,-0.126088,-0.050097,0.030648,14.71779,-85.800248,-16.027173
164478,-0.103548,-0.052551,0.04421,14.447362,-85.836474,-15.815527
164578,-0.096998,-0.050499,0.061514,14.03928,-85.87386,-15.462116
164678,-0.083112,-0.03816,0.076042,13.495856,-85.906106,-14.96506
164778,-0.050418,-0.01297,0.0825,12.866944,-85.924737,-14.363536
164878,-0.020659,0.005966,0.086676,12.184369,-85.932768,-13.691134
164978,0.001953,0.006093,0.091647,11.47276,-85.940688,-12.976647
165078,0.020135,-0.000509,0.10717,10.655399,-85.953297,-12.145714
165178,0.01587,-0.002125,0.124314,9.69551,-85.967567,-11.174369
165278,-0.007215,0.02579,0.145237,8.513346,-85.966569,-9.993471
165378,-0.044875,0.081241,0.166344,7.085123,-85.933744,-8.587514
165478,-0.079245,0.158185,0.175707,5.527232,-85.855012,-7.071207
165578,-0.103581,0.215306,0.178596,3.961141,-85.740788,-5.560478
165678,-0.116124,0.227502,0.172545,2.510924,-85.616456,-4.172928
165778,-0.103781,0.207968,0.160554,1.237327,-85.500586,-2.955215
165878,-0.085206,0.1919,0.138772,0.192739,-85.391838,-1.956372
165978,-0.068005,0.192015,0.11619,-0.637425,-85.28175,-1.162622
166078,-0.059997,0.20351,0.0943,-1.275234,-85.164421,-0.557163
166178,-0.06513,0.215231,0.07334,-1.745094,-85.040154,-0.123111
166278,-0.084474,0.217382,0.054054,-2.078674,-84.914693,0.16309
166378,-0.105495,0.227348,0.038615,-2.309348,-84.783646,0.333931
166478,-0.118387,0.263908,0.022289,-2.427847,-84.631906,0.384736
166578,-0.089792,0.307659,0.016318,-2.478717,-84.455157,0.384075
166678,-0.019268,0.360505,0.017788,-2.483366,-84.24802,0.377571
166778,0.068757,0.43615,0.023172,-2.450086,-83.997361,0.383638
166878,0.137735,0.516253,0.04247,-2.461795,-83.700307,0.474709
166978,0.177444,0.591093,0.077252,-2.601867,-83.359493,0.717923
167078,0.203788,0.628577,0.100076,-2.806673,-82.996547,1.041715
167178,0.203619,0.614197,0.097225,-2.976394,-82.641861,1.330308
167278,0.1362,0.539205,0.074736,-3.08495,-82.330797,1.518475
167378,-0.001136,0.421825,0.021161,-3.065777,-82.088681,1.498445
167478,-0.198179,0.291406,-0.040502,-2.938543,-81.923228,1.255298
167578,-0.380638,0.161112,-0.084454,-2.772155,-81.833695,0.866942
167678,-0.450324,-0.006666,-0.121765,-2.531728,-81.84114,0.363428
167778,-0.400413,-0.183155,-0.128079,-2.263113,-81.949569,-0.139592
167878,-0.293127,-0.358825,-0.118766,-1.984386,-82.15813,-0.590561
167978,-0.14883,-0.509037,-0.106138,-1.67463,-82.452216,-0.98915
168078,0.045942,-0.58562,-0.091684,-1.295979,-82.789645,-1.344404
168178,0.271894,-0.535994,-0.080763,-0.798004,-83.098154,-1.689208
168278,0.481621,-0.383828,-0.066684,-0.204129,-83.318973,-2.009398
168378,0.612138,-0.188697,-0.038044,0.347923,-83.427621,-2.212104
168478,0.664306,-0.003741,-0.004771,0.764086,-83.430312,-2.247919
168578,0.656219,0.145503,0.018106,1.049949,-83.347723,-2.157234
168678,0.600356,0.239014,0.02643,1.25214,-83.211753,-2.014506
168778,0.492311,0.27175,0.031123,1.366121,-83.057191,-1.845238
168878,0.344989,0.252908,0.046431,1.329118,-82.913699,-1.608837
168978,0.192292,0.225152,0.072121,1.097185,-82.786406,-1.264078
169078,0.07366,0.215876,0.098785,0.689826,-82.664483,-0.810893
169178,-0.011408,0.232847,0.10365,0.226663,-82.532481,-0.350452
169278,-0.063623,0.241578,0.080798,-0.151928,-82.395093,-0.005354
169378,-0.075762,0.195971,0.054526,-0.415278,-82.283713,0.216551
169478,-0.048398,0.129311,0.037862,-0.589626,-82.210536,0.364507
169578,0.005181,0.07251,0.014711,-0.637077,-82.170022,0.415383
169678,0.072514,0.017106,-0.012164,-0.536458,-82.16141,0.355738
169778,0.141091,-0.045034,-0.030253,-0.323289,-82.188439,0.222146
169878,0.186419,-0.082015,-0.030976,-0.080372,-82.236551,0.08475
169978,0.207272,-0.078577,-0.01272,0.099484,-82.282577,0.023063
170078,0.202811,-0.027816,0.021167,0.133575,-82.299487,0.10589
170178,0.162063,0.046116,0.045783,0.039513,-82.27401,0.294475
170278,0.120558,0.088291,0.059619,-0.135219,-82.224275,0.540487
170378,0.080563,0.091938,0.06396,-0.348255,-82.172307,0.802059
170478,0.047859,0.07047,0.061215,-0.566503,-82.132499,1.050003
170578,0.026165,0.057052,0.059957,-0.790493,-82.10024,1.291212
170678,0.005462,0.049095,0.058971,-1.021081,-82.072406,1.527124
170778,-0.008775,0.031329,0.057633,-1.254468,-82.054621,1.757634
170878,-0.019821,0.011754,0.055396,-1.486286,-82.047927,1.980173
170978,-0.023817,-0.005994,0.052659,-1.711233,-82.051283,2.193457
171078,-0.030522,-0.019093,0.050638,-1.934014,-82.062016,2.400665
171178,-0.041623,-0.017682,0.047106,-2.149274,-82.071847,2.593845
171278,-0.042615,0.005471,0.043444,-2.346882,-82.068347,2.76862
171378,-0.040827,0.045255,0.037191,-2.510667,-82.042084,2.910279
171478,-0.048308,0.095957,0.022289,-2.60762,-81.987078,2.980134
171578,-0.048256,0.119092,0.00626,-2.634453,-81.919188,2.979208
171678,-0.051472,0.103957,-0.008258,-2.607654,-81.860295,2.922244
171778,-0.041937,0.053032,-0.021408,-2.532732,-81.830843,2.822175
171878,-0.003833,-0.017083,-0.028834,-2.418981,-81.841644,2.70493
171978,0.049496,-0.066349,-0.033974,-2.261752,-81.880683,2.574633
172078,0.100002,-0.087632,-0.03527,-2.072219,-81.931835,2.440947
172178,0.145659,-0.093982,-0.035916,-1.852816,-81.986529,2.303527
172278,0.184431,-0.095839,-0.036404,-1.607114,-82.04219,2.161997
172378,0.223054,-0.120028,-0.040695,-1.321437,-82.111656,2.002468
172478,0.249044,-0.170454,-0.051144,-0.977378,-82.209982,1.799067
172578,0.256367,-0.219767,-0.060065,-0.586925,-82.336409,1.553131
172678,0.257836,-0.244666,-0.068223,-0.150288,-82.476825,1.261524
172778,0.263752,-0.251836,-0.068323,0.303996,-82.620959,0.955627
172878,0.270599,-0.216057,-0.067457,0.77135,-82.744175,0.640595
172978,0.267159,-0.150282,-0.065531,1.235156,-82.829309,0.327218
173078,0.248551,-0.091597,-0.072696,1.722638,-82.880313,-0.020723
173178,0.221364,-0.057583,-0.080838,2.231998,-82.911221,-0.406384
173278,0.174102,-0.022385,-0.095294,2.777083,-82.921094,-0.85532
173378,0.113253,0.034948,-0.119221,3.383513,-82.896772,-1.40122
173478,0.06715,0.08868,-0.146719,4.068003,-82.83983,-2.052464
173578,0.031477,0.109162,-0.178358,4.856575,-82.768606,-2.829318
173678,0.001514,0.116728,-0.216879,5.780884,-82.689415,-3.760452
173778,-0.013708,0.134965,-0.259372,6.853356,-82.594947,-4.849967
173878,-0.017704,0.18577,-0.293467,8.012091,-82.46621,-6.029081
173978,-0.023119,0.272955,-0.314497,9.157149,-82.283054,-7.197967
174078,-0.036906,0.391477,-0.312117,10.144049,-82.030183,-8.215795
174178,-0.093255,0.504502,-0.290034,10.866115,-81.713811,-8.99944
174278,-0.128012,0.558538,-0.248969,11.319741,-81.370439,-9.532501
174378,-0.070661,0.545661,-0.188965,11.563238,-81.040695,-9.820168
174478,0.046043,0.514976,-0.108906,11.599759,-80.737384,-9.830751
174578,0.216963,0.468111,-0.025125,11.482889,-80.470147,-9.586603
174678,0.362354,0.376284,0.023155,11.359998,-80.260095,-9.251674
174778,0.369445,0.256031,0.056786,11.218615,-80.12151,-8.893665
174878,0.334094,0.082128,0.077386,11.106332,-80.083071,-8.585639
174978,0.370333,-0.122247,0.069081,11.171481,-80.158777,-8.436634
175078,0.445497,-0.298188,0.051726,11.451432,-80.331581,-8.461919
175178,0.446423,-0.404228,0.02759,11.893074,-80.561108,-8.650597
175278,0.318839,-0.405061,0.000976,12.369502,-80.787639,-8.948469
175378,0.104793,-0.268369,0.000169,12.636597,-80.937267,-9.158366
175478,-0.102935,-0.059294,0.008919,12.59421,-80.971011,-9.175339
175578,-0.248377,0.102291,0.038879,12.238281,-80.918079,-8.959185
175678,-0.343484,0.143228,0.088481,11.62929,-80.847901,-8.541863
175778,-0.386114,0.086309,0.11948,10.935545,-80.812599,-8.063349
175878,-0.357089,0.008949,0.12459,10.294998,-80.820701,-7.621837
175978,-0.265212,-0.056545,0.103838,9.819077,-80.863176,-7.293769
176078,-0.131221,-0.109386,0.06725,9.57727,-80.931807,-7.125086
176178,-0.003069,-0.175608,0.049385,9.509347,-81.036224,-7.05815
176278,0.083778,-0.246579,0.049392,9.532819,-81.180845,-7.033375
176378,0.108945,-0.286278,0.057322,9.565976,-81.348725,-7.003817
176478,0.091002,-0.315915,0.0802,9.520773,-81.535567,-6.905429
176578,0.034947,-0.311477,0.108222,9.328013,-81.722518,-6.690407
176678,-0.046957,-0.273021,0.136856,8.940194,-81.890165,-6.325825
176778,-0.1398,-0.219606,0.162471,8.346744,-82.029313,-5.807436
176878,-0.219822,-0.172926,0.186602,7.562033,-82.143005,-5.142399
176978,-0.264881,-0.143144,0.207203,6.629473,-82.239834,-4.354359
177078,-0.265413,-0.134244,0.224031,5.600244,-82.330772,-3.469253
177178,-0.243737,-0.135746,0.233353,4.521586,-82.420832,-2.521935
177278,-0.215755,-0.134629,0.23051,3.447407,-82.507755,-1.563161
177378,-0.195065,-0.125392,0.210403,2.448744,-82.5865,-0.668774
177478,-0.181212,-0.108298,0.179972,1.571621,-82.652924,0.110913
177578,-0.171245,-0.099431,0.148918,0.8243,-82.712466,0.765379
177678,-0.16627,-0.107154,0.117605,0.210345,-82.77528,1.288186
177778,-0.157625,-0.129676,0.087103,-0.269563,-82.850377,1.680799
177878,-0.141224,-0.149426,0.064587,-0.645997,-82.936513,1.978536
177978,-0.124079,-0.151708,0.053866,-0.970581,-83.023791,2.233872
178078,-0.119008,-0.139097,0.059181,-1.323184,-83.103565,2.520313
178178,-0.122228,-0.105075,0.082031,-1.789354,-83.163212,2.919237
178278,-0.13195,-0.068769,0.104792,-2.370963,-83.201122,3.42877
178378,-0.152164,-0.046861,0.126749,-3.070327,-83.225188,4.04519
178478,-0.184228,-0.038327,0.135878,-3.833693,-83.243098,4.707532
178578,-0.211782,-0.041873,0.128731,-4.582932,-83.262278,5.339726
178678,-0.221411,-0.049131,0.116148,-5.283384,-83.285257,5.917209
178778,-0.209386,-0.051737,0.113291,-5.968314,-83.309036,6.485973
178878,-0.185268,-0.032577,0.114072,-6.63655,-83.32104,7.051818
178978,-0.152716,-0.004216,0.118233,-7.290777,-83.315829,7.622331
179078,-0.118726,0.012513,0.125021,-7.946064,-83.2998,8.213528
179178,-0.081204,0.00846,0.13041,-8.605698,-83.284781,8.830764
179278,-0.045528,0.009103,0.142936,-9.301504,-83.267363,9.505022
179378,-0.020758,0.026391,0.149706,-9.997259,-83.238497,10.193546
179478,-0.002031,0.04773,0.153816,-10.676712,-83.196138,10.876507
179578,0.002657,0.078793,0.159038,-11.340135,-83.134724,11.546097
179678,-0.019673,0.121334,0.157851,-11.957146,-83.04863,12.156151
179778,-0.06582,0.157111,0.149487,-12.511257,-82.942729,12.676318
179878,-0.117145,0.176287,0.137212,-13.004166,-82.827057,13.105297
179978,-0.148957,0.171347,0.123352,-13.444867,-82.715496,13.463385
180078,-0.137724,0.159441,0.111237,-13.827306,-82.611839,13.769306
180178,-0.083643,0.172623,0.09201,-14.073824,-82.503236,13.969476
180278,0.000451,0.238332,0.068559,-14.099392,-82.361245,13.995419
180378,0.094859,0.349318,0.051119,-13.887154,-82.15988,13.835969
180478,0.192556,0.471476,0.053019,-13.519973,-81.890059,13.576499
180578,0.296619,0.561659,0.079486,-13.13439,-81.56617,13.358492
180678,0.389712,0.591408,0.100078,-12.769022,-81.222808,13.214691
180778,0.421684,0.57705,0.104456,-12.431472,-80.886838,13.117465
180878,0.376977,0.512446,0.108848,-12.196895,-80.586521,13.098538
180978,0.252613,0.377927,0.082273,-12.047941,-80.364933,13.094175
181078,0.014277,0.193266,0.018384,-11.957586,-80.254722,13.010737
181178,-0.213238,0.006294,-0.051139,-11.901035,-80.25781,12.829329
181278,-0.303313,-0.138126,-0.118453,-11.773816,-80.349961,12.523904
181378,-0.31058,-0.242331,-0.126728,-11.690596,-80.501591,12.25899
181478,-0.24828,-0.376523,-0.093664,-11.77354,-80.724773,12.198818
181578,-0.175579,-0.555851,-0.069305,-12.034954,-81.045743,12.361626
181678,-0.030012,-0.706509,-0.066262,-12.360656,-81.450637,12.673694
181778,0.241538,-0.779662,-0.065704,-12.625995,-81.896138,13.081642
181878,0.55097,-0.704115,-0.066417,-12.674582,-82.299285,13.44931
181978,0.737654,-0.481661,-0.068217,-12.411795,-82.578265,13.610471
182078,0.745681,-0.20822,-0.077291,-11.839396,-82.705244,13.464005
182178,0.639394,-0.019598,-0.079981,-11.13538,-82.726357,13.12348
182278,0.469886,0.053188,-0.094288,-10.402413,-82.707466,12.65586
182378,0.335981,0.059712,-0.10764,-9.685409,-82.685487,12.126964
182478,0.252707,0.05535,-0.10676,-9.026545,-82.665116,11.60856
182578,0.195151,0.04912,-0.097178,-8.449813,-82.646775,11.1397
182678,0.151389,0.021545,-0.093353,-7.934338,-82.643252,10.707317
182778,0.095843,-0.019721,-0.101846,-7.437599,-82.663377,10.261747
182878,0.027272,-0.084935,-0.110038,-6.976875,-82.720727,9.812918
182978,-0.016135,-0.160528,-0.099997,-6.618617,-82.820019,9.442388
183078,-0.024342,-0.203581,-0.081941,-6.359957,-82.942407,9.16758
183178,0.00011,-0.200903,-0.061865,-6.170749,-83.061873,8.97693
183278,0.031937,-0.156454,-0.050373,-5.98928,-83.155224,8.812486
183378,0.051994,-0.09906,-0.044903,-5.789932,-83.215457,8.641635
183478,0.068482,-0.063556,-0.0343,-5.612336,-83.254761,8.502217
183578,0.070258,-0.057529,-0.014098,-5.527213,-83.289447,8.456948
183678,0.06776,-0.071915,0.004189,-5.538949,-83.331303,8.507763
183778,0.048742,-0.101562,0.019781,-5.653114,-83.389162,8.650722
183878,0.014932,-0.126532,0.023978,-5.822548,-83.460944,8.829794
183978,-0.016947,-0.143346,0.022524,-6.015829,-83.542297,9.014455
184078,-0.033861,-0.155813,0.017629,-6.20563,-83.630946,9.185829
184178,-0.040878,-0.169967,0.01576,-6.403084,-83.727679,9.360824
184278,-0.0373,-0.190253,0.01448,-6.609916,-83.835947,9.54728
184378,-0.03013,-0.201219,0.012667,-6.816975,-83.950473,9.738054
184478,-0.030085,-0.201173,0.002027,-6.973536,-84.065606,9.878037
184578,-0.029241,-0.19078,-0.008877,-7.067614,-84.175522,9.955661
184678,-0.014498,-0.195944,-0.017468,-7.111499,-84.288933,9.991311
184778,-0.001734,-0.206782,-0.019995,-7.143002,-84.40864,10.021857
184878,0.00412,-0.208857,-0.023491,-7.153429,-84.529727,10.034591
184978,0.015032,-0.197184,-0.028502,-7.118922,-84.644482,10.008465
185078,0.027719,-0.170624,-0.029997,-7.046228,-84.744184,9.95129
185178,0.038465,-0.129566,-0.038336,-6.881085,-84.82105,9.80747
185278,0.034831,-0.086243,-0.050165,-6.606064,-84.873962,9.55125
185378,0.030393,-0.056415,-0.062133,-6.230506,-84.910486,9.191554
185478,0.047392,-0.022673,-0.07432,-5.739599,-84.928233,8.725848
185578,0.086388,0.023385,-0.084721,-5.129339,-84.919849,8.162753
185678,0.131062,0.071096,-0.093535,-4.415451,-84.884042,7.521296
185778,0.157572,0.120691,-0.104311,-3.607862,-84.819539,6.800957
185878,0.152596,0.149003,-0.118049,-2.728189,-84.7383,6.005288
185978,0.145996,0.153407,-0.12687,-1.823365,-84.653601,5.180455
186078,0.1678,0.154947,-0.138193,-0.865294,-84.566926,4.314569
186178,0.222748,0.180553,-0.154896,0.193487,-84.464205,3.379003
186278,0.293336,0.254018,-0.182476,1.405558,-84.317401,2.329849
186378,0.338508,0.37336,-0.217819,2.752714,-84.099226,1.170595
186478,0.316298,0.524067,-0.266619,4.1999,-83.790291,-0.102603
186578,0.235868,0.684222,-0.319543,5.658604,-83.383899,-1.434637
186678,0.116215,0.816418,-0.356014,6.98295,-82.896308,-2.70161
186778,-0.0171,0.880351,-0.373127,8.100968,-82.367908,-3.838967
186878,-0.122142,0.882275,-0.375669,9.023623,-81.835642,-4.841269
186978,-0.17426,0.866181,-0.346454,9.701881,-81.313336,-5.628022
187078,-0.167546,0.833994,-0.299666,10.158126,-80.812779,-6.187215
187178,-0.169483,0.775107,-0.202941,10.276613,-80.354977,-6.405914
187278,-0.177961,0.618537,-0.155964,10.316882,-79.990414,-6.550418
187378,-0.175667,0.288864,-0.14941,10.521133,-79.812496,-6.860255
187478,-0.148422,-0.111692,-0.150922,10.97692,-79.859786,-7.409826
187578,-0.046106,-0.431136,-0.166332,11.754994,-80.083854,-8.2269
187678,0.105044,-0.620691,-0.181227,12.84771,-80.409899,-9.274656
187778,0.186079,-0.736576,-0.210941,14.264083,-80.792503,-10.602304
187878,0.095817,-0.721461,-0.229929,15.798218,-81.158114,-12.100145
187978,-0.122716,-0.483739,-0.204971,16.975397,-81.391284,-13.362313
188078,-0.322116,-0.134902,-0.160179,17.527608,-81.43816,-14.107509
188178,-0.425537,0.138916,-0.133364,17.611003,-81.339455,-14.438522
188278,-0.448315,0.252245,-0.096152,17.418078,-81.185326,-14.503278
188378,-0.411781,0.230763,-0.049694,17.110228,-81.050973,-14.430545
188478,-0.352643,0.149587,-0.006318,16.777256,-80.968392,-14.298042
188578,-0.310373,0.04783,0.036397,16.429445,-80.948659,-14.125965
188678,-0.265696,-0.071198,0.056317,16.158878,-80.99754,-14.006185
188778,-0.185281,-0.188602,0.045713,16.087961,-81.10937,-14.041896
188878,-0.102202,-0.283708,0.02068,16.252505,-81.269581,-14.267695
188978,-0.037751,-0.334139,0.003259,16.579802,-81.454557,-14.620658
189078,0.010848,-0.357813,0.006931,16.963567,-81.652791,-15.00238
189178,0.019155,-0.360707,0.024868,17.305851,-81.855258,-15.337181
189278,-0.031448,-0.339102,0.042949,17.538782,-82.048736,-15.59066
189378,-0.107127,-0.289954,0.052385,17.639784,-82.216848,-15.75462
189478,-0.193846,-0.225647,0.052379,17.613187,-82.349769,-15.839898
189578,-0.259126,-0.156422,0.053513,17.454988,-82.44503,-15.830122
189678,-0.288899,-0.102844,0.061942,17.17291,-82.512379,-15.712603
189778,-0.305284,-0.083077,0.070149,16.818062,-82.570163,-15.53118
189878,-0.312111,-0.094909,0.068123,16.478689,-82.633953,-15.369335
189978,-0.311511,-0.132182,0.059695,16.218323,-82.716754,-15.286826
190078,-0.306729,-0.169246,0.047097,16.058512,-82.817891,-15.302939
190178,-0.297058,-0.183854,0.041508,15.9458,-82.92617,-15.360929
190278,-0.26961,-0.175474,0.040852,15.840507,-83.029714,-15.410539
190378,-0.218509,-0.157536,0.039834,15.745523,-83.123192,-15.441031
190478,-0.14897,-0.137695,0.032365,15.698667,-83.204543,-15.479864
190578,-0.075193,-0.130876,0.031046,15.691539,-83.281899,-15.516133
190678,-0.014224,-0.110368,0.033347,15.681695,-83.348267,-15.514495
190778,0.039375,-0.077679,0.04374,15.609231,-83.398175,-15.418902
190878,0.078612,-0.04167,0.056884,15.446983,-83.430165,-15.21031
190978,0.11116,-0.011915,0.064622,15.225212,-83.446775,-14.923044
191078,0.11959,0.014817,0.073938,14.927548,-83.449808,-14.554535
191178,0.091837,0.052026,0.085806,14.509834,-83.433667,-14.081189
191278,0.044401,0.110359,0.097997,13.938771,-83.38636,-13.480804
191378,0.007554,0.176643,0.109987,13.223508,-83.30296,-12.756417
191478,-0.005028,0.23585,0.129132,12.36781,-83.187744,-11.897727
191578,-0.001248,0.266438,0.152895,11.40477,-83.05657,-10.928516
191678,-0.002535,0.265296,0.168962,10.405309,-82.925785,-9.923083
191778,-0.009912,0.248026,0.172957,9.433564,-82.803017,-8.949567
191878,-0.038925,0.249621,0.166157,8.50749,-82.676707,-8.038581
191978,-0.110392,0.295163,0.142773,7.647477,-82.520837,-7.235215
192078,-0.200061,0.377908,0.107586,6.877802,-82.313861,-6.574481
192178,-0.272468,0.469604,0.077317,6.188253,-82.051542,-6.036133
192278,-0.278678,0.553668,0.061404,5.564927,-81.739473,-5.567888
192378,-0.203126,0.638005,0.069745,4.964441,-81.378954,-5.078572
192478,-0.073322,0.749703,0.102327,4.332138,-80.955331,-4.48128
192578,0.079681,0.850536,0.134951,3.706319,-80.474362,-3.800976
192678,0.245999,0.899029,0.159554,3.147772,-79.965385,-3.091244
192778,0.373066,0.916563,0.187183,2.63379,-79.446108,-2.351677
192878,0.376861,0.815084,0.226378,2.075743,-78.984744,-1.563851
192978,0.247699,0.544372,0.234279,1.495468,-78.677306,-0.827762
193078,0.086159,0.242593,0.218379,0.915505,-78.541348,-0.185828
193178,0.013154,-0.041135,0.190458,0.391247,-78.566757,0.356725
193278,0.029292,-0.269951,0.178521,-0.093679,-78.722457,0.86842
193378,0.058377,-0.440242,0.19732,-0.636454,-78.974861,1.455695
193478,0.106463,-0.595849,0.214708,-1.240797,-79.31518,2.133116
193578,0.194955,-0.734247,0.209595,-1.834261,-79.733542,2.850181
193678,0.323444,-0.786119,0.188846,-2.347232,-80.180762,3.559275
193778,0.495129,-0.697001,0.166851,-2.726186,-80.576521,4.231301
193878,0.643906,-0.494881,0.153351,-2.975357,-80.856339,4.857531
193978,0.667351,-0.230022,0.136916,-3.121946,-80.98473,5.393117
194078,0.592693,0.031507,0.116672,-3.191158,-80.963955,5.80696
194178,0.490326,0.202804,0.089348,-3.183982,-80.846005,6.084123
194278,0.389289,0.289537,0.067896,-3.138375,-80.679133,6.263812
194378,0.307442,0.322403,0.05586,-3.089409,-80.49386,6.392653
194478,0.2321,0.301923,0.062787,-3.108716,-80.320108,6.547023
194578,0.170988,0.252438,0.093521,-3.270448,-80.173674,6.810453
194678,0.110453,0.188574,0.12634,-3.580379,-80.062511,7.189211
194778,0.043026,0.108423,0.134352,-3.965125,-79.996542,7.604806
194878,-0.017823,-0.008015,0.128525,-4.389558,-79.996902,8.025342
194978,-0.056608,-0.125421,0.133383,-4.884514,-80.06353,8.494872
195078,-0.070193,-0.172496,0.130307,-5.398323,-80.156467,8.97552
195178,-0.06553,-0.17283,0.114942,-5.868125,-80.249741,9.414082
195278,-0.044499,-0.153678,0.100458,-6.279121,-80.332389,9.80509
195378,-0.028158,-0.136884,0.088068,-6.639344,-80.405802,10.154
195478,-0.019187,-0.114024,0.080554,-6.964973,-80.466335,10.47297
195578,-0.025647,-0.083498,0.075508,-7.26802,-80.50954,10.765238
195678,-0.034387,-0.054397,0.073164,-7.55764,-80.536091,11.038783
195778,-0.046062,-0.033691,0.072399,-7.843175,-80.550676,11.301387
195878,-0.058083,-0.04078,0.069818,-8.131035,-80.569239,11.559352
195978,-0.061315,-0.072032,0.061625,-8.409527,-80.605959,11.805922
196078,-0.069412,-0.115636,0.056575,-8.700226,-80.66759,12.060124
196178,-0.085551,-0.151632,0.050486,-9.002442,-80.749897,12.316573
196278,-0.097503,-0.167131,0.041552,-9.294156,-80.841546,12.55538
196378,-0.093557,-0.17498,0.033882,-9.566554,-80.938129,12.776848
196478,-0.087872,-0.165961,0.030979,-9.825141,-81.029691,12.987569
196578,-0.075306,-0.142565,0.02013,-10.027381,-81.108937,13.148486
196678,-0.064107,-0.129326,0.012626,-10.190651,-81.18134,13.27642
196778,-0.065041,-0.147711,0.006972,-10.348576,-81.264582,13.398376
196878,-0.071227,-0.1929,0.002844,-10.528634,-81.373611,13.539102
196978,-0.08727,-0.258741,-0.004117,-10.7428,-81.520326,13.704974
197078,-0.112055,-0.315361,-0.013976,-10.982224,-81.699811,13.88195
197178,-0.115695,-0.334186,-0.033995,-11.168711,-81.89193,14.00325
197278,-0.088261,-0.316132,-0.053827,-11.252161,-82.076017,14.036312
197378,-0.027671,-0.293043,-0.063433,-11.244657,-82.248152,14.012589
197478,0.053418,-0.280815,-0.07188,-11.14371,-82.414312,13.941468
197578,0.115863,-0.290956,-0.084631,-10.956303,-82.587515,13.819256
197678,0.156364,-0.327618,-0.080012,-10.789686,-82.780755,13.74145
197778,0.176948,-0.367798,-0.0552,-10.752783,-82.99388,13.806284
197878,0.181375,-0.343335,-0.0395,-10.766286,-83.191493,13.924416
197978,0.175059,-0.277042,-0.058325,-10.635176,-83.35373,13.893244
198078,0.157642,-0.229345,-0.101331,-10.2538,-83.493467,13.600111
198178,0.140335,-0.230677,-0.136011,-9.693289,-83.63705,13.11681
198278,0.148791,-0.249466,-0.161414,-8.987502,-83.792957,12.492367
198378,0.19368,-0.244636,-0.170105,-8.171468,-83.945914,11.783095
198478,0.246431,-0.167391,-0.160229,-7.285207,-84.053086,11.033769
198578,0.280522,-0.036402,-0.145913,-6.347208,-84.08347,10.252157
198678,0.25253,0.065041,-0.137341,-5.410218,-84.054155,9.455434
198778,0.142756,0.102054,-0.144712,-4.488236,-84.002658,8.610499
198878,-0.020281,0.122926,-0.15755,-3.597663,-83.938244,7.70312
198978,-0.194042,0.18578,-0.195482,-2.607292,-83.837344,6.595099
199078,-0.350464,0.300464,-0.259622,-1.390989,-83.669657,5.169352
199178,-0.421227,0.430827,-0.333824,0.087898,-83.424047,3.437968
199278,-0.395885,0.536722,-0.394208,1.737309,-83.11194,1.548522
199378,-0.291035,0.572116,-0.383973,3.235136,-82.773898,-0.128947
199478,-0.150103,0.533714,-0.299197,4.316682,-82.456582,-1.306449
199578,-0.003532,0.389388,-0.193086,5.00187,-82.224523,-2.000032
199678,0.056238,0.157571,-0.096183,5.375131,-82.129149,-2.344454
199778,0.065283,-0.05122,-0.012768,5.485535,-82.157408,-2.418318
199878,0.083225,-0.182648,0.02651,5.495485,-82.262931,-2.380397
199978,0.121397,-0.251363,0.008892,5.630634,-82.406754,-2.44674
200078,0.13837,-0.297745,-0.042722,6.025969,-82.573987,-2.765683
200178,0.057606,-0.312551,-0.11278,6.712318,-82.744755,-3.424577
200278,-0.137315,-0.233292,-0.155068,7.464318,-82.866327,-4.261996
200378,-0.36191,-0.035963,-0.139398,7.914447,-82.875891,-4.924756
200478,-0.539565,0.136562,-0.102969,7.987598,-82.790074,-5.31021
200578,-0.618221,0.191442,-0.070077,7.83147,-82.675821,-5.510037
200678,-0.55804,0.126119,-0.036469,7.602119,-82.601456,-5.601294
200778,-0.41061,0.007786,-0.010223,7.412657,-82.596451,-5.647592
200878,-0.244302,-0.055855,-0.002482,7.320881,-82.628296,-5.696301
200978,-0.113879,-0.052582,-0.001194,7.29605,-82.658452,-5.737156
201078,-0.020676,-0.04985,-0.00922,7.358339,-82.686529,-5.812003
201178,0.025892,-0.090654,-0.018266,7.511507,-82.737164,-5.951561
201278,0.006771,-0.14157,-0.015303,7.672859,-82.816949,-6.110391
201378,0.002233,-0.200727,-0.005159,7.825854,-82.931093,-6.263382
201478,0.017834,-0.257821,0.014395,7.938942,-83.079163,-6.367116
201578,0.003994,-0.280616,0.02649,8.006474,-83.241116,-6.432918
201678,-0.032869,-0.273068,0.045683,7.956863,-83.400299,-6.402022
201778,-0.102523,-0.242645,0.058311,7.780777,-83.543171,-6.284005
201878,-0.180554,-0.19365,0.05986,7.511893,-83.65825,-6.117629
201978,-0.239311,-0.127541,0.05717,7.17162,-83.735432,-5.913333
202078,-0.250628,-0.070215,0.065584,6.738222,-83.780418,-5.621904
202178,-0.241863,-0.039359,0.075992,6.232098,-83.808237,-5.252292
202278,-0.223533,-0.023047,0.071093,5.749842,-83.826121,-4.89614
202378,-0.201134,-0.024083,0.059401,5.340562,-83.843655,-4.600491
202478,-0.186469,-0.043695,0.044513,5.026138,-83.871416,-4.391808
202578,-0.169928,-0.073325,0.028619,4.817398,-83.915212,-4.279895
202678,-0.13646,-0.101779,0.013713,4.718973,-83.974511,-4.259643
202778,-0.094764,-0.122563,0.00836,4.682174,-84.045422,-4.277337
202878,-0.050679,-0.123984,0.003684,4.697287,-84.116916,-4.321826
202978,-0.006335,-0.114628,0.004696,4.728822,-84.183097,-4.357277
203078,0.035376,-0.091923,0.018604,4.69586,-84.236945,-4.303879
203178,0.070301,-0.06443,0.038763,4.554627,-84.275989,-4.121557
203278,0.093223,-0.041286,0.058036,4.303884,-84.302573,-3.815994
203378,0.105291,-0.025848,0.069341,3.986399,-84.320626,-3.436423
203478,0.109246,-0.017764,0.073962,3.639597,-84.333994,-3.025127
203578,0.095302,-0.022553,0.070099,3.307231,-84.349707,-2.636377
203678,0.078911,-0.026329,0.06363,3.002473,-84.367138,-2.28482
203778,0.088364,-0.016963,0.061927,2.708816,-84.378946,-1.938986
203878,0.107013,0.028947,0.063755,2.403099,-84.364299,-1.570299
203978,0.12845,0.101623,0.074063,2.037325,-84.308013,-1.128898
204078,0.138822,0.159683,0.082418,1.628859,-84.218296,-0.638563
204178,0.146211,0.176032,0.090292,1.192744,-84.118933,-0.116099
204278,0.149638,0.16975,0.097862,0.733583,-84.022798,0.4316
204378,0.151901,0.178537,0.109563,0.228598,-83.921176,1.026779
204478,0.151103,0.222267,0.122503,-0.325515,-83.79388,1.671036
204578,0.155109,0.29924,0.130223,-0.886337,-83.621735,2.324534
204678,0.165697,0.378039,0.130577,-1.400672,-83.403744,2.937602
204778,0.190127,0.443946,0.116582,-1.787498,-83.147651,3.436666
204878,0.220192,0.473319,0.093862,-2.015852,-82.874811,3.793706
204978,0.25592,0.479035,0.071741,-2.103643,-82.598976,4.029899
205078,0.278197,0.499186,0.053076,-2.084358,-82.311901,4.171109
205178,0.262576,0.584484,0.048483,-2.037501,-81.976004,4.275557
205278,0.232429,0.741297,0.063657,-2.041664,-81.549917,4.414205
205378,0.222463,0.930091,0.093273,-2.126582,-81.015018,4.628952
205478,0.254661,1.078684,0.131177,-2.285304,-80.394092,4.937527
205578,0.304188,1.136428,0.157962,-2.465088,-79.739334,5.296885
205678,0.359782,1.047719,0.18617,-2.678353,-79.134494,5.723431
205778,0.401567,0.815533,0.194596,-2.892969,-78.662152,6.176533
205878,0.356238,0.530556,0.164548,-3.067497,-78.353679,6.562853
205978,0.203104,0.228832,0.099169,-3.183867,-78.219921,6.800491
206078,0.026769,-0.056893,0.020238,-3.226584,-78.252288,6.859745
206178,-0.120602,-0.267596,-0.031692,-3.243434,-78.40699,6.806352
206278,-0.181021,-0.39423,-0.038769,-3.294878,-78.634444,6.752971
206378,-0.128754,-0.49733,-0.01103,-3.414299,-78.920003,6.799468
206478,-0.006334,-0.573605,0.017736,-3.567705,-79.248185,6.951954
206578,0.164925,-0.56435,0.034954,-3.682995,-79.570395,7.165315
206678,0.388698,-0.457586,0.047652,-3.696887,-79.831049,7.40572
206778,0.60566,-0.282879,0.057124,-3.585478,-79.991506,7.644951
206878,0.718464,-0.105408,0.05846,-3.379285,-80.050573,7.853479
206978,0.742283,-0.014269,0.055781,-3.133636,-80.05779,8.035779
207078,0.670668,-0.042989,0.04231,-2.890448,-80.082039,8.17891
207178,0.519702,-0.127183,0.028387,-2.701992,-80.155001,8.289774
207278,0.35503,-0.192669,0.023384,-2.601474,-80.265653,8.394099
207378,0.224566,-0.207893,0.031898,-2.607315,-80.38482,8.530453
207478,0.128741,-0.162394,0.049899,-2.72413,-80.477446,8.723626
207578,0.057478,-0.091044,0.05774,-2.899353,-80.528952,8.93458
207678,0.00767,-0.04124,0.043256,-3.046111,-80.55232,9.087725
207778,-0.030849,-0.047253,0.018894,-3.132838,-80.57986,9.157633
207878,-0.060965,-0.094262,0.007922,-3.208464,-80.634656,9.198791
207978,-0.061222,-0.129513,0.003318,-3.27598,-80.709779,9.231572
208078,-0.033168,-0.157331,-0.008061,-3.293854,-80.801196,9.230334
208178,-0.001503,-0.186059,-0.024471,-3.241095,-80.909583,9.175928
208278,0.024345,-0.211226,-0.032342,-3.148861,-81.032596,9.096564
208378,0.046282,-0.232983,-0.016702,-3.103626,-81.167534,9.077519
208478,0.060756,-0.233838,0.019048,-3.183092,-81.301808,9.193043
208578,0.056661,-0.217603,0.051665,-3.388333,-81.425652,9.433369
208678,0.025068,-0.183947,0.075365,-3.701237,-81.529221,9.764182
208778,-0.009092,-0.160028,0.081031,-4.057282,-81.618591,10.118735
208878,-0.040311,-0.158985,0.077572,-4.425119,-81.707165,10.467045
208978,-0.060355,-0.177256,0.068627,-4.782851,-81.80625,10.793456
209078,-0.066587,-0.210173,0.063792,-5.145038,-81.924055,11.120668
209178,-0.067966,-0.249875,0.067605,-5.549569,-82.06398,11.489739
209278,-0.056571,-0.277077,0.071314,-5.988845,-82.218798,11.900338
209378,-0.040406,-0.278857,0.074198,-6.449341,-82.37398,12.341543
209478,-0.033877,-0.252098,0.075555,-6.916832,-82.513326,12.793423
209578,-0.041863,-0.199597,0.084869,-7.417518,-82.621615,13.274034
209678,-0.060833,-0.145728,0.095907,-7.959537,-82.697866,13.785258
209778,-0.089002,-0.105839,0.106236,-8.548364,-82.74997,14.327325
209878,-0.129505,-0.0811,0.116215,-9.195478,-82.786424,14.904697
209978,-0.160265,-0.07023,0.122221,-9.884925,-82.815302,15.506933
210078,-0.16342,-0.061526,0.123967,-10.581978,-82.838169,16.114976
210178,-0.136019,-0.049919,0.12332,-11.25436,-82.853663,16.71395
210278,-0.103501,-0.042039,0.115315,-11.867755,-82.864808,17.272234
210378,-0.076425,-0.046665,0.106748,-12.433943,-82.878853,17.79856
210478,-0.063177,-0.06932,0.096201,-12.971124,-82.906244,18.303278
210578,-0.068225,-0.079395,0.088538,-13.491941,-82.939655,18.788558
210678,-0.091373,-0.058195,0.083735,-13.985605,-82.961354,19.233082
210778,-0.110895,-0.01233,0.079592,-14.421775,-82.957678,19.608397
210878,-0.12502,0.04911,0.074542,-14.770634,-82.92032,19.887593
210978,-0.122994,0.091592,0.066185,-15.027659,-82.860473,20.07544
211078,-0.094805,0.093507,0.05021,-15.192793,-82.801853,20.186974
211178,-0.053711,0.10211,0.02312,-15.204557,-82.742503,20.167656
211278,-0.014853,0.127548,-0.006206,-15.038463,-82.673438,19.991472
211378,0.008696,0.174884,-0.031436,-14.701419,-82.581741,19.656485
211478,-0.000271,0.258598,-0.05348,-14.195559,-82.446391,19.145961
211578,-0.051017,0.351735,-0.069075,-13.57927,-82.260683,18.49449
211678,-0.137238,0.425483,-0.084205,-12.913039,-82.034821,17.742416
211778,-0.229076,0.462259,-0.101902,-12.237909,-81.789379,16.927772
211878,-0.293285,0.474205,-0.122495,-11.555132,-81.538324,16.067706
211978,-0.302745,0.44496,-0.149159,-10.844456,-81.305205,15.173406
212078,-0.269487,0.356422,-0.181303,-10.09757,-81.12371,14.261253
212178,-0.232796,0.192261,-0.208338,-9.36259,-81.03584,13.382098
212278,-0.204525,-0.019657,-0.222233,-8.692229,-81.067559,12.58469
212378,-0.170211,-0.208029,-0.229313,-8.067453,-81.205309,11.853506
212478,-0.152581,-0.331536,-0.232044,-7.460706,-81.41222,11.151124
212578,-0.169907,-0.379848,-0.236,-6.838542,-81.645773,10.423531
212678,-0.216035,-0.377898,-0.23767,-6.196754,-81.877163,9.649845
212778,-0.264011,-0.341779,-0.230994,-5.554461,-82.086349,8.848318
212878,-0.333316,-0.268089,-0.219028,-4.937237,-82.251646,8.032383
212978,-0.424837,-0.151345,-0.201764,-4.378406,-82.348343,7.222716
213078,-0.517418,-0.037682,-0.189364,-3.876754,-82.378595,6.417346
213178,-0.564563,0.027692,-0.165966,-3.480885,-82.369809,5.691473
213278,-0.55662,0.049653,-0.13696,-3.200325,-82.346974,5.086512
213378,-0.502916,0.044682,-0.121346,-2.958901,-82.32619,4.552061
213478,-0.419974,0.002492,-0.118816,-2.690835,-82.329215,4.03867
213578,-0.328561,-0.047972,-0.127801,-2.340374,-82.361031,3.495014
213678,-0.240022,-0.095794,-0.146037,-1.863768,-82.420133,2.875333
213778,-0.167087,-0.142247,-0.157604,-1.29104,-82.505298,2.200951
213878,-0.111616,-0.18753,-0.155028,-0.685898,-82.615474,1.526085
213978,-0.092636,-0.231052,-0.138943,-0.123108,-82.749621,0.905069
214078,-0.112868,-0.281591,-0.114389,0.339076,-82.912026,0.373976
214178,-0.168124,-0.330732,-0.09027,0.681803,-83.102219,-0.068458
214278,-0.236017,-0.356449,-0.069151,0.906778,-83.307016,-0.431298
214378,-0.30437,-0.357757,-0.050493,1.016916,-83.512581,-0.717809
214478,-0.351528,-0.345005,-0.038566,1.049411,-83.710888,-0.953267
214578,-0.373536,-0.326933,-0.027678,1.017697,-83.898926,-1.136735
214678,-0.367778,-0.29806,-0.026601,0.985368,-84.070424,-1.316207
214778,-0.339386,-0.278592,-0.032691,1.006572,-84.230698,-1.533085
214878,-0.293011,-0.268427,-0.047455,1.146529,-84.384951,-1.842544
214978,-0.241467,-0.267204,-0.069,1.458177,-84.538093,-2.294745
215078,-0.211043,-0.270486,-0.085268,1.910654,-84.692533,-2.870774
215178,-0.193964,-0.275241,-0.095562,2.470735,-84.848968,-3.544886
215278,-0.189801,-0.273638,-0.095762,3.072811,-85.00383,-4.2586
215378,-0.191558,-0.26489,-0.089043,3.666964,-85.153224,-4.965206
215478,-0.18612,-0.242204,-0.078996,4.224196,-85.289407,-5.631487
215578,-0.167169,-0.219024,-0.06746,4.732885,-85.412318,-6.238049
215678,-0.128208,-0.200789,-0.053007,5.177232,-85.525096,-6.757576
215778,-0.07681,-0.191511,-0.043218,5.596404,-85.632763,-7.22224
215878,-0.02575,-0.173099,-0.034272,5.984357,-85.73016,-7.626196
215978,0.017126,-0.152182,-0.024264,6.319495,-85.816024,-7.952514
216078,0.031654,-0.129883,-0.014311,6.577508,-85.889671,-8.193128
216178,0.013218,-0.090287,-0.005,6.72141,-85.941301,-8.329915
216278,-0.01427,-0.039397,0.003381,6.736387,-85.964484,-8.35324
216378,-0.038621,0.013802,0.017557,6.573081,-85.958296,-8.211828
216478,-0.040591,0.068779,0.035858,6.213902,-85.921891,-7.87518
216578,0.000397,0.089337,0.053515,5.728336,-85.874611,-7.388262
216678,0.059071,0.114381,0.066909,5.165132,-85.813417,-6.789763
216778,0.122378,0.186396,0.083044,4.487758,-85.711373,-6.040351
216878,0.156998,0.280479,0.106335,3.64598,-85.555742,-5.106037
216978,0.142097,0.384994,0.124702,2.691447,-85.339767,-4.066943
217078,0.087693,0.462371,0.133292,1.722511,-85.078288,-3.044324
217178,0.032851,0.512863,0.131753,0.829529,-84.786446,-2.129078
217278,0.015881,0.576596,0.127339,0.049823,-84.456819,-1.336924
217378,0.060394,0.651294,0.119425,-0.567666,-84.08344,-0.681698
217478,0.118155,0.697242,0.09805,-0.961494,-83.683302,-0.217664
217578,0.181541,0.663627,0.062812,-1.100246,-83.302583,0.026552
217678,0.209441,0.574193,0.034642,-1.080594,-82.973448,0.127512
217778,0.175765,0.440277,0.004395,-0.951932,-82.721479,0.099233
217878,0.075783,0.281325,-0.026438,-0.760516,-82.561014,-0.050081
217978,-0.026954,0.135984,-0.054734,-0.518883,-82.484117,-0.309444
218078,-0.043907,0.012148,-0.056461,-0.287679,-82.478184,-0.568103
218178,-0.033143,-0.07077,-0.01884,-0.215712,-82.519668,-0.659919
218278,-0.000336,-0.152891,0.024154,-0.315198,-82.608159,-0.559859
218378,0.08804,-0.26204,0.054245,-0.505741,-82.75908,-0.316971
218478,0.22257,-0.35294,0.065726,-0.68647,-82.96193,-0.006391
218578,0.393707,-0.380984,0.056139,-0.738845,-83.180832,0.273521
218678,0.573109,-0.355885,0.027025,-0.55245,-83.385581,0.416386
218778,0.728946,-0.290709,0.000916,-0.139245,-83.553186,0.420776
218878,0.815538,-0.1824,-0.004915,0.363759,-83.65877,0.384727
218978,0.813259,-0.058785,-0.007562,0.880691,-83.693522,0.333358
219078,0.721149,0.034943,-0.01503,1.37647,-83.674486,0.250174
219178,0.547372,0.076339,-0.026657,1.824582,-83.631502,0.114767
219278,0.360413,0.101318,-0.029301,2.17091,-83.574072,-0.026021
219378,0.194102,0.140222,-0.013097,2.328969,-83.494672,-0.073251
219478,0.070255,0.174648,0.001471,2.335441,-83.395911,-0.039329
219578,-0.009905,0.160063,-0.000326,2.309048,-83.305497,-0.018548
219678,-0.076736,0.083067,-0.028297,2.396172,-83.258572,-0.150617
219778,-0.123121,-0.054112,-0.047845,2.579919,-83.289718,-0.406737
219878,-0.126649,-0.185841,-0.060923,2.860473,-83.395832,-0.762316
219978,-0.091758,-0.2624,-0.079946,3.289472,-83.544937,-1.247095
220078,-0.020898,-0.287295,-0.098098,3.883636,-83.70713,-1.857066
220178,0.056497,-0.26947,-0.110874,4.614448,-83.857777,-2.559705
220278,0.129524,-0.226757,-0.111061,5.402204,-83.982971,-3.277352
220378,0.171247,-0.167573,-0.09275,6.109492,-84.074425,-3.889917
220478,0.184166,-0.104062,-0.046666,6.547099,-84.131941,-4.223845
220578,0.175109,-0.057647,0.003168,6.677653,-84.16613,-4.254303
220678,0.135092,-0.032442,0.041888,6.552621,-84.188517,-4.050897
220778,0.08098,-0.042048,0.063572,6.279121,-84.217691,-3.729432
220878,0.032357,-0.077294,0.076256,5.923487,-84.267542,-3.353441
220978,-0.008021,-0.115347,0.08026,5.53644,-84.339069,-2.969172
221078,-0.023971,-0.157755,0.071869,5.201837,-84.434092,-2.646841
221178,-0.021334,-0.206087,0.05939,4.956676,-84.555899,-2.412909
221278,-0.000689,-0.240418,0.045727,4.813717,-84.696543,-2.269802
221378,0.033212,-0.256903,0.031501,4.780814,-84.845858,-2.217743
221478,0.065699,-0.2534,0.023696,4.812614,-84.99274,-2.21197
221578,0.087286,-0.242435,0.021361,4.866462,-85.133178,-2.215918
221678,0.095,-0.218447,0.024991,4.886635,-85.260013,-2.181641
221778,0.09752,-0.160203,0.027545,4.854343,-85.353632,-2.093282
221878,0.096387,-0.089875,0.030264,4.757123,-85.407131,-1.940449
221978,0.090451,-0.031291,0.034435,4.589441,-85.427269,-1.72035
222078,0.083533,-0.013816,0.031239,4.428931,-85.437172,-1.51143
222178,0.083842,-0.030138,0.026363,4.311073,-85.456092,-1.345125
222278,0.078903,-0.044877,0.020495,4.238881,-85.483111,-1.227476
222378,0.077432,-0.041399,0.016376,4.192337,-85.507909,-1.136405
222478,0.083526,-0.007843,0.009133,4.183188,-85.513188,-1.079345
222578,0.105763,0.019696,0.006757,4.188925,-85.502611,-1.024435
222678,0.14308,0.010435,-0.00444,4.301675,-85.496855,-1.055422
222778,0.204839,-0.028073,-0.017972,4.568788,-85.512495,-1.205752
222878,0.278124,-0.051511,-0.032222,4.997003,-85.54076,-1.475553
222978,0.342769,-0.012914,-0.037892,5.480297,-85.546514,-1.763441
223078,0.386394,0.095073,-0.035895,5.893301,-85.490589,-1.955761
223178,0.391771,0.229409,-0.030161,6.158318,-85.358283,-1.996559
223278,0.330389,0.35103,-0.038345,6.344554,-85.156039,-1.993613
223378,0.202838,0.498889,-0.053711,6.444588,-84.868425,-1.977509
223478,0.02963,0.682685,-0.091211,6.543498,-84.47355,-2.059952
223578,-0.119337,0.856631,-0.139754,6.702997,-83.976321,-2.289151
223678,-0.161889,0.959832,-0.17856,6.940963,-83.41765,-2.622048
223778,-0.104552,0.940252,-0.188991,7.225432,-82.869349,-2.969059
223878,-0.012105,0.735114,-0.190331,7.63796,-82.437534,-3.392138
223978,0.066554,0.37108,-0.163444,8.150917,-82.214369,-3.871383
224078,0.09536,-0.001604,-0.119997,8.706834,-82.205806,-4.377446
224178,0.077539,-0.257861,-0.071654,9.223485,-82.346149,-4.854094
224278,0.069485,-0.393431,-0.045128,9.740271,-82.565134,-5.335325
224378,0.034722,-0.419569,-0.04103,10.270375,-82.798721,-5.849812
224478,-0.039374,-0.344915,-0.041562,10.730072,-82.989594,-6.335887
224578,-0.13899,-0.206221,-0.022702,10.943787,-83.104045,-6.631496
224678,-0.24817,-0.028276,0.001436,10.827602,-83.120935,-6.657775
224778,-0.3446,0.128304,0.018705,10.439629,-83.051539,-6.465926
224878,-0.375178,0.183561,0.034754,9.922377,-82.952564,-6.161435
224978,-0.340381,0.126706,0.061093,9.360801,-82.888089,-5.792123
225078,-0.277535,0.030237,0.080411,8.824784,-82.879715,-5.412239
225178,-0.207047,-0.041022,0.089968,8.334507,-82.912283,-5.037754
225278,-0.166888,-0.063003,0.089818,7.877799,-82.957073,-4.673936
225378,-0.177112,-0.065015,0.078873,7.461585,-83.001958,-4.356851
225478,-0.190916,-0.092258,0.068858,7.095118,-83.061447,-4.097884
225578,-0.188249,-0.15484,0.064311,6.781567,-83.156109,-3.890719
225678,-0.183363,-0.206716,0.065281,6.487726,-83.280262,-3.70063
225778,-0.184865,-0.230694,0.069797,6.175082,-83.418232,-3.492532
225878,-0.190616,-0.22975,0.072418,5.835021,-83.555659,-3.260212
225978,-0.201449,-0.209708,0.070089,5.479082,-83.68134,-3.018225
226078,-0.21013,-0.164452,0.055318,5.162731,-83.780231,-2.821122
226178,-0.22036,-0.113442,0.036948,4.906986,-83.848953,-2.69091
226278,-0.230819,-0.06612,0.024364,4.687631,-83.889985,-2.60334
226378,-0.243929,-0.03608,0.020236,4.468303,-83.91364,-2.523355
226478,-0.256914,-0.032021,0.015785,4.262791,-83.934766,-2.46475
226578,-0.261823,-0.054074,0.013308,4.07567,-83.96839,-2.42747
226678,-0.254759,-0.091516,0.009514,3.926469,-84.023269,-2.424252
226778,-0.240588,-0.131344,0.002518,3.83799,-84.100638,-2.473922
226878,-0.213597,-0.158209,-0.011695,3.855119,-84.192794,-2.614202
226978,-0.172272,-0.161197,-0.028693,3.9975,-84.28593,-2.856552
227078,-0.118018,-0.151536,-0.043313,4.258705,-84.372804,-3.187037
227178,-0.052623,-0.124928,-0.052923,4.611086,-84.443818,-3.571443
227278,0.011105,-0.084967,-0.053095,4.990098,-84.491702,-3.945887
227378,0.057467,-0.018238,-0.042478,5.302158,-84.501768,-4.226365
227478,0.069815,0.062242,-0.025512,5.476054,-84.466661,-4.360938
227578,0.065663,0.137578,-0.003638,5.475667,-84.38971,-4.322804
227678,0.060431,0.182819,0.021768,5.3035,-84.288272,-4.115056
227778,0.039038,0.19429,0.050597,4.958858,-84.181632,-3.746239
227878,0.014169,0.197555,0.076898,4.467103,-84.074055,-3.243788
227978,-0.001658,0.216261,0.100129,3.852045,-83.956207,-2.626376
228078,0.015712,0.242942,0.115278,3.182731,-83.822851,-1.944246
228178,0.059863,0.26507,0.128065,2.496224,-83.676263,-1.219195
228278,0.125409,0.277235,0.135095,1.841743,-83.52186,-0.488371
228378,0.185851,0.292438,0.136744,1.244427,-83.35781,0.219998
228478,0.230943,0.320875,0.132801,0.721962,-83.17656,0.879261
228578,0.25594,0.37851,0.134187,0.237645,-82.961533,1.514795
228678,0.257536,0.465089,0.133511,-0.206756,-82.696197,2.111353
228778,0.220733,0.553529,0.131687,-0.62196,-82.379563,2.657594
228878,0.143945,0.629505,0.131286,-1.033372,-82.018821,3.156041
228978,0.054478,0.682769,0.1297,-1.443083,-81.627032,3.601456
229078,4.60E-05,0.749996,0.133833,-1.851545,-81.196167,4.014554
229178,0.017481,0.838348,0.138416,-2.215551,-80.714191,4.393281
229278,0.081707,0.895171,0.138563,-2.499058,-80.199383,4.728253
229378,0.152794,0.89601,0.137414,-2.708373,-79.683996,5.029783
229478,0.144238,0.761403,0.116522,-2.856427,-79.246271,5.264491
229578,0.055323,0.484415,0.059005,-2.914747,-78.968923,5.356226
229678,-0.06744,0.210654,0.046982,-3.046709,-78.848847,5.451393
229778,-0.16476,-0.001382,0.06819,-3.328225,-78.849566,5.642174
229878,-0.228261,-0.157588,0.093568,-3.749584,-78.938659,5.938352
229978,-0.237565,-0.308699,0.120797,-4.295841,-79.112639,6.356177
230078,-0.167087,-0.420364,0.133701,-4.884917,-79.349027,6.858391
230178,-0.041566,-0.466487,0.133786,-5.440219,-79.610745,7.398973
230278,0.106935,-0.461462,0.117445,-5.884174,-79.869592,7.912401
230378,0.244388,-0.388914,0.088793,-6.154065,-80.088172,8.328648
230478,0.365993,-0.240284,0.057026,-6.208508,-80.223765,8.596708
230578,0.465812,-0.066525,0.018255,-6.017323,-80.262733,8.67349
230678,0.513434,0.082879,-0.024034,-5.607215,-80.219054,8.555822
230778,0.498725,0.168909,-0.069396,-5.032793,-80.128568,8.262819
230878,0.424124,0.200948,-0.104903,-4.38519,-80.020971,7.852045
230978,0.298021,0.195218,-0.112182,-3.798654,-79.916225,7.429785
231078,0.126174,0.172159,-0.086876,-3.405369,-79.823162,7.103693
231178,-0.04479,0.16412,-0.050226,-3.233195,-79.73324,6.902653
231278,-0.131303,0.186245,-0.024541,-3.190248,-79.62984,6.782525
231378,-0.145609,0.187657,-0.022454,-3.163476,-79.525665,6.670471
231478,-0.15814,0.100896,-0.040835,-3.103405,-79.471812,6.517223
231578,-0.178536,-0.026571,-0.052965,-3.039655,-79.491318,6.348336
231678,-0.172028,-0.102408,-0.057004,-2.971537,-79.554326,6.178819
231778,-0.135135,-0.117101,-0.067743,-2.849745,-79.625971,5.976254
231878,-0.098512,-0.103385,-0.079026,-2.667293,-79.689907,5.733398
231978,-0.070135,-0.083137,-0.08419,-2.446877,-79.742138,5.468524
232078,-0.049501,-0.054366,-0.082881,-2.212757,-79.777577,5.201773
232178,-0.03039,-0.023272,-0.078425,-1.976622,-79.794823,4.944123
232278,-0.011205,0.002935,-0.074299,-1.739168,-79.796701,4.696309
232378,0.000251,0.012998,-0.076618,-1.48678,-79.792583,4.439989
232478,0.00123,0.022351,-0.090351,-1.189725,-79.782999,4.138846
232578,-0.010422,0.028541,-0.103222,-0.858781,-79.769647,3.796474
232678,-0.024883,0.018672,-0.109987,-0.515907,-79.761585,3.433546
232778,-0.050204,0.008064,-0.111314,-0.184097,-79.759173,3.067112
232878,-0.078686,0.010652,-0.10319,0.105279,-79.754869,2.727209
232978,-0.098817,0.018224,-0.093376,0.351358,-79.74591,2.419574
233078,-0.104987,0.02375,-0.085273,0.567296,-79.733534,2.138961
233178,-0.101731,0.015868,-0.076284,0.756085,-79.72548,1.88782
233278,-0.098734,-0.014606,-0.072734,0.936287,-79.734688,1.647144
233378,-0.097746,-0.029703,-0.069194,1.106846,-79.752359,1.416846
233478,-0.09433,-0.022066,-0.066577,1.270905,-79.765473,1.195147
233578,-0.092625,-0.006225,-0.061946,1.420185,-79.769374,0.989456
233678,-0.087114,0.001044,-0.058933,1.562299,-79.768969,0.794251
233778,-0.07191,-0.003324,-0.055976,1.703896,-79.770934,0.608418
233878,-0.05748,-0.025867,-0.055642,1.854853,-79.785643,0.421473
233978,-0.041384,-0.045201,-0.055123,2.01581,-79.811255,0.233743
234078,-0.036075,-0.055162,-0.051049,2.168647,-79.842478,0.057363
234178,-0.028661,-0.054138,-0.041219,2.294879,-79.873181,-0.087662
234278,-0.011921,-0.042342,-0.031392,2.398145,-79.897243,-0.199611
234378,0.00993,-0.039016,-0.03208,2.516026,-79.919287,-0.313684
234478,0.036452,-0.049854,-0.038667,2.672309,-79.947263,-0.451321
234578,0.062873,-0.090392,-0.044098,2.868441,-79.99817,-0.61404
234678,0.094778,-0.149622,-0.048404,3.108864,-80.082692,-0.80314
234778,0.141539,-0.203395,-0.047321,3.386303,-80.197826,-1.002565
234878,0.223865,-0.219002,-0.035924,3.681463,-80.32209,-1.172045
234978,0.321863,-0.178798,-0.012118,3.948487,-80.424114,-1.255987
235078,0.39847,-0.074589,0.009548,4.163349,-80.467363,-1.242512
235178,0.40832,0.055666,0.021883,4.309553,-80.436632,-1.153699
235278,0.337622,0.162537,0.025244,4.376528,-80.344869,-1.025607
235378,0.199927,0.196377,0.01246,4.399602,-80.233014,-0.932988
235478,0.029231,0.214634,-0.026384,4.449356,-80.108756,-0.966681
235578,-0.119761,0.330703,-0.078481,4.552226,-79.915583,-1.141009
235678,-0.229858,0.518364,-0.134649,4.715513,-79.612359,-1.440969
235778,-0.282717,0.650775,-0.18201,4.944348,-79.230955,-1.838747
235878,-0.279231,0.664109,-0.175589,5.131931,-78.841989,-2.192978
235978,-0.247514,0.611398,-0.113626,5.159607,-78.486269,-2.366035
236078,-0.171168,0.513826,-0.068803,5.126435,-78.188756,-2.432489
236178,-0.074432,0.31351,-0.030697,5.093086,-78.007859,-2.442169
236278,-0.045508,0.06077,-0.000248,5.054843,-77.973137,-2.429897
236378,-0.02064,-0.19446,-0.001114,5.093892,-78.084377,-2.482062
236478,0.049202,-0.398631,-0.036423,5.322276,-78.310504,-2.686723
236578,0.107873,-0.549645,-0.105765,5.831635,-78.618738,-3.143624
236678,0.100477,-0.660183,-0.200952,6.678403,-78.982899,-3.948245
236778,-0.022961,-0.67892,-0.244032,7.647637,-79.352028,-4.94855
236878,-0.254278,-0.498253,-0.186124,8.288905,-79.620416,-5.749039
236978,-0.495414,-0.192944,-0.099208,8.406971,-79.721874,-6.15767
237078,-0.629059,0.078932,-0.01488,8.063,-79.676236,-6.174481
237178,-0.622442,0.202994,0.03657,7.512907,-79.564296,-5.977878
237278,-0.532956,0.18562,0.0547,6.973148,-79.46339,-5.739564
237378,-0.394628,0.099626,0.05523,6.548374,-79.411286,-5.537524
237478,-0.227336,0.004522,0.038002,6.306343,-79.412188,-5.423861
237578,-0.072552,-0.101398,0.011793,6.267896,-79.47187,-5.427087
237678,0.022612,-0.212508,0.003642,6.346564,-79.594455,-5.493961
237778,0.068417,-0.288135,0.022825,6.419297,-79.761411,-5.528099
237878,0.13634,-0.31628,0.049913,6.456057,-79.946186,-5.486138
237978,0.19937,-0.31633,0.07009,6.463062,-80.13232,-5.377326
238078,0.216783,-0.298621,0.083133,6.428178,-80.309206,-5.215941
238178,0.14939,-0.271317,0.093553,6.305371,-80.471143,-5.004627
238278,0.033788,-0.222348,0.104337,6.05522,-80.605699,-4.731452
238378,-0.08142,-0.170196,0.101376,5.723392,-80.710092,-4.442493
238478,-0.151904,-0.127887,0.09767,5.343212,-80.789837,-4.145537
238578,-0.170549,-0.107421,0.096335,4.944938,-80.857504,-3.841137
238678,-0.157016,-0.116753,0.098195,4.545287,-80.930251,-3.527551
238778,-0.141317,-0.133729,0.102721,4.137109,-81.012551,-3.196292
238878,-0.135675,-0.160321,0.09523,3.759252,-81.10941,-2.892537
238978,-0.129196,-0.198945,0.075692,3.458767,-81.227385,-2.663413
239078,-0.10391,-0.238004,0.047594,3.279949,-81.366617,-2.542797
239178,-0.060207,-0.264569,0.018378,3.23939,-81.520061,-2.536719
239278,-0.014609,-0.285645,-0.011636,3.346647,-81.684562,-2.653653
239378,0.040606,-0.297531,-0.034281,3.583902,-81.854993,-2.869924
239478,0.091108,-0.286401,-0.038486,3.874287,-82.018703,-3.110543
239578,0.123858,-0.249674,-0.023104,4.119894,-82.161804,-3.286923
239678,0.135856,-0.198168,0.004019,4.24966,-82.276455,-3.339396
239778,0.137498,-0.143024,0.03184,4.246918,-82.360704,-3.257203
239878,0.131044,-0.100224,0.057982,4.113914,-82.421519,-3.047339
239978,0.117492,-0.084713,0.071962,3.905454,-82.473903,-2.769222
240078,0.101544,-0.086415,0.07837,3.657137,-82.527327,-2.460156
240178,0.083966,-0.101369,0.086817,3.361595,-82.589383,-2.113663
240278,0.066184,-0.112723,0.095886,3.012964,-82.657947,-1.723965
240378,0.055395,-0.10879,0.107425,2.598779,-82.72422,-1.274471
240478,0.06387,-0.080054,0.117181,2.132737,-82.77379,-0.767867
240578,0.099864,-0.030398,0.127192,1.629017,-82.794519,-0.20254
240678,0.155009,0.022215,0.134148,1.117953,-82.784517,0.402027
240778,0.223536,0.073162,0.142233,0.6091,-82.744653,1.043973
240878,0.272172,0.126431,0.151992,0.090752,-82.673509,1.723661
240978,0.286984,0.176911,0.151638,-0.403992,-82.572612,2.388234
241078,0.253642,0.220561,0.147319,-0.880022,-82.445942,3.014835
241178,0.175774,0.263321,0.134406,-1.322455,-82.294193,3.562727
241278,0.069389,0.324804,0.121857,-1.745515,-82.106796,4.029761
241378,-0.029873,0.400105,0.107732,-2.135133,-81.876012,4.40583
241478,-0.075236,0.481784,0.093676,-2.46008,-81.598359,4.69053
241578,-0.067394,0.571201,0.082513,-2.702742,-81.269498,4.896789
241678,-0.015101,0.706671,0.079717,-2.864722,-80.862964,5.051916
241778,0.06652,0.858441,0.083216,-2.952192,-80.369345,5.17913
241878,0.155193,0.931653,0.084784,-2.972302,-79.83376,5.289745
241978,0.220218,0.882379,0.075596,-2.929726,-79.326724,5.374697
242078,0.23165,0.736445,0.068373,-2.879968,-78.903574,5.459145
242178,0.150265,0.548945,0.046889,-2.84126,-78.588562,5.507429
242278,-0.007777,0.372716,0.023082,-2.850506,-78.375323,5.512292
242378,-0.153274,0.186984,-0.021709,-2.844794,-78.269868,5.416764
242478,-0.246376,-0.001186,-0.075146,-2.771357,-78.273748,5.197574
242578,-0.275549,-0.137075,-0.103932,-2.651917,-78.356203,4.914379
242678,-0.203999,-0.232525,-0.112532,-2.475675,-78.493409,4.615159
242778,-0.087564,-0.286465,-0.107411,-2.247279,-78.661161,4.330949
242878,0.035252,-0.283642,-0.093485,-1.980677,-78.826738,4.079692
242978,0.194051,-0.228864,-0.078895,-1.653214,-78.960408,3.859254
243078,0.386525,-0.127621,-0.079741,-1.199277,-79.035812,3.622389
243178,0.534932,-0.002865,-0.082065,-0.643787,-79.0394,3.368718
243278,0.617586,0.090341,-0.075883,-0.058488,-78.989151,3.132897
243378,0.638583,0.099293,-0.073389,0.527008,-78.933408,2.909085
243478,0.57847,0.029507,-0.071516,1.071309,-78.917333,2.692122
243578,0.459998,-0.048893,-0.059773,1.517458,-78.946051,2.506007
243678,0.321034,-0.074992,-0.025331,1.786244,-78.990136,2.419497
243778,0.166718,-0.068695,0.016254,1.844285,-79.031381,2.457613
243878,0.013295,-0.067739,0.035789,1.756381,-79.07248,2.554844
243978,-0.108952,-0.107946,0.009859,1.678562,-79.136179,2.570462
244078,-0.169715,-0.186394,-0.019888,1.661784,-79.244342,2.488493
244178,-0.16648,-0.24676,-0.03465,1.69824,-79.386845,2.354275
244278,-0.117499,-0.264006,-0.041006,1.786735,-79.539084,2.195735
244378,-0.026472,-0.263679,-0.055144,1.975897,-79.690784,1.987953
244478,0.063829,-0.264911,-0.07268,2.279252,-79.842638,1.716805
244578,0.112249,-0.279404,-0.080692,2.647319,-80.002296,1.408242
244678,0.12953,-0.310128,-0.069766,3.005382,-80.179496,1.120044
244778,0.14435,-0.338233,-0.053583,3.33465,-80.372981,0.869835
244878,0.14413,-0.35157,-0.03213,3.604509,-80.574599,0.679881
244978,0.132134,-0.352637,-0.008671,3.79497,-80.777545,0.563533
245078,0.106282,-0.353079,0.011341,3.905279,-80.981442,0.513427
245178,0.05654,-0.356551,0.027466,3.931828,-81.187922,0.519282
245278,-0.006944,-0.363931,0.032849,3.903562,-81.398811,0.543787
245378,-0.048796,-0.381625,0.033669,3.851047,-81.619818,0.568549
245478,-0.062013,-0.398343,0.032375,3.798216,-81.850296,0.58596
245578,-0.059445,-0.395044,0.034457,3.735145,-82.078926,0.615185
245678,-0.044458,-0.362553,0.037116,3.657634,-82.289026,0.667634
245778,-0.030829,-0.299228,0.038332,3.561574,-82.462893,0.746647
245878,-0.022787,-0.217087,0.040216,3.435419,-82.589776,0.860629
245978,-0.007992,-0.158142,0.043755,3.282264,-82.682972,1.01035
246078,-0.003661,-0.129779,0.049145,3.096112,-82.760011,1.195806
246178,-0.005229,-0.129565,0.055201,2.877129,-82.83699,1.413413
246278,-0.013844,-0.1173,0.068061,2.586385,-82.907156,1.698331
246378,-0.008663,-0.094453,0.078582,2.239485,-82.964281,2.042782
246478,0.011644,-0.061838,0.085453,1.861165,-83.002591,2.430576
246578,0.028209,-0.034653,0.084735,1.487852,-83.025,2.822861
246678,0.035443,-0.024378,0.080957,1.132666,-83.041163,3.201042
246778,0.017781,-0.025977,0.067296,0.829703,-83.057835,3.516404
246878,-0.025346,-0.017465,0.047555,0.592972,-83.069298,3.740141
246978,-0.069373,0.024146,0.018333,0.466329,-83.056668,3.827567
247078,-0.083619,0.073404,-0.012612,0.475034,-83.015652,3.77042
247178,-0.073673,0.103401,-0.043484,0.630744,-82.957266,3.570894
247278,-0.034042,0.11662,-0.068907,0.921725,-82.891008,3.257912
247378,0.019156,0.140548,-0.080986,1.28957,-82.81067,2.89813
247478,0.057366,0.204267,-0.084296,1.677332,-82.693459,2.54026
247578,0.053068,0.310796,-0.079387,2.012755,-82.515004,2.232561
247678,-0.005088,0.438193,-0.074563,2.258354,-82.263458,1.981712
247778,-0.123302,0.573285,-0.067821,2.371182,-81.934581,1.796348
247878,-0.240838,0.677039,-0.066411,2.3839,-81.546308,1.643927
247978,-0.303854,0.721105,-0.055048,2.305842,-81.133146,1.546649
248078,-0.293761,0.655157,-0.06471,2.276461,-80.757675,1.405837
248178,-0.293547,0.449447,-0.139184,2.526923,-80.498346,0.981409
248278,-0.335422,0.130599,-0.21398,3.043715,-80.41917,0.262395
248378,-0.336735,-0.198819,-0.22938,3.675216,-80.526869,-0.573647
248478,-0.316234,-0.437641,-0.222585,4.377335,-80.769804,-1.468911
248578,-0.303504,-0.563351,-0.226473,5.186558,-81.082407,-2.464533
248678,-0.297888,-0.540156,-0.230544,6.070831,-81.379162,-3.531998
248778,-0.310264,-0.378791,-0.214153,6.877071,-81.582589,-4.527023
248878,-0.326088,-0.125554,-0.165676,7.396751,-81.643679,-5.241217
248978,-0.34191,0.128683,-0.11938,7.602076,-81.563094,-5.646834
249078,-0.3604,0.295346,-0.091967,7.601434,-81.389823,-5.855028
249178,-0.340375,0.346383,-0.062458,7.474297,-81.189845,-5.923748
249278,-0.313134,0.312505,-0.021343,7.231715,-81.012223,-5.859852
249378,-0.308817,0.207927,0.0081,6.938818,-80.896175,-5.742476
249478,-0.347983,0.047717,0.013197,6.677471,-80.871611,-5.679755
249578,-0.372188,-0.121656,0.00144,6.514155,-80.942704,-5.730358
249678,-0.349569,-0.239347,-0.009974,6.452927,-81.080123,-5.87118
249778,-0.298039,-0.300947,-0.018954,6.482214,-81.252062,-6.07366
249878,-0.240182,-0.327648,-0.024112,6.581163,-81.438825,-6.312973
249978,-0.204688,-0.329567,-0.025171,6.713488,-81.626505,-6.565352
250078,-0.205509,-0.310089,-0.021414,6.830262,-81.803228,-6.802374
250178,-0.233479,-0.275441,-0.014581,6.894193,-81.960611,-7.002108
250278,-0.261151,-0.240842,-0.00836,6.904602,-82.098699,-7.163735
250378,-0.27055,-0.228045,-0.007717,6.903552,-82.229539,-7.319179
250478,-0.256155,-0.241672,-0.014783,6.950671,-82.367627,-7.514858
250578,-0.244375,-0.269314,-0.025225,7.069335,-82.52066,-7.775834
250678,-0.233656,-0.319347,-0.035575,7.276583,-82.701284,-8.119843
250778,-0.226658,-0.364461,-0.04167,7.557277,-82.906874,-8.533692
250878,-0.225133,-0.3832,-0.048646,7.904913,-83.12224,-9.013917
250978,-0.21223,-0.369141,-0.054501,8.305424,-83.328725,-9.539733
251078,-0.1903,-0.326766,-0.052789,8.707289,-83.510851,-10.054057
251178,-0.162164,-0.26236,-0.046307,9.066058,-83.656648,-10.508628
251278,-0.127821,-0.217639,-0.034345,9.363198,-83.777915,-10.881287
251378,-0.091031,-0.189223,-0.020885,9.598427,-83.884166,-11.170394
251478,-0.03446,-0.170901,-0.011599,9.808858,-83.980809,-11.401917
251578,0.029939,-0.171052,6.00E-05,10.000426,-84.078564,-11.577336
251678,0.079892,-0.168566,0.016939,10.131205,-84.176516,-11.662846
251778,0.105542,-0.145238,0.03537,10.153433,-84.263115,-11.624468
251878,0.094603,-0.097882,0.051247,10.031026,-84.324539,-11.447045
251978,0.055522,-0.037612,0.069988,9.716088,-84.353664,-11.098666
252078,0.014747,0.012508,0.09253,9.198137,-84.356279,-10.569774
252178,-0.002719,0.070864,0.121104,8.456182,-84.327733,-9.825831
252278,0.016117,0.134726,0.149724,7.522018,-84.2641,-8.877821
252378,0.065473,0.184345,0.172627,6.477321,-84.17218,-7.790164
252478,0.11384,0.224934,0.184114,5.409763,-84.055763,-6.651466
252578,0.125654,0.251526,0.186631,4.3678,-83.922119,-5.531441
252678,0.09824,0.273828,0.179256,3.389697,-83.773353,-4.491149
252778,0.061444,0.298905,0.164674,2.508053,-83.607968,-3.568805
252878,0.037917,0.334098,0.14899,1.732575,-83.420581,-2.766558
252978,0.030944,0.40646,0.135202,1.058063,-83.190327,-2.069656
253078,0.054734,0.517075,0.13084,0.458898,-82.895669,-1.434544
253178,0.104611,0.645983,0.133395,-0.072863,-82.52632,-0.838111
253278,0.169011,0.739432,0.13713,-0.52689,-82.102726,-0.282335
253378,0.207287,0.766673,0.144678,-0.935795,-81.662926,0.250608
253478,0.161905,0.693863,0.137399,-1.302188,-81.264508,0.714854
253578,0.03628,0.532691,0.106587,-1.60924,-80.958637,1.046641
253678,-0.100996,0.321467,0.064174,-1.848624,-80.774466,1.230468
253778,-0.190419,0.118928,0.032231,-2.044551,-80.707004,1.318429
253878,-0.223829,-0.016662,0.018653,-2.228312,-80.717565,1.374677
253978,-0.244184,-0.099779,0.022605,-2.450196,-80.775692,1.45773
254078,-0.224279,-0.205419,0.036863,-2.730868,-80.893942,1.611862
254178,-0.146864,-0.353494,0.049544,-3.046905,-81.096481,1.846635
254278,-0.037568,-0.480626,0.041536,-3.31016,-81.371839,2.091204
254378,0.096609,-0.560418,0.009853,-3.407569,-81.693784,2.245622
254478,0.251745,-0.559328,-0.026269,-3.277281,-82.016309,2.25968
254578,0.413268,-0.478385,-0.038076,-2.979319,-82.292904,2.197884
254678,0.562912,-0.375714,-0.043875,-2.534675,-82.510868,2.074636
254778,0.64372,-0.274328,-0.045985,-1.999922,-82.670733,1.907261
254878,0.635784,-0.172598,-0.037756,-1.478801,-82.772037,1.749091
254978,0.550966,-0.092848,-0.0335,-1.009601,-82.82747,1.594301
255078,0.4041,-0.038565,-0.017197,-0.691791,-82.851556,1.507292
255178,0.255184,0.006858,0.019608,-0.624608,-82.849348,1.586886
255278,0.142564,0.06587,0.068805,-0.842577,-82.812958,1.888845
255378,0.07296,0.155822,0.099964,-1.229709,-82.724525,2.321164
255478,0.017762,0.22662,0.0971,-1.616875,-82.595263,2.721737
255578,-0.038398,0.204873,0.061602,-1.871851,-82.478873,2.956654
255678,-0.058259,0.083575,0.036609,-2.042419,-82.432408,3.094993
255778,-0.032032,-0.036942,0.023773,-2.160702,-82.455239,3.195754
255878,0.006885,-0.095829,-0.002671,-2.152368,-82.512369,3.191281
255978,0.062576,-0.123354,-0.027356,-2.007872,-82.585754,3.081667
256078,0.120175,-0.1523,-0.050809,-1.727412,-82.676046,2.868252
256178,0.163321,-0.176797,-0.076578,-1.302295,-82.78051,2.533971
256278,0.181194,-0.192053,-0.093349,-0.779892,-82.893458,2.112039
256378,0.173137,-0.190041,-0.090311,-0.261233,-83.00469,1.689327
256478,0.158694,-0.184215,-0.074788,0.190391,-83.112088,1.325907
256578,0.149215,-0.178414,-0.059525,0.57552,-83.21586,1.024066
256678,0.147562,-0.167441,-0.052723,0.936169,-83.313129,0.745984
256778,0.14625,-0.165202,-0.048517,1.284276,-83.408932,0.479827
256878,0.133186,-0.173757,-0.039342,1.588737,-83.509565,0.250117
256978,0.125259,-0.173654,-0.027762,1.837542,-83.610173,0.07189
257078,0.111763,-0.163583,-0.019213,2.038796,-83.705054,-0.066242
257178,0.093702,-0.154914,-0.017099,2.221475,-83.794915,-0.196075
257278,0.070376,-0.151146,-0.019904,2.408875,-83.882449,-0.344082
257378,0.043907,-0.145388,-0.023042,2.600836,-83.966483,-0.511907
257478,0.025341,-0.134355,-0.020746,2.771042,-84.04412,-0.668532
257578,0.008898,-0.111799,-0.018618,2.917381,-84.108763,-0.810618
257678,-0.003783,-0.079793,-0.017264,3.042141,-84.154994,-0.938307
257778,-0.008465,-0.049329,-0.019129,3.166997,-84.183609,-1.068783
257878,-0.019059,-0.021612,-0.028707,3.331861,-84.195922,-1.245576
257978,-0.029729,0.005358,-0.040968,3.550956,-84.192236,-1.483028
258078,-0.032011,0.030661,-0.04837,3.800449,-84.173631,-1.752357
258178,-0.016232,0.058296,-0.051823,4.065323,-84.138909,-2.028075
258278,0.007948,0.087917,-0.055257,4.346972,-84.086928,-2.306753
258378,0.030028,0.11247,-0.0584,4.642187,-84.020589,-2.586383
258478,0.029211,0.13032,-0.066916,4.967738,-83.943452,-2.897027
258578,0.012926,0.124535,-0.075703,5.325078,-83.868954,-3.24907
258678,0.003936,0.08345,-0.08291,5.727611,-83.817247,-3.651791
258778,0.022115,0.039357,-0.089442,6.191991,-83.789972,-4.106274
258878,0.095861,0.061175,-0.093192,6.699519,-83.74962,-4.561688
258978,0.192944,0.154798,-0.093681,7.196811,-83.65553,-4.950904
259078,0.248369,0.287753,-0.085763,7.583049,-83.486082,-5.196513
259178,0.226196,0.44506,-0.073738,7.777983,-83.227943,-5.262433
259278,0.125624,0.619562,-0.061275,7.740012,-82.871474,-5.151835
259378,-0.037214,0.781107,-0.066047,7.546187,-82.42264,-4.978086
259478,-0.203756,0.939898,-0.098493,7.328785,-81.880904,-4.876675
259578,-0.294311,1.069183,-0.135304,7.158201,-81.262871,-4.874902
259678,-0.279346,1.119077,-0.162192,7.079455,-80.614615,-4.957433
259778,-0.18925,1.063177,-0.168217,7.092892,-79.997973,-5.081248
259878,-0.067577,0.857858,-0.193869,7.324288,-79.496573,-5.355903
259978,0.033533,0.508813,-0.190891,7.718528,-79.193896,-5.737648
260078,0.120238,0.117421,-0.165061,8.228942,-79.115243,-6.187319
260178,0.152895,-0.198128,-0.141303,8.824549,-79.216881,-6.70464
260278,0.168538,-0.414456,-0.122628,9.492218,-79.44166,-7.285866
260378,0.157686,-0.522466,-0.121087,10.236716,-79.726246,-7.951033
260478,0.062516,-0.508543,-0.132452,10.994351,-80.000115,-8.684336
260578,-0.101845,-0.348525,-0.122652,11.559537,-80.183523,-9.317355
260678,-0.276838,-0.089049,-0.096859,11.781795,-80.223464,-9.7039
260778,-0.391924,0.146563,-0.08609,11.744374,-80.132384,-9.893842
260878,-0.397648,0.255374,-0.082685,11.619728,-79.980801,-9.998613
260978,-0.323899,0.231124,-0.063372,11.492669,-79.845297,-10.058042
261078,-0.231422,0.142116,-0.047956,11.42736,-79.761801,-10.126381
261178,-0.141449,0.035912,-0.031761,11.429542,-79.74005,-10.210919
261278,-0.094697,-0.072256,-0.01356,11.469605,-79.78135,-10.30672
261378,-0.087463,-0.165637,0.004523,11.51709,-79.877337,-10.405822
261478,-0.070761,-0.231724,0.017062,11.578602,-80.011996,-10.509411
261578,-0.021173,-0.267558,0.034004,11.639998,-80.168793,-10.58399
261678,0.019023,-0.287983,0.048806,11.69208,-80.33878,-10.625712
261778,0.005951,-0.280151,0.063747,11.682985,-80.506089,-10.612965
261878,-0.048758,-0.251458,0.070296,11.599794,-80.658008,-10.55689
261978,-0.133081,-0.225821,0.070277,11.448142,-80.795466,-10.480422
262078,-0.204103,-0.19523,0.066731,11.243582,-80.915255,-10.391609
262178,-0.236772,-0.161747,0.05805,11.024374,-81.015169,-10.306943
262278,-0.228229,-0.132561,0.056748,10.79166,-81.098451,-10.203669
262378,-0.194452,-0.122849,0.053485,10.580728,-81.175854,-10.102877
262478,-0.15409,-0.131793,0.047197,10.419511,-81.257599,-10.029012
262578,-0.118456,-0.158569,0.040664,10.318966,-81.353752,-9.995886
262678,-0.089254,-0.194933,0.037376,10.27094,-81.470084,-9.998964
262778,-0.063142,-0.22477,0.036118,10.262943,-81.603119,-10.027383
262878,-0.044796,-0.239738,0.035665,10.278401,-81.744538,-10.068875
262978,-0.022151,-0.247444,0.03168,10.329532,-81.889859,-10.133287
263078,0.001982,-0.242514,0.024865,10.42085,-82.031627,-10.224299
263178,0.035026,-0.225236,0.019723,10.542804,-82.163017,-10.327103
263278,0.060589,-0.184424,0.018376,10.657383,-82.271153,-10.407656
263378,0.062978,-0.133612,0.022908,10.716988,-82.351051,-10.431342
263478,0.053207,-0.102184,0.027931,10.725734,-82.413709,-10.409367
263578,0.04116,-0.097926,0.031515,10.709096,-82.47428,-10.368754
263678,0.0309,-0.099595,0.0382,10.659068,-82.536423,-10.300403
263778,0.030347,-0.089964,0.050835,10.545459,-82.594382,-10.168267
263878,0.047295,-0.057741,0.070921,10.326383,-82.636137,-9.920011
263978,0.085361,-0.020802,0.094678,9.993713,-82.659237,-9.535253
264078,0.116362,-0.001363,0.116216,9.567444,-82.673075,-9.038236
264178,0.139903,-0.000191,0.129832,9.092028,-82.686968,-8.478091
264278,0.160987,-0.006188,0.146421,8.557233,-82.70503,-7.845928
264378,0.186621,0.012385,0.165842,7.936501,-82.713291,-7.112346
264478,0.20813,0.053253,0.187632,7.206862,-82.698829,-6.256545
264578,0.218571,0.102268,0.203926,6.390157,-82.656077,-5.306881
264678,0.231999,0.126116,0.208505,5.561385,-82.598234,-4.337187
264778,0.226328,0.126901,0.202811,4.768171,-82.537843,-3.406504
264878,0.187778,0.139926,0.19461,3.99877,-82.467948,-2.521983
264978,0.13328,0.212458,0.191129,3.211692,-82.354803,-1.650945
265078,0.086607,0.314957,0.195168,2.388174,-82.181409,-0.769831
265178,0.065819,0.411174,0.197191,1.57172,-81.951179,0.092553
265278,0.082634,0.490225,0.199097,0.800406,-81.673948,0.919607
265378,0.137499,0.542739,0.201038,0.104405,-81.365032,1.702921
265478,0.226874,0.577477,0.207532,-0.512319,-81.034768,2.458498
265578,0.331762,0.639517,0.227411,-1.086294,-80.667489,3.232375
265678,0.438996,0.740211,0.252025,-1.621217,-80.240923,4.029839
265778,0.533432,0.816824,0.249802,-2.031081,-79.76939,4.756342
265878,0.547257,0.861444,0.225357,-2.303237,-79.272106,5.351976
265978,0.456128,0.813587,0.199669,-2.520195,-78.802488,5.839171
266078,0.279882,0.664368,0.153494,-2.699689,-78.419371,6.185877
266178,0.047892,0.4768,0.106535,-2.891855,-78.144972,6.410204
266278,-0.113333,0.25642,0.063176,-3.081515,-77.998086,6.537747
266378,-0.19201,0.057656,0.028061,-3.248026,-77.966181,6.595593
266478,-0.211427,-0.135763,0.021688,-3.438532,-78.045323,6.666598
266578,-0.166886,-0.403083,0.03322,-3.68303,-78.277109,6.818798
266678,-0.063547,-0.708306,0.032633,-3.933408,-78.683472,7.037235
266778,0.113426,-0.927994,0.013582,-4.089288,-79.21611,7.262321
266878,0.336129,-0.960851,0.008048,-4.125412,-79.767703,7.494952
266978,0.556384,-0.845502,0.059836,-4.192374,-80.251167,7.886629
267078,0.697428,-0.67027,0.10212,-4.301395,-80.632576,8.402378
267178,0.745209,-0.45862,0.134671,-4.465043,-80.891413,9.000713
267278,0.71272,-0.246952,0.157811,-4.688983,-81.02794,9.640909
267378,0.609607,-0.080892,0.158936,-4.935764,-81.069151,10.244254
267478,0.449968,0.020315,0.142683,-5.184617,-81.052992,10.75708
267578,0.28746,0.090804,0.127686,-5.44609,-80.997058,11.188469
267678,0.157932,0.161898,0.119573,-5.722264,-80.900743,11.559685
267778,0.051176,0.227788,0.108072,-5.987194,-80.767326,11.857677
267878,-0.041515,0.240965,0.071491,-6.165277,-80.628547,12.013967
267978,-0.093149,0.131106,0.019128,-6.230318,-80.555671,12.025739
268078,-0.066634,-0.066035,-0.011082,-6.250253,-80.597089,12.007191
268178,-0.026267,-0.212146,-0.016576,-6.283697,-80.722152,12.025776
268278,-0.010711,-0.264796,-0.030919,-6.278691,-80.878128,12.014432
268378,-0.016702,-0.279,-0.050728,-6.210847,-81.043423,11.93599
268478,-0.027381,-0.293713,-0.065514,-6.09759,-81.217959,11.805431
268578,-0.041622,-0.310426,-0.074285,-5.961088,-81.402459,11.643165
268678,-0.049365,-0.319222,-0.070288,-5.841445,-81.59163,11.493539
268778,-0.056695,-0.31477,-0.054303,-5.781371,-81.777246,11.399942
268878,-0.067725,-0.296136,-0.031025,-5.81071,-81.950833,11.390322
268978,-0.089419,-0.282649,-0.022623,-5.882119,-82.116198,11.410632
269078,-0.113218,-0.290686,-0.022564,-5.973139,-82.286104,11.436962
269178,-0.120451,-0.317514,-0.030765,-6.047956,-82.471762,11.442753
269278,-0.1192,-0.348019,-0.04116,-6.092615,-82.675404,11.41885
269378,-0.116846,-0.368091,-0.048355,-6.113712,-82.890885,11.372566
269478,-0.118175,-0.35944,-0.046005,-6.141891,-83.101246,11.332669
269578,-0.118093,-0.333587,-0.034627,-6.211846,-83.296119,11.334908
269678,-0.103685,-0.30133,-0.019133,-6.335698,-83.471577,11.399711
269778,-0.090364,-0.266789,-0.007628,-6.496389,-83.626543,11.509247
269878,-0.085509,-0.236731,-0.001112,-6.677265,-83.763861,11.641856
269978,-0.090506,-0.195868,0.001659,-6.857264,-83.877613,11.77067
270078,-0.1043,-0.15129,0.00344,-7.031527,-83.965755,11.885741
270178,-0.117834,-0.1052,0.005717,-7.199047,-84.027405,11.986218
270278,-0.128072,-0.064623,0.007492,-7.356731,-84.065743,12.070895
270378,-0.13796,-0.027033,0.007838,-7.496877,-84.082591,12.132239
270478,-0.131776,-0.017881,0.011431,-7.647495,-84.093877,12.207671
270578,-0.106184,-0.017821,0.017832,-7.819483,-84.104542,12.319325
270678,-0.067964,-0.038119,0.019689,-7.996369,-84.126488,12.457912
270778,-0.028546,-0.066005,0.017095,-8.15988,-84.164363,12.605749
270878,0.019152,-0.07354,0.004281,-8.232811,-84.207469,12.689996
270978,0.070106,-0.050489,-0.013023,-8.161769,-84.238861,12.658874
271078,0.117128,-0.020992,-0.029173,-7.948791,-84.254757,12.512175
271178,0.174035,0.002106,-0.047961,-7.578836,-84.258867,12.24048
271278,0.254358,0.015779,-0.064888,-7.057601,-84.256179,11.862996
271378,0.343181,0.042241,-0.072645,-6.425703,-84.238527,11.425433
271478,0.39255,0.106364,-0.074393,-5.722727,-84.183876,10.944829
271578,0.374173,0.194676,-0.079028,-4.972222,-84.078407,10.405791
271678,0.279859,0.27093,-0.091174,-4.201005,-83.929115,9.791464
271778,0.145713,0.314447,-0.113864,-3.405501,-83.754806,9.075213
271878,0.00959,0.344285,-0.141361,-2.580349,-83.563021,8.2504
271978,-0.112104,0.391699,-0.177844,-1.684156,-83.343364,7.283558
272078,-0.185332,0.461915,-0.213204,-0.716104,-83.082021,6.201618
272178,-0.202087,0.505411,-0.242253,0.299316,-82.793562,5.061644
272278,-0.168363,0.523633,-0.246238,1.266387,-82.492222,3.989157
272378,-0.119732,0.51718,-0.219073,2.069353,-82.192994,3.109624
272478,-0.063615,0.449263,-0.185223,2.718127,-81.932137,2.417652
272578,0.004237,0.289181,-0.154507,3.278056,-81.763035,1.85434
272678,0.056229,0.091037,-0.12944,3.79768,-81.707644,1.361704
272778,0.093422,-0.096027,-0.101079,4.27488,-81.759912,0.933476
272878,0.107319,-0.22574,-0.087981,4.756167,-81.886491,0.509268
272978,0.09621,-0.298092,-0.087186,5.269403,-82.053949,0.046531
273078,0.053192,-0.358138,-0.106486,5.885767,-82.253923,-0.544975
273178,-0.024283,-0.397374,-0.141126,6.658645,-82.473011,-1.338882
273278,-0.145463,-0.348809,-0.1544,7.439464,-82.66198,-2.210441
273378,-0.26959,-0.180982,-0.10677,7.871413,-82.75796,-2.801707
273478,-0.364636,0.006989,-0.060563,7.934125,-82.750522,-3.075601
273578,-0.387892,0.110078,-0.017356,7.728163,-82.688025,-3.092087
273678,-0.336496,0.114942,0.015814,7.405295,-82.625391,-2.961002
273778,-0.230872,0.055149,0.038334,7.081294,-82.598425,-2.767729
273878,-0.094844,-0.01006,0.050568,6.817614,-82.609406,-2.556681
273978,0.018947,-0.052235,0.053228,6.627905,-82.644568,-2.354487
274078,0.091516,-0.07128,0.056168,6.473916,-82.690775,-2.146403
274178,0.117681,-0.077577,0.066592,6.288558,-82.741239,-1.891602
274278,0.106125,-0.109971,0.083199,6.033599,-82.811135,-1.573349
274378,0.086312,-0.181835,0.092451,5.75213,-82.922409,-1.239882
274478,0.074142,-0.251647,0.101041,5.444781,-83.073792,-0.88746
274578,0.037234,-0.290379,0.102722,5.110291,-83.247116,-0.529121
274678,-0.028765,-0.304637,0.101236,4.733145,-83.428202,-0.166042
274778,-0.116957,-0.295068,0.090654,4.334853,-83.60299,0.16733
274878,-0.193032,-0.2556,0.077708,3.926104,-83.754338,0.467257
274978,-0.242132,-0.1884,0.068968,3.496402,-83.866613,0.759882
275078,-0.259218,-0.125581,0.065477,3.044316,-83.942541,1.065117
275178,-0.250038,-0.101606,0.05844,2.620588,-84.004276,1.347085
275278,-0.229085,-0.123856,0.049682,2.255072,-84.078324,1.582559
275378,-0.211497,-0.169816,0.035976,1.978059,-84.178254,1.739155
275478,-0.200749,-0.217562,0.026176,1.764611,-84.30526,1.838019
275578,-0.195888,-0.245107,0.013489,1.6265,-84.447775,1.863956
275678,-0.194929,-0.244972,-0.000903,1.572123,-84.589954,1.806318
275778,-0.18437,-0.220209,-0.018275,1.627967,-84.717643,1.644062
275878,-0.159016,-0.185582,-0.034207,1.798671,-84.825166,1.381084
275978,-0.1274,-0.153719,-0.043927,2.052797,-84.914133,1.052573
276078,-0.100963,-0.147484,-0.044721,2.336599,-84.999344,0.709518
276178,-0.077316,-0.162568,-0.035565,2.588958,-85.093241,0.411668
276278,-0.045262,-0.182981,-0.022257,2.787213,-85.199041,0.186591
276378,-0.001723,-0.187135,-0.00944,2.932616,-85.307492,0.039612
276478,0.03816,-0.167971,0.00636,2.988316,-85.405391,0.005577
276578,0.047119,-0.135282,0.021859,2.926407,-85.48502,0.094673
276678,0.034518,-0.100961,0.038122,2.72273,-85.545427,0.31872
276778,0.012764,-0.075271,0.050436,2.401201,-85.591337,0.648451
276878,0.004782,-0.064779,0.061438,1.983341,-85.631279,1.070187
276978,0.001753,-0.054358,0.071511,1.478234,-85.665119,1.577656
277078,0.003363,-0.036553,0.077656,0.917696,-85.688418,2.141616
277178,0.006779,0.001172,0.079492,0.337953,-85.689626,2.726783
277278,0.01472,0.052501,0.080303,-0.241405,-85.660908,3.316133
277378,0.034004,0.119367,0.083721,-0.819871,-85.593346,3.915701
277478,0.06621,0.192597,0.093984,-1.423349,-85.483192,4.558937
277578,0.082567,0.274069,0.098448,-1.998531,-85.325742,5.183304
277678,0.081741,0.353225,0.09039,-2.456669,-85.122656,5.689904
277778,0.072815,0.415743,0.07346,-2.752075,-84.883888,6.028184
277878,0.053407,0.464673,0.057352,-2.915692,-84.617371,6.223087
277978,0.031422,0.512306,0.042617,-2.974183,-84.32389,6.299807
278078,0.01339,0.589633,0.037706,-2.986082,-83.986183,6.319351
278178,1.10E-05,0.701139,0.035537,-2.961844,-83.58462,6.294849
278278,0.00096,0.830092,0.029748,-2.880264,-83.10935,6.213152
278378,0.028861,0.933905,0.015151,-2.706784,-82.575021,6.054873
278478,0.068931,0.986195,0.008539,-2.496598,-82.010894,5.88254
278578,0.075066,0.942393,0.002748,-2.292717,-81.472006,5.719917
278678,0.03375,0.776853,-0.011735,-2.103391,-81.028317,5.547882
278778,-0.057564,0.549319,-0.055803,-1.855082,-80.715931,5.262958
278878,-0.194339,0.322346,-0.107063,-1.547504,-80.534433,4.838351
278978,-0.309973,0.133652,-0.141589,-1.215423,-80.461305,4.321579
279078,-0.370733,-0.004103,-0.141377,-0.931926,-80.466775,3.818729
279178,-0.384237,-0.10745,-0.117531,-0.741088,-80.531013,3.402035
279278,-0.334218,-0.197133,-0.090577,-0.613513,-80.646322,3.078627
279378,-0.218395,-0.271318,-0.07315,-0.477011,-80.803955,2.813538
279478,-0.049147,-0.31589,-0.068514,-0.253358,-80.986987,2.558516
279578,0.12703,-0.295694,-0.078596,0.118912,-81.158242,2.255355
279678,0.265171,-0.220019,-0.093406,0.636832,-81.285716,1.885022
279778,0.377587,-0.129123,-0.09989,1.249944,-81.360526,1.483647
279878,0.461312,-0.078601,-0.103711,1.927938,-81.405728,1.065233
279978,0.496082,-0.081832,-0.110485,2.657304,-81.451961,0.615063
280078,0.483825,-0.08543,-0.116307,3.408287,-81.499321,0.135993
280178,0.419574,-0.047829,-0.112164,4.102392,-81.524547,-0.322743
280278,0.307624,0.012657,-0.089923,4.630986,-81.515552,-0.678979
280378,0.148979,0.080904,-0.047024,4.8812,-81.46934,-0.845668
280478,-0.000644,0.161705,-0.001783,4.846112,-81.379207,-0.810555
280578,-0.090961,0.23957,0.040386,4.57943,-81.246641,-0.593495
280678,-0.15863,0.282535,0.054997,4.216225,-81.090061,-0.317904
280778,-0.213491,0.261118,0.025903,3.942468,-80.944381,-0.164576
280878,-0.226854,0.161457,-0.011146,3.822592,-80.854233,-0.17479
280978,-0.186149,0.056459,-0.034163,3.833066,-80.823279,-0.293412
281078,-0.109162,-0.027091,-0.049849,3.963117,-80.839465,-0.488477
281178,-0.021191,-0.103224,-0.066113,4.22203,-80.89838,-0.762986
281278,0.049029,-0.163013,-0.07963,4.590575,-80.990583,-1.107711
281378,0.087876,-0.203171,-0.086886,5.028084,-81.104938,-1.499622
281478,0.102364,-0.221318,-0.083854,5.479856,-81.229281,-1.89744
281578,0.11201,-0.231335,-0.075595,5.922125,-81.359276,-2.279921
281678,0.112896,-0.219534,-0.062798,6.323594,-81.482856,-2.620501
281778,0.108067,-0.185732,-0.053127,6.680404,-81.587449,-2.918629
281878,0.090955,-0.149293,-0.04627,6.991248,-81.671505,-3.180136
281978,0.073898,-0.127754,-0.041304,7.267555,-81.743468,-3.416567
282078,0.057954,-0.121923,-0.036585,7.517188,-81.812305,-3.635238
282178,0.042761,-0.138187,-0.029878,7.743809,-81.890759,-3.839415
282278,0.022363,-0.171283,-0.025145,7.962077,-81.988245,-4.046918
282378,-0.009464,-0.209116,-0.02114,8.172627,-82.107379,-4.264989
282478,-0.035473,-0.240295,-0.014843,8.367125,-82.244558,-4.481836
282578,-0.047134,-0.260691,-0.004826,8.532285,-82.393986,-4.675753
282678,-0.050649,-0.25424,0.007595,8.644073,-82.54069,-4.817804
282778,-0.041738,-0.229354,0.015095,8.715674,-82.673845,-4.914143
282878,-0.02832,-0.202745,0.020832,8.753603,-82.792338,-4.968767
282978,-0.017546,-0.173899,0.023925,8.764589,-82.894686,-4.990006
283078,-0.018895,-0.145395,0.01961,8.774533,-82.980445,-5.010975
283178,-0.032611,-0.130021,0.012744,8.79749,-83.056829,-5.052973
283278,-0.02801,-0.134675,0.005195,8.862385,-83.135115,-5.134556
283378,-0.02136,-0.153318,-0.004644,8.993274,-83.222999,-5.278757
283478,-0.009395,-0.181339,-0.013787,9.200274,-83.325797,-5.492668
283578,0.008396,-0.210447,-0.018036,9.468367,-83.444498,-5.757774
283678,0.030709,-0.238145,-0.019542,9.790176,-83.578489,-6.064011
283778,0.050876,-0.258144,-0.016892,10.141281,-83.723769,-6.388018
283878,0.078712,-0.263677,-0.013503,10.5116,-83.872235,-6.71522
283978,0.108231,-0.253504,-0.01036,10.888474,-84.015021,-7.031919
284078,0.138986,-0.24157,-0.011361,11.292044,-84.150711,-7.357661
284178,0.17759,-0.230989,-0.016459,11.751012,-84.279578,-7.716779
284278,0.215214,-0.202776,-0.024202,12.259344,-84.391365,-8.103764
284378,0.254814,-0.140246,-0.028741,12.752663,-84.467235,-8.452806
284478,0.276457,-0.04868,-0.035007,13.181543,-84.490841,-8.724625
284578,0.273591,0.053871,-0.037798,13.485505,-84.456641,-8.8726
284678,0.236986,0.134748,-0.040801,13.67082,-84.376782,-8.92246
284778,0.164319,0.17758,-0.063055,13.876426,-84.269834,-9.034572
284878,0.062026,0.210494,-0.108313,14.218644,-84.138002,-9.34295
284978,-0.070166,0.298579,-0.152686,14.585161,-83.950505,-9.752017
285078,-0.128963,0.414498,-0.202496,14.990359,-83.690966,-10.234066
285178,-0.173543,0.539159,-0.245627,15.377748,-83.355452,-10.724192
285278,-0.177497,0.633065,-0.274537,15.731547,-82.963166,-11.183146
285378,-0.141261,0.688554,-0.267702,15.966323,-82.541038,-11.501601
285478,-0.074572,0.699221,-0.206145,15.951052,-82.122724,-11.529506
285578,0.045752,0.5967,-0.118305,15.778774,-81.77489,-11.329233
285678,0.230864,0.374359,-0.055534,15.722924,-81.55972,-11.139278
285778,0.338487,0.149433,-0.0084,15.791576,-81.4763,-11.012764
285878,0.338286,-0.023887,0.00821,15.979517,-81.491348,-11.006954
285978,0.300035,-0.144192,-0.01336,16.354848,-81.569356,-11.212742
286078,0.270751,-0.223773,-0.051202,16.950755,-81.684655,-11.658378
286178,0.213972,-0.28828,-0.073004,17.689494,-81.830746,-12.281055
286278,0.106946,-0.335692,-0.078422,18.473624,-82.000423,-13.011265
286378,-0.039887,-0.323324,-0.081241,19.200229,-82.161389,-13.768043
286478,-0.187348,-0.228199,-0.068592,19.68605,-82.272154,-14.366828
286578,-0.274698,-0.088469,-0.036819,19.806373,-82.313226,-14.647179
286678,-0.302142,0.028572,0.000575,19.595323,-82.298419,-14.609001
286778,-0.316333,0.102455,0.033445,19.143184,-82.249954,-14.335721
286878,-0.308679,0.132261,0.056578,18.568965,-82.189395,-13.934755
286978,-0.276631,0.126013,0.066817,17.988736,-82.133671,-13.509118
287078,-0.225844,0.103453,0.062891,17.488382,-82.089185,-13.134678
287178,-0.158064,0.084622,0.045907,17.121216,-82.051868,-12.855452
287278,-0.081925,0.071981,0.033256,16.865178,-82.019283,-12.644353
287378,-0.025913,0.071476,0.030245,16.655487,-81.986465,-12.447625
287478,-0.009575,0.084213,0.040043,16.40423,-81.948221,-12.199442
287578,-0.041171,0.101282,0.053616,16.065847,-81.902647,-11.881514
287678,-0.087743,0.087336,0.065599,15.673727,-81.866397,-11.536223
287778,-0.131481,0.059356,0.078251,15.240894,-81.847194,-11.175094
287878,-0.17691,0.037617,0.094417,14.743997,-81.841986,-10.775532
287978,-0.218773,0.03501,0.104108,14.188961,-81.839052,-10.341466
288078,-0.261038,0.050941,0.111521,13.566475,-81.827603,-9.863719
288178,-0.29956,0.055764,0.120267,12.885367,-81.813799,-9.349035
288278,-0.327876,0.056066,0.124381,12.173974,-81.799404,-8.820131
288378,-0.34373,0.066752,0.134015,11.40993,-81.779133,-8.247188
288478,-0.346742,0.085791,0.145459,10.589223,-81.748246,-7.618703
288578,-0.339321,0.096106,0.15779,9.72371,-81.711447,-6.940592
288678,-0.316842,0.08383,0.169203,8.841542,-81.681153,-6.232577
288778,-0.274399,0.054191,0.172316,7.994027,-81.666375,-5.534968
288878,-0.226671,0.014164,0.161624,7.238268,-81.672098,-4.902446
288978,-0.181727,-0.023786,0.143217,6.596515,-81.697,-4.359145
289078,-0.139647,-0.049704,0.124919,6.058144,-81.734667,-3.895996
289178,-0.114994,-0.055425,0.111591,5.584356,-81.774194,-3.483881
289278,-0.112605,-0.047065,0.106034,5.12689,-81.808132,-3.086915
289378,-0.117875,-0.030347,0.109315,4.644493,-81.832178,-2.667844
289478,-0.122216,-0.020138,0.118935,4.115721,-81.850242,-2.204463
289578,-0.117552,-0.019289,0.139738,3.504113,-81.867909,-1.654726
289678,-0.104141,-0.018333,0.160104,2.815985,-81.884734,-1.019959
289778,-0.089456,-0.016705,0.175747,2.0707,-81.899826,-0.318989
289878,-0.079464,-0.017941,0.186607,1.285246,-81.914424,0.428307
289978,-0.078129,-0.021249,0.194829,0.465248,-81.929452,1.211236
290078,-0.073415,-0.017625,0.193428,-0.348667,-81.940764,1.99072
290178,-0.053934,0.006417,0.189882,-1.136769,-81.936731,2.755397
290278,-0.025475,0.04097,0.184273,-1.880026,-81.911495,3.491273
290378,-0.004276,0.076004,0.183805,-2.597875,-81.86484,4.213818
290478,0.010534,0.100381,0.185454,-3.299765,-81.802881,4.928909
290578,0.030626,0.106316,0.198373,-4.028655,-81.735746,5.683026
290678,0.069984,0.10301,0.212414,-4.778879,-81.668442,6.481619
290778,0.109256,0.089881,0.226575,-5.553812,-81.606309,7.328059
290878,0.133921,0.06555,0.240162,-6.36503,-81.555458,8.225587
290978,0.13529,0.048939,0.245291,-7.192424,-81.511752,9.140371
291078,0.109108,0.052771,0.248448,-8.035264,-81.46358,10.055712
291178,0.053219,0.082705,0.24226,-8.858793,-81.396906,10.919277
