SampleTimeFine,Roll,Pitch,Yaw
108178,-12.578278,-84.213164,12.516202
108278,-12.612152,-84.268721,12.585861
108378,-12.648514,-84.319671,12.651372
108478,-12.689971,-84.369701,12.713181
108578,-12.727436,-84.419773,12.768486
108678,-12.786191,-84.468239,12.84174
108778,-12.87592,-84.510352,12.938895
108878,-12.980584,-84.538357,13.047079
108978,-13.144657,-84.554308,13.213359
109078,-13.32651,-84.558287,13.396227
109178,-13.525018,-84.553943,13.587558
109278,-13.739336,-84.547911,13.777772
109378,-13.953928,-84.540422,13.953093
109478,-14.169516,-84.530413,14.115334
109578,-14.369109,-84.517055,14.243854
109678,-14.561477,-84.502338,14.352593
109778,-14.755408,-84.487685,14.456657
109878,-14.93651,-84.480105,14.556088
109978,-15.090737,-84.480331,14.6446
110078,-15.185111,-84.484983,14.691469
110178,-15.196281,-84.481508,14.673036
110278,-15.116244,-84.456241,14.57132
110378,-14.972891,-84.409451,14.401788
110478,-14.840524,-84.35179,14.233154
110578,-14.774939,-84.28978,14.12581
110678,-14.782346,-84.229211,14.092069
110778,-14.828181,-84.173188,14.098797
110878,-14.852984,-84.122938,14.08992
110978,-14.802348,-84.070389,14.017807
111078,-14.646537,-84.006385,13.853354
111178,-14.384061,-83.920336,13.587054
111278,-14.070507,-83.813632,13.26586
111378,-13.712255,-83.695416,12.889436
111478,-13.396704,-83.575339,12.544706
111578,-13.135725,-83.455586,12.246238
111678,-12.907129,-83.33701,11.97841
111778,-12.699817,-83.215703,11.732979
111878,-12.506736,-83.085875,11.503046
111978,-12.275201,-82.940417,11.230503
112078,-11.981697,-82.775591,10.891247
112178,-11.683532,-82.596621,10.537739
112278,-11.399805,-82.412079,10.188499
112378,-11.178254,-82.230551,9.896685
112478,-11.042114,-82.052629,9.694082
112578,-10.995728,-81.888177,9.590853
112678,-11.01568,-81.739043,9.551151
112778,-11.070417,-81.602665,9.563597
112878,-11.157186,-81.483522,9.618793
112978,-11.270741,-81.381211,9.702011
113078,-11.408742,-81.296215,9.814428
113178,-11.576981,-81.219322,9.96533
113278,-11.755296,-81.139519,10.130626
113378,-11.949185,-81.058634,10.317833
113478,-12.180541,-80.98183,10.54782
113578,-12.458361,-80.918349,10.825024
113678,-12.777866,-80.874858,11.141721
113778,-13.134428,-80.858979,11.495647
113878,-13.512875,-80.871652,11.874288
113978,-13.892816,-80.903578,12.259898
114078,-14.244477,-80.945769,12.622004
114178,-14.561093,-80.991836,12.949647
114278,-14.848583,-81.038807,13.245055
114378,-15.121362,-81.08837,13.521812
114478,-15.422958,-81.147134,13.820159
114578,-15.759336,-81.211665,14.143511
114678,-16.127216,-81.280013,14.493331
114778,-16.523296,-81.357165,14.864378
114878,-16.924398,-81.439692,15.231538
114978,-17.323095,-81.530241,15.5948
115078,-17.701964,-81.622102,15.941577
115178,-18.036616,-81.700974,16.2538
115278,-18.323538,-81.761819,16.535854
115378,-18.568297,-81.808367,16.802414
115478,-18.836569,-81.856371,17.122296
115578,-19.190921,-81.923147,17.554143
115678,-19.674993,-82.017656,18.140322
115778,-20.308714,-82.141113,18.897585
115878,-21.064806,-82.28155,19.791064
115978,-21.881435,-82.416302,20.748676
116078,-22.631636,-82.51375,21.635168
116178,-23.241347,-82.564845,22.369755
116278,-23.710223,-82.581179,22.945156
116378,-24.096092,-82.582217,23.416779
116478,-24.426583,-82.582377,23.815135
116578,-24.721775,-82.586137,24.163826
116678,-24.98707,-82.597869,24.472729
116778,-25.228526,-82.617085,24.750998
116878,-25.433919,-82.645031,24.991547
116978,-25.588758,-82.678235,25.18462
117078,-25.697404,-82.715781,25.336252
117178,-25.755412,-82.75584,25.438803
117278,-25.787295,-82.802473,25.510596
117378,-25.826651,-82.853764,25.583435
117478,-25.891053,-82.906151,25.678055
117578,-26.009103,-82.959668,25.824293
117678,-26.187977,-83.013943,26.02622
117778,-26.413654,-83.071935,26.269301
117878,-26.643092,-83.133468,26.509039
117978,-26.841652,-83.193391,26.710059
118078,-26.976464,-83.246745,26.837849
118178,-27.044741,-83.294936,26.891155
118278,-27.031071,-83.335266,26.868733
118378,-26.96583,-83.375741,26.802742
118478,-26.892106,-83.424127,26.738082
118578,-26.871266,-83.489291,26.741934
118678,-26.934637,-83.579823,26.841142
118778,-27.063815,-83.689879,27.009795
118878,-27.234588,-83.813802,27.224263
118978,-27.37946,-83.938844,27.415185
119078,-27.431256,-84.05445,27.510763
119178,-27.395378,-84.159148,27.51674
119278,-27.30076,-84.25587,27.466346
119378,-27.176764,-84.350309,27.389913
119478,-27.065786,-84.451408,27.328657
119578,-27.034132,-84.567222,27.351057
119678,-27.106978,-84.699887,27.48095
119778,-27.254022,-84.842479,27.687238
119878,-27.423048,-84.986642,27.911948
119978,-27.573253,-85.125956,28.112299
120078,-27.720965,-85.262293,28.299611
120178,-27.839778,-85.393606,28.447514
120278,-27.931632,-85.519815,28.561485
120378,-27.993872,-85.637988,28.644185
120478,-28.005444,-85.745063,28.679131
120578,-27.971237,-85.840258,28.667065
120678,-27.84173,-85.923146,28.552585
120778,-27.61206,-85.992384,28.327862
120878,-27.285182,-86.05128,28.001246
120978,-26.806788,-86.095628,27.509749
121078,-26.1599,-86.125069,26.841168
121178,-25.394758,-86.14391,26.052102
121278,-24.551434,-86.160505,25.194192
121378,-23.660191,-86.182548,24.306142
121478,-22.754853,-86.215333,23.423776
121578,-21.870403,-86.260103,22.584848
121678,-20.975617,-86.313708,21.753149
121778,-20.122936,-86.376702,20.973837
121878,-19.359525,-86.454175,20.287065
121978,-18.682801,-86.545414,19.68732
122078,-18.073457,-86.641622,19.154008
122178,-17.487236,-86.73488,18.641131
122278,-16.903999,-86.819594,18.1181
122378,-16.313528,-86.897769,17.570955
122478,-15.732916,-86.972811,17.019712
122578,-14.991503,-87.034874,16.300199
122678,-14.091868,-87.07732,15.427688
122778,-13.07933,-87.106063,14.454872
122878,-12.059337,-87.135361,13.490762
122978,-11.214535,-87.190363,12.716778
123078,-10.593948,-87.28773,12.190103
123178,-10.027431,-87.418881,11.746174
123278,-9.269714,-87.557116,11.134836
123378,-8.161092,-87.693399,10.184683
123478,-6.759601,-87.831384,8.947134
123578,-5.116717,-87.974929,7.465758
123678,-3.221614,-88.105419,5.71617
123778,-1.213518,-88.196532,3.821497
123878,0.87731,-88.23546,1.798968
123978,2.870776,-88.231228,-0.177379
124078,4.61008,-88.197528,-1.954141
124178,6.333182,-88.147982,-3.763738
124278,7.836897,-88.085252,-5.404874
124378,9.220092,-88.035997,-6.967632
124478,10.542732,-88.025686,-8.504781
124578,11.954304,-88.064119,-10.161432
124678,13.699629,-88.152216,-12.166012
124778,15.972846,-88.273796,-14.687926
124878,18.87809,-88.404507,-17.823973
124978,22.380602,-88.528146,-21.533572
125078,26.239185,-88.637589,-25.555937
125178,30.123774,-88.727128,-29.550406
125278,33.80886,-88.792981,-33.302071
125378,36.993839,-88.835383,-36.528199
125478,39.617618,-88.86439,-39.184678
125578,42.252132,-88.903887,-41.860458
125678,45.977013,-88.97609,-45.666151
125778,51.726975,-89.077213,-51.544747
125878,60.189828,-89.183753,-60.165838
125978,71.083672,-89.270408,-71.231124
126078,83.361921,-89.318281,-83.686725
126178,94.730355,-89.328804,-95.233151
126278,103.350046,-89.312869,-104.022755
126378,109.131486,-89.285703,-109.956436
126478,112.980843,-89.258451,-113.942328
126578,115.374257,-89.238748,-116.469489
126678,116.703809,-89.228158,-117.937179
126778,117.841404,-89.22293,-119.221674
126878,119.265787,-89.218332,-120.798015
126978,121.283429,-89.21149,-122.964687
127078,123.911413,-89.201696,-125.735355
127178,126.590655,-89.193972,-128.545654
127278,128.556663,-89.199306,-130.627362
127378,129.126147,-89.22801,-131.289673
127478,127.634818,-89.281021,-129.85951
127578,124.182011,-89.347624,-126.434258
127678,118.657177,-89.418691,-120.910758
127778,110.110761,-89.491561,-112.357346
127878,96.390648,-89.560097,-98.63538
127978,75.115346,-89.598506,-77.363495
128078,50.511335,-89.565214,-52.756683
128178,31.336866,-89.457242,-33.559861
128278,19.183358,-89.301725,-21.357034
128378,11.348454,-89.116796,-13.452935
128478,5.882471,-88.906333,-7.915696
128578,1.82758,-88.66894,-3.803881
128678,-1.13231,-88.402906,-0.819554
128778,-3.392821,-88.10682,1.424571
128878,-5.224049,-87.782372,3.207848
128978,-6.792901,-87.433509,4.722599
129078,-8.153817,-87.055798,6.048268
129178,-9.236029,-86.637692,7.124302
129278,-9.992882,-86.175934,7.9145
129378,-10.461898,-85.697832,8.463676
129478,-10.701858,-85.258407,8.812632
129578,-10.825763,-84.887292,9.028024
129678,-10.821538,-84.599319,9.049234
129778,-10.742384,-84.405061,8.909378
129878,-10.647953,-84.31589,8.70608
129978,-10.621941,-84.335391,8.582348
130078,-10.563109,-84.436392,8.474168
130178,-10.419926,-84.594464,8.345038
130278,-10.229379,-84.781575,8.228177
130378,-9.85728,-84.945059,7.974688
130478,-9.159165,-85.039704,7.431242
130578,-8.09802,-85.026355,6.547372
130678,-6.76276,-84.902029,5.396306
130778,-5.274139,-84.70594,4.099452
130878,-3.765615,-84.484755,2.784258
130978,-2.322169,-84.277485,1.537037
131078,-1.026795,-84.097143,0.430409
131178,0.021253,-83.937005,-0.459669
131278,0.696153,-83.785982,-1.027581
131378,1.005508,-83.637697,-1.291128
131478,1.118915,-83.500439,-1.412196
131578,1.204465,-83.39315,-1.53661
131678,1.353606,-83.320391,-1.719639
131778,1.606303,-83.290593,-1.980469
131878,1.947691,-83.306839,-2.299012
131978,2.372346,-83.365745,-2.675509
132078,2.862087,-83.452568,-3.100068
132178,3.384939,-83.551136,-3.544876
132278,3.913434,-83.643942,-3.983221
132378,4.420736,-83.718595,-4.39164
132478,4.903835,-83.776964,-4.769449
132578,5.322929,-83.837057,-5.082885
132678,5.673785,-83.914553,-5.338842
132778,5.936061,-84.018616,-5.523454
132878,6.123209,-84.148655,-5.65508
132978,6.26493,-84.302857,-5.75564
133078,6.379803,-84.469612,-5.838864
133178,6.47129,-84.630106,-5.903801
133278,6.525843,-84.766907,-5.932848
133378,6.518571,-84.87167,-5.906404
133478,6.446668,-84.944784,-5.826563
133578,6.313516,-84.994081,-5.698631
133678,6.157566,-85.035091,-5.556555
133778,6.015528,-85.077249,-5.428022
133878,5.919045,-85.124905,-5.339789
133978,5.892193,-85.172434,-5.306201
134078,5.90939,-85.217653,-5.300297
134178,5.982745,-85.255781,-5.339939
134278,6.09435,-85.288318,-5.415283
134378,6.218122,-85.315767,-5.508681
134478,6.364985,-85.347907,-5.637567
134578,6.527169,-85.391451,-5.791804
134678,6.736837,-85.451029,-5.985335
134778,7.018665,-85.513227,-6.226119
134878,7.351448,-85.561567,-6.481909
134978,7.70816,-85.581726,-6.724489
135078,8.074069,-85.562013,-6.954348
135178,8.43839,-85.505961,-7.187969
135278,8.789472,-85.422,-7.442177
135378,9.125896,-85.313732,-7.745747
135478,9.488701,-85.167008,-8.14439
135578,9.881388,-84.9449,-8.621401
135678,10.1909,-84.606464,-9.051586
135778,10.484279,-84.182993,-9.493701
135878,10.826711,-83.734683,-9.987553
135978,11.111488,-83.308863,-10.383647
136078,11.211525,-82.918657,-10.533223
136178,11.087066,-82.583705,-10.392151
136278,10.963886,-82.353758,-10.179283
136378,10.829231,-82.238788,-9.9483
136478,10.767488,-82.230503,-9.815261
136578,10.944801,-82.335706,-9.910757
136678,11.437994,-82.530936,-10.309438
136778,12.237934,-82.766006,-11.029492
136878,13.233881,-82.981856,-12.001132
136978,14.183066,-83.117607,-13.01999
137078,14.747365,-83.122216,-13.750821
137178,14.751739,-82.992925,-13.979789
137278,14.340288,-82.787057,-13.78854
137378,13.82015,-82.589744,-13.440434
137478,13.432586,-82.461247,-13.171631
137578,13.185779,-82.409271,-12.989883
137678,13.030591,-82.408218,-12.872883
137778,12.936104,-82.439038,-12.809949
137878,12.884608,-82.485336,-12.785677
137978,12.896469,-82.538289,-12.807484
138078,12.957761,-82.606192,-12.846664
138178,13.022001,-82.688685,-12.877424
138278,13.034642,-82.772803,-12.869387
138378,12.946574,-82.850857,-12.790982
138478,12.742767,-82.92051,-12.6309
138578,12.448234,-82.979828,-12.402904
138678,12.06368,-83.03454,-12.085071
138778,11.58247,-83.089155,-11.660485
138878,11.009801,-83.144504,-11.136547
138978,10.400344,-83.20546,-10.566054
139078,9.786779,-83.278726,-9.974339
139178,9.227136,-83.376023,-9.41557
139278,8.704043,-83.500507,-8.875416
139378,8.213712,-83.644049,-8.348722
139478,7.739142,-83.787995,-7.823248
139578,7.263911,-83.915829,-7.29097
139678,6.757879,-84.016634,-6.728202
139778,6.229676,-84.095293,-6.142619
139878,5.675644,-84.164363,-5.531037
139978,5.102284,-84.240006,-4.89769
140078,4.534089,-84.322954,-4.265886
140178,3.97417,-84.399092,-3.639402
140278,3.403345,-84.454856,-2.991319
140378,2.787343,-84.48554,-2.281346
140478,2.103654,-84.48919,-1.489407
140578,1.363385,-84.471584,-0.629079
140678,0.587811,-84.445421,0.27308
140778,-0.190547,-84.414706,1.176939
140878,-0.96599,-84.376922,2.067962
140978,-1.773288,-84.329145,2.969777
141078,-2.626952,-84.259551,3.881956
141178,-3.493308,-84.153644,4.761411
141278,-4.344779,-84.02085,5.588911
141378,-5.145021,-83.893444,6.344432
141478,-5.866713,-83.781391,7.020385
141578,-6.513905,-83.686051,7.6365
141678,-7.058268,-83.586978,8.173329
141778,-7.486337,-83.470388,8.620982
141878,-7.842394,-83.323664,9.027904
141978,-8.176643,-83.141728,9.439053
142078,-8.51045,-82.927747,9.867684
142178,-8.833347,-82.700482,10.292049
142278,-9.154635,-82.495441,10.696174
142378,-9.473727,-82.344246,11.053466
142478,-9.746035,-82.252945,11.277863
142578,-9.957444,-82.204448,11.336773
142678,-10.077,-82.190776,11.218433
142778,-10.069003,-82.21264,10.914168
142878,-10.044391,-82.291575,10.591076
142978,-10.130389,-82.438556,10.411625
143078,-10.308122,-82.6604,10.369109
143178,-10.507622,-82.970989,10.40305
143278,-10.614047,-83.355306,10.44228
143378,-10.4707,-83.755766,10.394286
143478,-9.979424,-84.130964,10.168969
143578,-9.196768,-84.464708,9.78086
143678,-8.282538,-84.730652,9.313383
143778,-7.369861,-84.921739,8.836734
143878,-6.55765,-85.063499,8.386232
143978,-6.009386,-85.181668,8.094868
144078,-5.906184,-85.273386,8.143585
144178,-6.313951,-85.318524,8.606556
144278,-7.021744,-85.3112,9.307915
144378,-7.541485,-85.289653,9.78259
144478,-7.737257,-85.317985,9.91118
144578,-7.787021,-85.424502,9.894858
144678,-7.686274,-85.58496,9.752285
144778,-7.315205,-85.761187,9.378221
144878,-6.616895,-85.927211,8.714515
144978,-5.581954,-86.083221,7.747449
145078,-4.377109,-86.235074,6.627447
145178,-3.268866,-86.39172,5.600257
145278,-2.53808,-86.559809,4.944066
145378,-2.315613,-86.741151,4.791287
145478,-2.559284,-86.929477,5.092995
145578,-3.169137,-87.122929,5.739487
145678,-4.01213,-87.322657,6.58748
145778,-4.965256,-87.523804,7.514412
145878,-5.911329,-87.719714,8.413565
145978,-6.817457,-87.913502,9.270288
146078,-7.774638,-88.107832,10.192995
146178,-8.884473,-88.30036,11.283209
146278,-10.344471,-88.493759,12.735427
146378,-12.33876,-88.690585,14.72835
146478,-15.125423,-88.884636,17.516377
146578,-18.849052,-89.062266,21.240193
146678,-22.969501,-89.204187,25.353608
146778,-26.350478,-89.290876,28.71783
146878,-27.82842,-89.333586,30.185407
146978,-28.07164,-89.355084,30.427975
147078,-27.285187,-89.357997,29.645781
147178,-26.054431,-89.349015,28.42192
147278,-24.317726,-89.331906,26.691972
147378,-21.626906,-89.305818,23.998511
147478,-17.601191,-89.266909,19.961452
147578,-12.428127,-89.206193,14.7847
147678,-6.753009,-89.121652,9.135562
147778,-1.285067,-88.996072,3.739105
147878,3.399814,-88.809576,-0.827696
147978,6.958541,-88.552611,-4.245657
148078,9.152894,-88.220956,-6.324547
148178,10.193975,-87.822986,-7.320499
148278,10.535806,-87.393165,-7.697841
148378,10.561755,-86.959856,-7.814189
148478,10.526201,-86.552609,-7.896873
148578,10.49506,-86.199696,-7.997962
148678,10.580106,-85.909071,-8.208471
148778,10.961773,-85.70137,-8.690972
148878,11.685253,-85.597573,-9.490391
148978,12.625868,-85.586476,-10.483205
149078,13.777825,-85.647946,-11.648545
149178,15.102927,-85.748787,-12.967566
149278,16.432689,-85.842995,-14.307622
149378,17.482389,-85.892733,-15.416775
149478,17.943304,-85.854041,-16.016305
149578,17.799308,-85.711228,-16.095088
149678,17.303199,-85.49737,-15.893341
149778,16.644609,-85.262688,-15.559307
149878,15.975167,-85.049084,-15.189065
149978,15.330005,-84.861601,-14.777857
150078,14.712131,-84.692555,-14.312398
150178,14.147635,-84.546133,-13.822724
150278,13.704279,-84.426154,-13.40146
150378,13.388574,-84.327553,-13.091946
150478,13.185335,-84.245084,-12.905586
150578,13.067174,-84.193883,-12.804539
150678,12.982035,-84.177484,-12.726947
150778,12.888493,-84.195503,-12.640728
150878,12.769352,-84.239403,-12.54817
150978,12.597312,-84.296187,-12.440923
151078,12.358861,-84.348817,-12.308319
151178,12.078377,-84.384368,-12.16848
151278,11.773338,-84.407136,-12.0226
151378,11.479112,-84.430182,-11.897327
151478,11.238985,-84.463369,-11.826251
151578,11.093556,-84.513522,-11.843105
151678,11.07547,-84.584489,-11.970024
151778,11.213824,-84.676954,-12.229928
151878,11.537829,-84.784924,-12.651025
151978,11.970602,-84.900504,-13.160522
152078,12.445114,-85.018118,-13.703558
152178,12.898617,-85.135004,-14.225349
152278,13.248709,-85.234772,-14.643651
152378,13.423095,-85.302438,-14.887788
152478,13.376777,-85.330187,-14.9128
152578,13.126614,-85.331617,-14.727144
152678,12.703188,-85.318583,-14.361275
152778,12.15873,-85.289512,-13.870535
152878,11.545927,-85.243044,-13.307077
152978,10.894542,-85.175602,-12.703638
153078,10.21434,-85.095702,-12.069951
153178,9.499066,-85.017459,-11.386011
153278,8.79597,-84.952403,-10.688502
153378,8.120121,-84.902232,-9.991781
153478,7.435343,-84.844052,-9.273681
153578,6.708019,-84.749083,-8.518017
153678,5.951115,-84.593597,-7.758386
153778,5.154703,-84.372283,-6.993984
153878,4.324596,-84.094633,-6.213377
153978,3.494851,-83.769951,-5.420071
154078,2.751974,-83.407096,-4.67512
154178,2.266261,-83.032957,-4.124513
154278,2.020265,-82.655364,-3.762496
154378,1.909283,-82.287692,-3.513854
154478,1.820775,-81.955995,-3.303813
154578,1.725201,-81.694066,-3.142669
154678,1.638827,-81.536174,-3.065871
154778,1.528216,-81.516115,-3.004896
154878,1.363003,-81.620897,-2.884594
154978,1.154582,-81.817472,-2.682119
155078,0.97748,-82.088755,-2.45024
155178,0.89226,-82.404255,-2.239652
155278,0.928218,-82.719337,-2.070019
155378,1.105876,-82.986862,-1.963518
155478,1.451348,-83.171323,-1.95244
155578,1.942832,-83.259745,-2.03216
155678,2.488455,-83.250677,-2.142449
155778,3.031469,-83.145891,-2.265171
155878,3.54272,-82.970965,-2.402358
155978,3.917157,-82.76907,-2.475714
156078,4.038615,-82.565292,-2.394351
156178,3.858262,-82.366594,-2.116139
156278,3.502953,-82.187511,-1.743599
156378,3.152294,-82.046001,-1.421696
156478,2.928587,-81.968785,-1.238393
156578,2.827825,-81.961262,-1.160632
156678,2.818196,-82.010022,-1.142592
156778,2.914349,-82.107022,-1.196987
156878,3.098398,-82.240933,-1.313019
156978,3.327862,-82.395869,-1.460274
157078,3.57525,-82.558944,-1.618095
157178,3.777548,-82.723289,-1.732067
157278,3.879126,-82.873333,-1.74899
157378,3.892014,-82.990192,-1.677038
157478,3.796819,-83.072131,-1.493449
157578,3.571857,-83.134228,-1.183686
157678,3.24312,-83.205217,-0.785107
157778,2.837033,-83.307266,-0.326838
157878,2.355595,-83.439893,0.194583
157978,1.838688,-83.59499,0.745228
158078,1.321817,-83.745118,1.286703
158178,0.851712,-83.887268,1.775598
158278,0.413559,-84.029243,2.215196
158378,0.008738,-84.167383,2.60153
158478,-0.39126,-84.300913,2.969652
158578,-0.774967,-84.410588,3.312484
158678,-1.150123,-84.484622,3.641241
158778,-1.509225,-84.540856,3.947593
158878,-1.84479,-84.603492,4.235636
158978,-2.16467,-84.685879,4.52189
159078,-2.44709,-84.794737,4.788239
159178,-2.671815,-84.929664,5.022101
159278,-2.868895,-85.081413,5.263213
159378,-3.057948,-85.244414,5.535682
159478,-3.219238,-85.407554,5.816428
159578,-3.301146,-85.553112,6.060435
159678,-3.246604,-85.677596,6.215571
159778,-3.066405,-85.779869,6.294368
159878,-2.705151,-85.850092,6.230648
159978,-2.118323,-85.888697,5.936502
160078,-1.389744,-85.91357,5.444462
160178,-0.581304,-85.934598,4.781308
160278,0.329183,-85.936948,3.906334
160378,1.459083,-85.877601,2.699071
160478,2.946911,-85.727282,1.058633
160578,4.70168,-85.49714,-0.872071
160678,6.567536,-85.231138,-2.907377
160778,8.256208,-84.958199,-4.765267
160878,9.733905,-84.693619,-6.411697
160978,10.921172,-84.478067,-7.742718
161078,11.866821,-84.35482,-8.806936
161178,12.790774,-84.347144,-9.838348
161278,13.84099,-84.447964,-10.97406
161378,15.166449,-84.623432,-12.353139
161478,16.815549,-84.838683,-14.028575
161578,18.863458,-85.060804,-16.119134
161678,21.163975,-85.238715,-18.529185
161778,22.692809,-85.301165,-20.257516
161878,22.931393,-85.225347,-20.762316
161978,22.310393,-85.063989,-20.418445
162078,21.378133,-84.898993,-19.74395
162178,20.520837,-84.791332,-19.109615
162278,19.884421,-84.755654,-18.646992
162378,19.364767,-84.76747,-18.252908
162478,18.943444,-84.809006,-17.933331
162578,18.655487,-84.870802,-17.744558
162678,18.552047,-84.954082,-17.733555
162778,18.640769,-85.048416,-17.890534
162878,18.900899,-85.141413,-18.181745
162978,19.261742,-85.230626,-18.558708
163078,19.594488,-85.313203,-18.937481
163178,19.735817,-85.386783,-19.180397
163278,19.60775,-85.446026,-19.213507
163378,19.270923,-85.494691,-19.076197
163478,18.762885,-85.540738,-18.779585
163578,18.201429,-85.588088,-18.424375
163678,17.631582,-85.640738,-18.049371
163778,17.04551,-85.687075,-17.637371
163878,16.438325,-85.713399,-17.186351
163978,15.900756,-85.722071,-16.795735
164078,15.471324,-85.730923,-16.499382
164178,15.12416,-85.743468,-16.268194
164278,14.900517,-85.767251,-16.137945
164378,14.71779,-85.800248,-16.027173
164478,14.447362,-85.836474,-15.815527
164578,14.03928,-85.87386,-15.462116
164678,13.495856,-85.906106,-14.96506
164778,12.866944,-85.924737,-14.363536
164878,12.184369,-85.932768,-13.691134
164978,11.47276,-85.940688,-12.976647
165078,10.655399,-85.953297,-12.145714
165178,9.69551,-85.967567,-11.174369
165278,8.513346,-85.966569,-9.993471
165378,7.085123,-85.933744,-8.587514
165478,5.527232,-85.855012,-7.071207
165578,3.961141,-85.740788,-5.560478
165678,2.510924,-85.616456,-4.172928
165778,1.237327,-85.500586,-2.955215
165878,0.192739,-85.391838,-1.956372
165978,-0.637425,-85.28175,-1.162622
166078,-1.275234,-85.164421,-0.557163
166178,-1.745094,-85.040154,-0.123111
166278,-2.078674,-84.914693,0.16309
166378,-2.309348,-84.783646,0.333931
166478,-2.427847,-84.631906,0.384736
166578,-2.478717,-84.455157,0.384075
166678,-2.483366,-84.24802,0.377571
166778,-2.450086,-83.997361,0.383638
166878,-2.461795,-83.700307,0.474709
166978,-2.601867,-83.359493,0.717923
167078,-2.806673,-82.996547,1.041715
167178,-2.976394,-82.641861,1.330308
167278,-3.08495,-82.330797,1.518475
167378,-3.065777,-82.088681,1.498445
167478,-2.938543,-81.923228,1.255298
167578,-2.772155,-81.833695,0.866942
167678,-2.531728,-81.84114,0.363428
167778,-2.263113,-81.949569,-0.139592
167878,-1.984386,-82.15813,-0.590561
167978,-1.67463,-82.452216,-0.98915
168078,-1.295979,-82.789645,-1.344404
168178,-0.798004,-83.098154,-1.689208
168278,-0.204129,-83.318973,-2.009398
168378,0.347923,-83.427621,-2.212104
168478,0.764086,-83.430312,-2.247919
168578,1.049949,-83.347723,-2.157234
168678,1.25214,-83.211753,-2.014506
168778,1.366121,-83.057191,-1.845238
168878,1.329118,-82.913699,-1.608837
168978,1.097185,-82.786406,-1.264078
169078,0.689826,-82.664483,-0.810893
169178,0.226663,-82.532481,-0.350452
169278,-0.151928,-82.395093,-0.005354
169378,-0.415278,-82.283713,0.216551
169478,-0.589626,-82.210536,0.364507
169578,-0.637077,-82.170022,0.415383
169678,-0.536458,-82.16141,0.355738
169778,-0.323289,-82.188439,0.222146
169878,-0.080372,-82.236551,0.08475
169978,0.099484,-82.282577,0.023063
170078,0.133575,-82.299487,0.10589
170178,0.039513,-82.27401,0.294475
170278,-0.135219,-82.224275,0.540487
170378,-0.348255,-82.172307,0.802059
170478,-0.566503,-82.132499,1.050003
170578,-0.790493,-82.10024,1.291212
170678,-1.021081,-82.072406,1.527124
170778,-1.254468,-82.054621,1.757634
170878,-1.486286,-82.047927,1.980173
170978,-1.711233,-82.051283,2.193457
171078,-1.934014,-82.062016,2.400665
171178,-2.149274,-82.071847,2.593845
171278,-2.346882,-82.068347,2.76862
171378,-2.510667,-82.042084,2.910279
171478,-2.60762,-81.987078,2.980134
171578,-2.634453,-81.919188,2.979208
171678,-2.607654,-81.860295,2.922244
171778,-2.532732,-81.830843,2.822175
171878,-2.418981,-81.841644,2.70493
171978,-2.261752,-81.880683,2.574633
172078,-2.072219,-81.931835,2.440947
172178,-1.852816,-81.986529,2.303527
172278,-1.607114,-82.04219,2.161997
172378,-1.321437,-82.111656,2.002468
172478,-0.977378,-82.209982,1.799067
172578,-0.586925,-82.336409,1.553131
172678,-0.150288,-82.476825,1.261524
172778,0.303996,-82.620959,0.955627
172878,0.77135,-82.744175,0.640595
172978,1.235156,-82.829309,0.327218
173078,1.722638,-82.880313,-0.020723
173178,2.231998,-82.911221,-0.406384
173278,2.777083,-82.921094,-0.85532
173378,3.383513,-82.896772,-1.40122
173478,4.068003,-82.83983,-2.052464
173578,4.856575,-82.768606,-2.829318
173678,5.780884,-82.689415,-3.760452
173778,6.853356,-82.594947,-4.849967
173878,8.012091,-82.46621,-6.029081
173978,9.157149,-82.283054,-7.197967
174078,10.144049,-82.030183,-8.215795
174178,10.866115,-81.713811,-8.99944
174278,11.319741,-81.370439,-9.532501
174378,11.563238,-81.040695,-9.820168
174478,11.599759,-80.737384,-9.830751
174578,11.482889,-80.470147,-9.586603
174678,11.359998,-80.260095,-9.251674
174778,11.218615,-80.12151,-8.893665
174878,11.106332,-80.083071,-8.585639
174978,11.171481,-80.158777,-8.436634
175078,11.451432,-80.331581,-8.461919
175178,11.893074,-80.561108,-8.650597
175278,12.369502,-80.787639,-8.948469
175378,12.636597,-80.937267,-9.158366
175478,12.59421,-80.971011,-9.175339
175578,12.238281,-80.918079,-8.959185
175678,11.62929,-80.847901,-8.541863
175778,10.935545,-80.812599,-8.063349
175878,10.294998,-80.820701,-7.621837
175978,9.819077,-80.863176,-7.293769
176078,9.57727,-80.931807,-7.125086
176178,9.509347,-81.036224,-7.05815
176278,9.532819,-81.180845,-7.033375
176378,9.565976,-81.348725,-7.003817
176478,9.520773,-81.535567,-6.905429
176578,9.328013,-81.722518,-6.690407
176678,8.940194,-81.890165,-6.325825
176778,8.346744,-82.029313,-5.807436
176878,7.562033,-82.143005,-5.142399
176978,6.629473,-82.239834,-4.354359
177078,5.600244,-82.330772,-3.469253
177178,4.521586,-82.420832,-2.521935
177278,3.447407,-82.507755,-1.563161
177378,2.448744,-82.5865,-0.668774
177478,1.571621,-82.652924,0.110913
177578,0.8243,-82.712466,0.765379
177678,0.210345,-82.77528,1.288186
177778,-0.269563,-82.850377,1.680799
177878,-0.645997,-82.936513,1.978536
177978,-0.970581,-83.023791,2.233872
178078,-1.323184,-83.103565,2.520313
178178,-1.789354,-83.163212,2.919237
178278,-2.370963,-83.201122,3.42877
178378,-3.070327,-83.225188,4.04519
178478,-3.833693,-83.243098,4.707532
178578,-4.582932,-83.262278,5.339726
178678,-5.283384,-83.285257,5.917209
178778,-5.968314,-83.309036,6.485973
178878,-6.63655,-83.32104,7.051818
178978,-7.290777,-83.315829,7.622331
179078,-7.946064,-83.2998,8.213528
179178,-8.605698,-83.284781,8.830764
179278,-9.301504,-83.267363,9.505022
179378,-9.997259,-83.238497,10.193546
179478,-10.676712,-83.196138,10.876507
179578,-11.340135,-83.134724,11.546097
179678,-11.957146,-83.04863,12.156151
179778,-12.511257,-82.942729,12.676318
179878,-13.004166,-82.827057,13.105297
179978,-13.444867,-82.715496,13.463385
180078,-13.827306,-82.611839,13.769306
180178,-14.073824,-82.503236,13.969476
180278,-14.099392,-82.361245,13.995419
180378,-13.887154,-82.15988,13.835969
180478,-13.519973,-81.890059,13.576499
180578,-13.13439,-81.56617,13.358492
180678,-12.769022,-81.222808,13.214691
180778,-12.431472,-80.886838,13.117465
180878,-12.196895,-80.586521,13.098538
180978,-12.047941,-80.364933,13.094175
181078,-11.957586,-80.254722,13.010737
181178,-11.901035,-80.25781,12.829329
181278,-11.773816,-80.349961,12.523904
181378,-11.690596,-80.501591,12.25899
181478,-11.77354,-80.724773,12.198818
181578,-12.034954,-81.045743,12.361626
181678,-12.360656,-81.450637,12.673694
181778,-12.625995,-81.896138,13.081642
181878,-12.674582,-82.299285,13.44931
181978,-12.411795,-82.578265,13.610471
182078,-11.839396,-82.705244,13.464005
182178,-11.13538,-82.726357,13.12348
182278,-10.402413,-82.707466,12.65586
182378,-9.685409,-82.685487,12.126964
182478,-9.026545,-82.665116,11.60856
182578,-8.449813,-82.646775,11.1397
182678,-7.934338,-82.643252,10.707317
182778,-7.437599,-82.663377,10.261747
182878,-6.976875,-82.720727,9.812918
182978,-6.618617,-82.820019,9.442388
183078,-6.359957,-82.942407,9.16758
183178,-6.170749,-83.061873,8.97693
183278,-5.98928,-83.155224,8.812486
183378,-5.789932,-83.215457,8.641635
183478,-5.612336,-83.254761,8.502217
183578,-5.527213,-83.289447,8.456948
183678,-5.538949,-83.331303,8.507763
183778,-5.653114,-83.389162,8.650722
183878,-5.822548,-83.460944,8.829794
183978,-6.015829,-83.542297,9.014455
184078,-6.20563,-83.630946,9.185829
184178,-6.403084,-83.727679,9.360824
184278,-6.609916,-83.835947,9.54728
184378,-6.816975,-83.950473,9.738054
184478,-6.973536,-84.065606,9.878037
184578,-7.067614,-84.175522,9.955661
184678,-7.111499,-84.288933,9.991311
184778,-7.143002,-84.40864,10.021857
184878,-7.153429,-84.529727,10.034591
184978,-7.118922,-84.644482,10.008465
185078,-7.046228,-84.744184,9.95129
185178,-6.881085,-84.82105,9.80747
185278,-6.606064,-84.873962,9.55125
185378,-6.230506,-84.910486,9.191554
185478,-5.739599,-84.928233,8.725848
185578,-5.129339,-84.919849,8.162753
185678,-4.415451,-84.884042,7.521296
185778,-3.607862,-84.819539,6.800957
185878,-2.728189,-84.7383,6.005288
185978,-1.823365,-84.653601,5.180455
186078,-0.865294,-84.566926,4.314569
186178,0.193487,-84.464205,3.379003
186278,1.405558,-84.317401,2.329849
186378,2.752714,-84.099226,1.170595
186478,4.1999,-83.790291,-0.102603
186578,5.658604,-83.383899,-1.434637
186678,6.98295,-82.896308,-2.70161
186778,8.100968,-82.367908,-3.838967
186878,9.023623,-81.835642,-4.841269
186978,9.701881,-81.313336,-5.628022
187078,10.158126,-80.812779,-6.187215
187178,10.276613,-80.354977,-6.405914
187278,10.316882,-79.990414,-6.550418
187378,10.521133,-79.812496,-6.860255
187478,10.97692,-79.859786,-7.409826
187578,11.754994,-80.083854,-8.2269
187678,12.84771,-80.409899,-9.274656
187778,14.264083,-80.792503,-10.602304
187878,15.798218,-81.158114,-12.100145
187978,16.975397,-81.391284,-13.362313
188078,17.527608,-81.43816,-14.107509
188178,17.611003,-81.339455,-14.438522
188278,17.418078,-81.185326,-14.503278
188378,17.110228,-81.050973,-14.430545
188478,16.777256,-80.968392,-14.298042
188578,16.429445,-80.948659,-14.125965
188678,16.158878,-80.99754,-14.006185
188778,16.087961,-81.10937,-14.041896
188878,16.252505,-81.269581,-14.267695
188978,16.579802,-81.454557,-14.620658
189078,16.963567,-81.652791,-15.00238
189178,17.305851,-81.855258,-15.337181
189278,17.538782,-82.048736,-15.59066
189378,17.639784,-82.216848,-15.75462
189478,17.613187,-82.349769,-15.839898
189578,17.454988,-82.44503,-15.830122
189678,17.17291,-82.512379,-15.712603
189778,16.818062,-82.570163,-15.53118
189878,16.478689,-82.633953,-15.369335
189978,16.218323,-82.716754,-15.286826
190078,16.058512,-82.817891,-15.302939
190178,15.9458,-82.92617,-15.360929
190278,15.840507,-83.029714,-15.410539
190378,15.745523,-83.123192,-15.441031
190478,15.698667,-83.204543,-15.479864
190578,15.691539,-83.281899,-15.516133
190678,15.681695,-83.348267,-15.514495
190778,15.609231,-83.398175,-15.418902
190878,15.446983,-83.430165,-15.21031
190978,15.225212,-83.446775,-14.923044
191078,14.927548,-83.449808,-14.554535
191178,14.509834,-83.433667,-14.081189
191278,13.938771,-83.38636,-13.480804
191378,13.223508,-83.30296,-12.756417
191478,12.36781,-83.187744,-11.897727
191578,11.40477,-83.05657,-10.928516
191678,10.405309,-82.925785,-9.923083
191778,9.433564,-82.803017,-8.949567
191878,8.50749,-82.676707,-8.038581
191978,7.647477,-82.520837,-7.235215
192078,6.877802,-82.313861,-6.574481
192178,6.188253,-82.051542,-6.036133
192278,5.564927,-81.739473,-5.567888
192378,4.964441,-81.378954,-5.078572
192478,4.332138,-80.955331,-4.48128
192578,3.706319,-80.474362,-3.800976
192678,3.147772,-79.965385,-3.091244
192778,2.63379,-79.446108,-2.351677
192878,2.075743,-78.984744,-1.563851
192978,1.495468,-78.677306,-0.827762
193078,0.915505,-78.541348,-0.185828
193178,0.391247,-78.566757,0.356725
193278,-0.093679,-78.722457,0.86842
193378,-0.636454,-78.974861,1.455695
193478,-1.240797,-79.31518,2.133116
193578,-1.834261,-79.733542,2.850181
193678,-2.347232,-80.180762,3.559275
193778,-2.726186,-80.576521,4.231301
193878,-2.975357,-80.856339,4.857531
193978,-3.121946,-80.98473,5.393117
194078,-3.191158,-80.963955,5.80696
194178,-3.183982,-80.846005,6.084123
194278,-3.138375,-80.679133,6.263812
194378,-3.089409,-80.49386,6.392653
194478,-3.108716,-80.320108,6.547023
194578,-3.270448,-80.173674,6.810453
194678,-3.580379,-80.062511,7.189211
194778,-3.965125,-79.996542,7.604806
194878,-4.389558,-79.996902,8.025342
194978,-4.884514,-80.06353,8.494872
195078,-5.398323,-80.156467,8.97552
195178,-5.868125,-80.249741,9.414082
195278,-6.279121,-80.332389,9.80509
195378,-6.639344,-80.405802,10.154
195478,-6.964973,-80.466335,10.47297
195578,-7.26802,-80.50954,10.765238
195678,-7.55764,-80.536091,11.038783
195778,-7.843175,-80.550676,11.301387
195878,-8.131035,-80.569239,11.559352
195978,-8.409527,-80.605959,11.805922
196078,-8.700226,-80.66759,12.060124
196178,-9.002442,-80.749897,12.316573
196278,-9.294156,-80.841546,12.55538
196378,-9.566554,-80.938129,12.776848
196478,-9.825141,-81.029691,12.987569
196578,-10.027381,-81.108937,13.148486
196678,-10.190651,-81.18134,13.27642
196778,-10.348576,-81.264582,13.398376
196878,-10.528634,-81.373611,13.539102
196978,-10.7428,-81.520326,13.704974
197078,-10.982224,-81.699811,13.88195
197178,-11.168711,-81.89193,14.00325
197278,-11.252161,-82.076017,14.036312
197378,-11.244657,-82.248152,14.012589
197478,-11.14371,-82.414312,13.941468
197578,-10.956303,-82.587515,13.819256
197678,-10.789686,-82.780755,13.74145
197778,-10.752783,-82.99388,13.806284
197878,-10.766286,-83.191493,13.924416
197978,-10.635176,-83.35373,13.893244
198078,-10.2538,-83.493467,13.600111
198178,-9.693289,-83.63705,13.11681
198278,-8.987502,-83.792957,12.492367
198378,-8.171468,-83.945914,11.783095
198478,-7.285207,-84.053086,11.033769
198578,-6.347208,-84.08347,10.252157
198678,-5.410218,-84.054155,9.455434
198778,-4.488236,-84.002658,8.610499
198878,-3.597663,-83.938244,7.70312
198978,-2.607292,-83.837344,6.595099
199078,-1.390989,-83.669657,5.169352
199178,0.087898,-83.424047,3.437968
199278,1.737309,-83.11194,1.548522
199378,3.235136,-82.773898,-0.128947
199478,4.316682,-82.456582,-1.306449
199578,5.00187,-82.224523,-2.000032
199678,5.375131,-82.129149,-2.344454
199778,5.485535,-82.157408,-2.418318
199878,5.495485,-82.262931,-2.380397
199978,5.630634,-82.406754,-2.44674
200078,6.025969,-82.573987,-2.765683
200178,6.712318,-82.744755,-3.424577
200278,7.464318,-82.866327,-4.261996
200378,7.914447,-82.875891,-4.924756
200478,7.987598,-82.790074,-5.31021
200578,7.83147,-82.675821,-5.510037
200678,7.602119,-82.601456,-5.601294
200778,7.412657,-82.596451,-5.647592
200878,7.320881,-82.628296,-5.696301
200978,7.29605,-82.658452,-5.737156
201078,7.358339,-82.686529,-5.812003
201178,7.511507,-82.737164,-5.951561
201278,7.672859,-82.816949,-6.110391
201378,7.825854,-82.931093,-6.263382
201478,7.938942,-83.079163,-6.367116
201578,8.006474,-83.241116,-6.432918
201678,7.956863,-83.400299,-6.402022
201778,7.780777,-83.543171,-6.284005
201878,7.511893,-83.65825,-6.117629
201978,7.17162,-83.735432,-5.913333
202078,6.738222,-83.780418,-5.621904
202178,6.232098,-83.808237,-5.252292
202278,5.749842,-83.826121,-4.89614
202378,5.340562,-83.843655,-4.600491
202478,5.026138,-83.871416,-4.391808
202578,4.817398,-83.915212,-4.279895
202678,4.718973,-83.974511,-4.259643
202778,4.682174,-84.045422,-4.277337
202878,4.697287,-84.116916,-4.321826
202978,4.728822,-84.183097,-4.357277
203078,4.69586,-84.236945,-4.303879
203178,4.554627,-84.275989,-4.121557
203278,4.303884,-84.302573,-3.815994
203378,3.986399,-84.320626,-3.436423
203478,3.639597,-84.333994,-3.025127
203578,3.307231,-84.349707,-2.636377
203678,3.002473,-84.367138,-2.28482
203778,2.708816,-84.378946,-1.938986
203878,2.403099,-84.364299,-1.570299
203978,2.037325,-84.308013,-1.128898
204078,1.628859,-84.218296,-0.638563
204178,1.192744,-84.118933,-0.116099
204278,0.733583,-84.022798,0.4316
204378,0.228598,-83.921176,1.026779
204478,-0.325515,-83.79388,1.671036
204578,-0.886337,-83.621735,2.324534
204678,-1.400672,-83.403744,2.937602
204778,-1.787498,-83.147651,3.436666
204878,-2.015852,-82.874811,3.793706
204978,-2.103643,-82.598976,4.029899
205078,-2.084358,-82.311901,4.171109
205178,-2.037501,-81.976004,4.275557
205278,-2.041664,-81.549917,4.414205
205378,-2.126582,-81.015018,4.628952
205478,-2.285304,-80.394092,4.937527
205578,-2.465088,-79.739334,5.296885
205678,-2.678353,-79.134494,5.723431
205778,-2.892969,-78.662152,6.176533
205878,-3.067497,-78.353679,6.562853
205978,-3.183867,-78.219921,6.800491
206078,-3.226584,-78.252288,6.859745
206178,-3.243434,-78.40699,6.806352
206278,-3.294878,-78.634444,6.752971
206378,-3.414299,-78.920003,6.799468
206478,-3.567705,-79.248185,6.951954
206578,-3.682995,-79.570395,7.165315
206678,-3.696887,-79.831049,7.40572
206778,-3.585478,-79.991506,7.644951
206878,-3.379285,-80.050573,7.853479
206978,-3.133636,-80.05779,8.035779
207078,-2.890448,-80.082039,8.17891
207178,-2.701992,-80.155001,8.289774
207278,-2.601474,-80.265653,8.394099
207378,-2.607315,-80.38482,8.530453
207478,-2.72413,-80.477446,8.723626
207578,-2.899353,-80.528952,8.93458
207678,-3.046111,-80.55232,9.087725
207778,-3.132838,-80.57986,9.157633
207878,-3.208464,-80.634656,9.198791
207978,-3.27598,-80.709779,9.231572
208078,-3.293854,-80.801196,9.230334
208178,-3.241095,-80.909583,9.175928
208278,-3.148861,-81.032596,9.096564
208378,-3.103626,-81.167534,9.077519
208478,-3.183092,-81.301808,9.193043
208578,-3.388333,-81.425652,9.433369
208678,-3.701237,-81.529221,9.764182
208778,-4.057282,-81.618591,10.118735
208878,-4.425119,-81.707165,10.467045
208978,-4.782851,-81.80625,10.793456
209078,-5.145038,-81.924055,11.120668
209178,-5.549569,-82.06398,11.489739
209278,-5.988845,-82.218798,11.900338
209378,-6.449341,-82.37398,12.341543
209478,-6.916832,-82.513326,12.793423
209578,-7.417518,-82.621615,13.274034
209678,-7.959537,-82.697866,13.785258
209778,-8.548364,-82.74997,14.327325
209878,-9.195478,-82.786424,14.904697
209978,-9.884925,-82.815302,15.506933
210078,-10.581978,-82.838169,16.114976
210178,-11.25436,-82.853663,16.71395
210278,-11.867755,-82.864808,17.272234
210378,-12.433943,-82.878853,17.79856
210478,-12.971124,-82.906244,18.303278
210578,-13.491941,-82.939655,18.788558
210678,-13.985605,-82.961354,19.233082
210778,-14.421775,-82.957678,19.608397
210878,-14.770634,-82.92032,19.887593
210978,-15.027659,-82.860473,20.07544
211078,-15.192793,-82.801853,20.186974
211178,-15.204557,-82.742503,20.167656
211278,-15.038463,-82.673438,19.991472
211378,-14.701419,-82.581741,19.656485
211478,-14.195559,-82.446391,19.145961
211578,-13.57927,-82.260683,18.49449
211678,-12.913039,-82.034821,17.742416
211778,-12.237909,-81.789379,16.927772
211878,-11.555132,-81.538324,16.067706
211978,-10.844456,-81.305205,15.173406
212078,-10.09757,-81.12371,14.261253
212178,-9.36259,-81.03584,13.382098
212278,-8.692229,-81.067559,12.58469
212378,-8.067453,-81.205309,11.853506
212478,-7.460706,-81.41222,11.151124
212578,-6.838542,-81.645773,10.423531
212678,-6.196754,-81.877163,9.649845
212778,-5.554461,-82.086349,8.848318
212878,-4.937237,-82.251646,8.032383
212978,-4.378406,-82.348343,7.222716
213078,-3.876754,-82.378595,6.417346
213178,-3.480885,-82.369809,5.691473
213278,-3.200325,-82.346974,5.086512
213378,-2.958901,-82.32619,4.552061
213478,-2.690835,-82.329215,4.03867
213578,-2.340374,-82.361031,3.495014
213678,-1.863768,-82.420133,2.875333
213778,-1.29104,-82.505298,2.200951
213878,-0.685898,-82.615474,1.526085
213978,-0.123108,-82.749621,0.905069
214078,0.339076,-82.912026,0.373976
214178,0.681803,-83.102219,-0.068458
214278,0.906778,-83.307016,-0.431298
214378,1.016916,-83.512581,-0.717809
214478,1.049411,-83.710888,-0.953267
214578,1.017697,-83.898926,-1.136735
214678,0.985368,-84.070424,-1.316207
214778,1.006572,-84.230698,-1.533085
214878,1.146529,-84.384951,-1.842544
214978,1.458177,-84.538093,-2.294745
215078,1.910654,-84.692533,-2.870774
215178,2.470735,-84.848968,-3.544886
215278,3.072811,-85.00383,-4.2586
215378,3.666964,-85.153224,-4.965206
215478,4.224196,-85.289407,-5.631487
215578,4.732885,-85.412318,-6.238049
215678,5.177232,-85.525096,-6.757576
215778,5.596404,-85.632763,-7.22224
215878,5.984357,-85.73016,-7.626196
215978,6.319495,-85.816024,-7.952514
216078,6.577508,-85.889671,-8.193128
216178,6.72141,-85.941301,-8.329915
216278,6.736387,-85.964484,-8.35324
216378,6.573081,-85.958296,-8.211828
216478,6.213902,-85.921891,-7.87518
216578,5.728336,-85.874611,-7.388262
216678,5.165132,-85.813417,-6.789763
216778,4.487758,-85.711373,-6.040351
216878,3.64598,-85.555742,-5.106037
216978,2.691447,-85.339767,-4.066943
217078,1.722511,-85.078288,-3.044324
217178,0.829529,-84.786446,-2.129078
217278,0.049823,-84.456819,-1.336924
217378,-0.567666,-84.08344,-0.681698
217478,-0.961494,-83.683302,-0.217664
217578,-1.100246,-83.302583,0.026552
217678,-1.080594,-82.973448,0.127512
217778,-0.951932,-82.721479,0.099233
217878,-0.760516,-82.561014,-0.050081
217978,-0.518883,-82.484117,-0.309444
218078,-0.287679,-82.478184,-0.568103
218178,-0.215712,-82.519668,-0.659919
218278,-0.315198,-82.608159,-0.559859
218378,-0.505741,-82.75908,-0.316971
218478,-0.68647,-82.96193,-0.006391
218578,-0.738845,-83.180832,0.273521
218678,-0.55245,-83.385581,0.416386
218778,-0.139245,-83.553186,0.420776
218878,0.363759,-83.65877,0.384727
218978,0.880691,-83.693522,0.333358
219078,1.37647,-83.674486,0.250174
219178,1.824582,-83.631502,0.114767
219278,2.17091,-83.574072,-0.026021
219378,2.328969,-83.494672,-0.073251
219478,2.335441,-83.395911,-0.039329
219578,2.309048,-83.305497,-0.018548
219678,2.396172,-83.258572,-0.150617
219778,2.579919,-83.289718,-0.406737
219878,2.860473,-83.395832,-0.762316
219978,3.289472,-83.544937,-1.247095
220078,3.883636,-83.70713,-1.857066
220178,4.614448,-83.857777,-2.559705
220278,5.402204,-83.982971,-3.277352
220378,6.109492,-84.074425,-3.889917
220478,6.547099,-84.131941,-4.223845
220578,6.677653,-84.16613,-4.254303
220678,6.552621,-84.188517,-4.050897
220778,6.279121,-84.217691,-3.729432
220878,5.923487,-84.267542,-3.353441
220978,5.53644,-84.339069,-2.969172
221078,5.201837,-84.434092,-2.646841
221178,4.956676,-84.555899,-2.412909
221278,4.813717,-84.696543,-2.269802
221378,4.780814,-84.845858,-2.217743
221478,4.812614,-84.99274,-2.21197
221578,4.866462,-85.133178,-2.215918
221678,4.886635,-85.260013,-2.181641
221778,4.854343,-85.353632,-2.093282
221878,4.757123,-85.407131,-1.940449
221978,4.589441,-85.427269,-1.72035
222078,4.428931,-85.437172,-1.51143
222178,4.311073,-85.456092,-1.345125
222278,4.238881,-85.483111,-1.227476
222378,4.192337,-85.507909,-1.136405
222478,4.183188,-85.513188,-1.079345
222578,4.188925,-85.502611,-1.024435
222678,4.301675,-85.496855,-1.055422
222778,4.568788,-85.512495,-1.205752
222878,4.997003,-85.54076,-1.475553
222978,5.480297,-85.546514,-1.763441
223078,5.893301,-85.490589,-1.955761
223178,6.158318,-85.358283,-1.996559
223278,6.344554,-85.156039,-1.993613
223378,6.444588,-84.868425,-1.977509
223478,6.543498,-84.47355,-2.059952
223578,6.702997,-83.976321,-2.289151
223678,6.940963,-83.41765,-2.622048
223778,7.225432,-82.869349,-2.969059
223878,7.63796,-82.437534,-3.392138
223978,8.150917,-82.214369,-3.871383
224078,8.706834,-82.205806,-4.377446
224178,9.223485,-82.346149,-4.854094
224278,9.740271,-82.565134,-5.335325
224378,10.270375,-82.798721,-5.849812
224478,10.730072,-82.989594,-6.335887
224578,10.943787,-83.104045,-6.631496
224678,10.827602,-83.120935,-6.657775
224778,10.439629,-83.051539,-6.465926
224878,9.922377,-82.952564,-6.161435
224978,9.360801,-82.888089,-5.792123
225078,8.824784,-82.879715,-5.412239
225178,8.334507,-82.912283,-5.037754
225278,7.877799,-82.957073,-4.673936
225378,7.461585,-83.001958,-4.356851
225478,7.095118,-83.061447,-4.097884
225578,6.781567,-83.156109,-3.890719
225678,6.487726,-83.280262,-3.70063
225778,6.175082,-83.418232,-3.492532
225878,5.835021,-83.555659,-3.260212
225978,5.479082,-83.68134,-3.018225
226078,5.162731,-83.780231,-2.821122
226178,4.906986,-83.848953,-2.69091
226278,4.687631,-83.889985,-2.60334
226378,4.468303,-83.91364,-2.523355
226478,4.262791,-83.934766,-2.46475
226578,4.07567,-83.96839,-2.42747
226678,3.926469,-84.023269,-2.424252
226778,3.83799,-84.100638,-2.473922
226878,3.855119,-84.192794,-2.614202
226978,3.9975,-84.28593,-2.856552
227078,4.258705,-84.372804,-3.187037
227178,4.611086,-84.443818,-3.571443
227278,4.990098,-84.491702,-3.945887
227378,5.302158,-84.501768,-4.226365
227478,5.476054,-84.466661,-4.360938
227578,5.475667,-84.38971,-4.322804
227678,5.3035,-84.288272,-4.115056
227778,4.958858,-84.181632,-3.746239
227878,4.467103,-84.074055,-3.243788
227978,3.852045,-83.956207,-2.626376
228078,3.182731,-83.822851,-1.944246
228178,2.496224,-83.676263,-1.219195
228278,1.841743,-83.52186,-0.488371
228378,1.244427,-83.35781,0.219998
228478,0.721962,-83.17656,0.879261
228578,0.237645,-82.961533,1.514795
228678,-0.206756,-82.696197,2.111353
228778,-0.62196,-82.379563,2.657594
228878,-1.033372,-82.018821,3.156041
228978,-1.443083,-81.627032,3.601456
229078,-1.851545,-81.196167,4.014554
229178,-2.215551,-80.714191,4.393281
229278,-2.499058,-80.199383,4.728253
229378,-2.708373,-79.683996,5.029783
229478,-2.856427,-79.246271,5.264491
229578,-2.914747,-78.968923,5.356226
229678,-3.046709,-78.848847,5.451393
229778,-3.328225,-78.849566,5.642174
229878,-3.749584,-78.938659,5.938352
229978,-4.295841,-79.112639,6.356177
230078,-4.884917,-79.349027,6.858391
230178,-5.440219,-79.610745,7.398973
230278,-5.884174,-79.869592,7.912401
230378,-6.154065,-80.088172,8.328648
230478,-6.208508,-80.223765,8.596708
230578,-6.017323,-80.262733,8.67349
230678,-5.607215,-80.219054,8.555822
230778,-5.032793,-80.128568,8.262819
230878,-4.38519,-80.020971,7.852045
230978,-3.798654,-79.916225,7.429785
231078,-3.405369,-79.823162,7.103693
231178,-3.233195,-79.73324,6.902653
231278,-3.190248,-79.62984,6.782525
231378,-3.163476,-79.525665,6.670471
231478,-3.103405,-79.471812,6.517223
231578,-3.039655,-79.491318,6.348336
231678,-2.971537,-79.554326,6.178819
231778,-2.849745,-79.625971,5.976254
231878,-2.667293,-79.689907,5.733398
231978,-2.446877,-79.742138,5.468524
232078,-2.212757,-79.777577,5.201773
232178,-1.976622,-79.794823,4.944123
232278,-1.739168,-79.796701,4.696309
232378,-1.48678,-79.792583,4.439989
232478,-1.189725,-79.782999,4.138846
232578,-0.858781,-79.769647,3.796474
232678,-0.515907,-79.761585,3.433546
232778,-0.184097,-79.759173,3.067112
232878,0.105279,-79.754869,2.727209
232978,0.351358,-79.74591,2.419574
233078,0.567296,-79.733534,2.138961
233178,0.756085,-79.72548,1.88782
233278,0.936287,-79.734688,1.647144
233378,1.106846,-79.752359,1.416846
233478,1.270905,-79.765473,1.195147
233578,1.420185,-79.769374,0.989456
233678,1.562299,-79.768969,0.794251
233778,1.703896,-79.770934,0.608418
233878,1.854853,-79.785643,0.421473
233978,2.01581,-79.811255,0.233743
234078,2.168647,-79.842478,0.057363
234178,2.294879,-79.873181,-0.087662
234278,2.398145,-79.897243,-0.199611
234378,2.516026,-79.919287,-0.313684
234478,2.672309,-79.947263,-0.451321
234578,2.868441,-79.99817,-0.61404
234678,3.108864,-80.082692,-0.80314
234778,3.386303,-80.197826,-1.002565
234878,3.681463,-80.32209,-1.172045
234978,3.948487,-80.424114,-1.255987
235078,4.163349,-80.467363,-1.242512
235178,4.309553,-80.436632,-1.153699
235278,4.376528,-80.344869,-1.025607
235378,4.399602,-80.233014,-0.932988
235478,4.449356,-80.108756,-0.966681
235578,4.552226,-79.915583,-1.141009
235678,4.715513,-79.612359,-1.440969
235778,4.944348,-79.230955,-1.838747
235878,5.131931,-78.841989,-2.192978
235978,5.159607,-78.486269,-2.366035
236078,5.126435,-78.188756,-2.432489
236178,5.093086,-78.007859,-2.442169
236278,5.054843,-77.973137,-2.429897
236378,5.093892,-78.084377,-2.482062
236478,5.322276,-78.310504,-2.686723
236578,5.831635,-78.618738,-3.143624
236678,6.678403,-78.982899,-3.948245
236778,7.647637,-79.352028,-4.94855
236878,8.288905,-79.620416,-5.749039
236978,8.406971,-79.721874,-6.15767
237078,8.063,-79.676236,-6.174481
237178,7.512907,-79.564296,-5.977878
237278,6.973148,-79.46339,-5.739564
237378,6.548374,-79.411286,-5.537524
237478,6.306343,-79.412188,-5.423861
237578,6.267896,-79.47187,-5.427087
237678,6.346564,-79.594455,-5.493961
237778,6.419297,-79.761411,-5.528099
237878,6.456057,-79.946186,-5.486138
237978,6.463062,-80.13232,-5.377326
238078,6.428178,-80.309206,-5.215941
238178,6.305371,-80.471143,-5.004627
238278,6.05522,-80.605699,-4.731452
238378,5.723392,-80.710092,-4.442493
238478,5.343212,-80.789837,-4.145537
238578,4.944938,-80.857504,-3.841137
238678,4.545287,-80.930251,-3.527551
238778,4.137109,-81.012551,-3.196292
238878,3.759252,-81.10941,-2.892537
238978,3.458767,-81.227385,-2.663413
239078,3.279949,-81.366617,-2.542797
239178,3.23939,-81.520061,-2.536719
239278,3.346647,-81.684562,-2.653653
239378,3.583902,-81.854993,-2.869924
239478,3.874287,-82.018703,-3.110543
239578,4.119894,-82.161804,-3.286923
239678,4.24966,-82.276455,-3.339396
239778,4.246918,-82.360704,-3.257203
239878,4.113914,-82.421519,-3.047339
239978,3.905454,-82.473903,-2.769222
240078,3.657137,-82.527327,-2.460156
240178,3.361595,-82.589383,-2.113663
240278,3.012964,-82.657947,-1.723965
240378,2.598779,-82.72422,-1.274471
240478,2.132737,-82.77379,-0.767867
240578,1.629017,-82.794519,-0.20254
240678,1.117953,-82.784517,0.402027
240778,0.6091,-82.744653,1.043973
240878,0.090752,-82.673509,1.723661
240978,-0.403992,-82.572612,2.388234
241078,-0.880022,-82.445942,3.014835
241178,-1.322455,-82.294193,3.562727
241278,-1.745515,-82.106796,4.029761
241378,-2.135133,-81.876012,4.40583
241478,-2.46008,-81.598359,4.69053
241578,-2.702742,-81.269498,4.896789
241678,-2.864722,-80.862964,5.051916
241778,-2.952192,-80.369345,5.17913
241878,-2.972302,-79.83376,5.289745
241978,-2.929726,-79.326724,5.374697
242078,-2.879968,-78.903574,5.459145
242178,-2.84126,-78.588562,5.507429
242278,-2.850506,-78.375323,5.512292
242378,-2.844794,-78.269868,5.416764
242478,-2.771357,-78.273748,5.197574
242578,-2.651917,-78.356203,4.914379
242678,-2.475675,-78.493409,4.615159
242778,-2.247279,-78.661161,4.330949
242878,-1.980677,-78.826738,4.079692
242978,-1.653214,-78.960408,3.859254
243078,-1.199277,-79.035812,3.622389
243178,-0.643787,-79.0394,3.368718
243278,-0.058488,-78.989151,3.132897
243378,0.527008,-78.933408,2.909085
243478,1.071309,-78.917333,2.692122
243578,1.517458,-78.946051,2.506007
243678,1.786244,-78.990136,2.419497
243778,1.844285,-79.031381,2.457613
243878,1.756381,-79.07248,2.554844
243978,1.678562,-79.136179,2.570462
244078,1.661784,-79.244342,2.488493
244178,1.69824,-79.386845,2.354275
244278,1.786735,-79.539084,2.195735
244378,1.975897,-79.690784,1.987953
244478,2.279252,-79.842638,1.716805
244578,2.647319,-80.002296,1.408242
244678,3.005382,-80.179496,1.120044
244778,3.33465,-80.372981,0.869835
244878,3.604509,-80.574599,0.679881
244978,3.79497,-80.777545,0.563533
245078,3.905279,-80.981442,0.513427
245178,3.931828,-81.187922,0.519282
245278,3.903562,-81.398811,0.543787
245378,3.851047,-81.619818,0.568549
245478,3.798216,-81.850296,0.58596
245578,3.735145,-82.078926,0.615185
245678,3.657634,-82.289026,0.667634
245778,3.561574,-82.462893,0.746647
245878,3.435419,-82.589776,0.860629
245978,3.282264,-82.682972,1.01035
246078,3.096112,-82.760011,1.195806
246178,2.877129,-82.83699,1.413413
246278,2.586385,-82.907156,1.698331
246378,2.239485,-82.964281,2.042782
246478,1.861165,-83.002591,2.430576
246578,1.487852,-83.025,2.822861
246678,1.132666,-83.041163,3.201042
246778,0.829703,-83.057835,3.516404
246878,0.592972,-83.069298,3.740141
246978,0.466329,-83.056668,3.827567
247078,0.475034,-83.015652,3.77042
247178,0.630744,-82.957266,3.570894
247278,0.921725,-82.891008,3.257912
247378,1.28957,-82.81067,2.89813
247478,1.677332,-82.693459,2.54026
247578,2.012755,-82.515004,2.232561
247678,2.258354,-82.263458,1.981712
247778,2.371182,-81.934581,1.796348
247878,2.3839,-81.546308,1.643927
247978,2.305842,-81.133146,1.546649
248078,2.276461,-80.757675,1.405837
248178,2.526923,-80.498346,0.981409
248278,3.043715,-80.41917,0.262395
248378,3.675216,-80.526869,-0.573647
248478,4.377335,-80.769804,-1.468911
248578,5.186558,-81.082407,-2.464533
248678,6.070831,-81.379162,-3.531998
248778,6.877071,-81.582589,-4.527023
248878,7.396751,-81.643679,-5.241217
248978,7.602076,-81.563094,-5.646834
249078,7.601434,-81.389823,-5.855028
249178,7.474297,-81.189845,-5.923748
249278,7.231715,-81.012223,-5.859852
249378,6.938818,-80.896175,-5.742476
249478,6.677471,-80.871611,-5.679755
249578,6.514155,-80.942704,-5.730358
249678,6.452927,-81.080123,-5.87118
249778,6.482214,-81.252062,-6.07366
249878,6.581163,-81.438825,-6.312973
249978,6.713488,-81.626505,-6.565352
250078,6.830262,-81.803228,-6.802374
250178,6.894193,-81.960611,-7.002108
250278,6.904602,-82.098699,-7.163735
250378,6.903552,-82.229539,-7.319179
250478,6.950671,-82.367627,-7.514858
250578,7.069335,-82.52066,-7.775834
250678,7.276583,-82.701284,-8.119843
250778,7.557277,-82.906874,-8.533692
250878,7.904913,-83.12224,-9.013917
250978,8.305424,-83.328725,-9.539733
251078,8.707289,-83.510851,-10.054057
251178,9.066058,-83.656648,-10.508628
251278,9.363198,-83.777915,-10.881287
251378,9.598427,-83.884166,-11.170394
251478,9.808858,-83.980809,-11.401917
251578,10.000426,-84.078564,-11.577336
251678,10.131205,-84.176516,-11.662846
251778,10.153433,-84.263115,-11.624468
251878,10.031026,-84.324539,-11.447045
251978,9.716088,-84.353664,-11.098666
252078,9.198137,-84.356279,-10.569774
252178,8.456182,-84.327733,-9.825831
252278,7.522018,-84.2641,-8.877821
252378,6.477321,-84.17218,-7.790164
252478,5.409763,-84.055763,-6.651466
252578,4.3678,-83.922119,-5.531441
252678,3.389697,-83.773353,-4.491149
252778,2.508053,-83.607968,-3.568805
252878,1.732575,-83.420581,-2.766558
252978,1.058063,-83.190327,-2.069656
253078,0.458898,-82.895669,-1.434544
253178,-0.072863,-82.52632,-0.838111
253278,-0.52689,-82.102726,-0.282335
253378,-0.935795,-81.662926,0.250608
253478,-1.302188,-81.264508,0.714854
253578,-1.60924,-80.958637,1.046641
253678,-1.848624,-80.774466,1.230468
253778,-2.044551,-80.707004,1.318429
253878,-2.228312,-80.717565,1.374677
253978,-2.450196,-80.775692,1.45773
254078,-2.730868,-80.893942,1.611862
254178,-3.046905,-81.096481,1.846635
254278,-3.31016,-81.371839,2.091204
254378,-3.407569,-81.693784,2.245622
254478,-3.277281,-82.016309,2.25968
254578,-2.979319,-82.292904,2.197884
254678,-2.534675,-82.510868,2.074636
254778,-1.999922,-82.670733,1.907261
254878,-1.478801,-82.772037,1.749091
254978,-1.009601,-82.82747,1.594301
255078,-0.691791,-82.851556,1.507292
255178,-0.624608,-82.849348,1.586886
255278,-0.842577,-82.812958,1.888845
255378,-1.229709,-82.724525,2.321164
255478,-1.616875,-82.595263,2.721737
255578,-1.871851,-82.478873,2.956654
255678,-2.042419,-82.432408,3.094993
255778,-2.160702,-82.455239,3.195754
255878,-2.152368,-82.512369,3.191281
255978,-2.007872,-82.585754,3.081667
256078,-1.727412,-82.676046,2.868252
256178,-1.302295,-82.78051,2.533971
256278,-0.779892,-82.893458,2.112039
256378,-0.261233,-83.00469,1.689327
256478,0.190391,-83.112088,1.325907
256578,0.57552,-83.21586,1.024066
256678,0.936169,-83.313129,0.745984
256778,1.284276,-83.408932,0.479827
256878,1.588737,-83.509565,0.250117
256978,1.837542,-83.610173,0.07189
257078,2.038796,-83.705054,-0.066242
257178,2.221475,-83.794915,-0.196075
257278,2.408875,-83.882449,-0.344082
257378,2.600836,-83.966483,-0.511907
257478,2.771042,-84.04412,-0.668532
257578,2.917381,-84.108763,-0.810618
257678,3.042141,-84.154994,-0.938307
257778,3.166997,-84.183609,-1.068783
257878,3.331861,-84.195922,-1.245576
257978,3.550956,-84.192236,-1.483028
258078,3.800449,-84.173631,-1.752357
258178,4.065323,-84.138909,-2.028075
258278,4.346972,-84.086928,-2.306753
258378,4.642187,-84.020589,-2.586383
258478,4.967738,-83.943452,-2.897027
258578,5.325078,-83.868954,-3.24907
258678,5.727611,-83.817247,-3.651791
258778,6.191991,-83.789972,-4.106274
258878,6.699519,-83.74962,-4.561688
258978,7.196811,-83.65553,-4.950904
259078,7.583049,-83.486082,-5.196513
259178,7.777983,-83.227943,-5.262433
259278,7.740012,-82.871474,-5.151835
259378,7.546187,-82.42264,-4.978086
259478,7.328785,-81.880904,-4.876675
259578,7.158201,-81.262871,-4.874902
259678,7.079455,-80.614615,-4.957433
259778,7.092892,-79.997973,-5.081248
259878,7.324288,-79.496573,-5.355903
259978,7.718528,-79.193896,-5.737648
260078,8.228942,-79.115243,-6.187319
260178,8.824549,-79.216881,-6.70464
260278,9.492218,-79.44166,-7.285866
260378,10.236716,-79.726246,-7.951033
260478,10.994351,-80.000115,-8.684336
260578,11.559537,-80.183523,-9.317355
260678,11.781795,-80.223464,-9.7039
260778,11.744374,-80.132384,-9.893842
260878,11.619728,-79.980801,-9.998613
260978,11.492669,-79.845297,-10.058042
261078,11.42736,-79.761801,-10.126381
261178,11.429542,-79.74005,-10.210919
261278,11.469605,-79.78135,-10.30672
261378,11.51709,-79.877337,-10.405822
261478,11.578602,-80.011996,-10.509411
261578,11.639998,-80.168793,-10.58399
261678,11.69208,-80.33878,-10.625712
261778,11.682985,-80.506089,-10.612965
261878,11.599794,-80.658008,-10.55689
261978,11.448142,-80.795466,-10.480422
262078,11.243582,-80.915255,-10.391609
262178,11.024374,-81.015169,-10.306943
262278,10.79166,-81.098451,-10.203669
262378,10.580728,-81.175854,-10.102877
262478,10.419511,-81.257599,-10.029012
262578,10.318966,-81.353752,-9.995886
262678,10.27094,-81.470084,-9.998964
262778,10.262943,-81.603119,-10.027383
262878,10.278401,-81.744538,-10.068875
262978,10.329532,-81.889859,-10.133287
263078,10.42085,-82.031627,-10.224299
263178,10.542804,-82.163017,-10.327103
263278,10.657383,-82.271153,-10.407656
263378,10.716988,-82.351051,-10.431342
263478,10.725734,-82.413709,-10.409367
263578,10.709096,-82.47428,-10.368754
263678,10.659068,-82.536423,-10.300403
263778,10.545459,-82.594382,-10.168267
263878,10.326383,-82.636137,-9.920011
263978,9.993713,-82.659237,-9.535253
264078,9.567444,-82.673075,-9.038236
264178,9.092028,-82.686968,-8.478091
264278,8.557233,-82.70503,-7.845928
264378,7.936501,-82.713291,-7.112346
264478,7.206862,-82.698829,-6.256545
264578,6.390157,-82.656077,-5.306881
264678,5.561385,-82.598234,-4.337187
264778,4.768171,-82.537843,-3.406504
264878,3.99877,-82.467948,-2.521983
264978,3.211692,-82.354803,-1.650945
265078,2.388174,-82.181409,-0.769831
265178,1.57172,-81.951179,0.092553
265278,0.800406,-81.673948,0.919607
265378,0.104405,-81.365032,1.702921
265478,-0.512319,-81.034768,2.458498
265578,-1.086294,-80.667489,3.232375
265678,-1.621217,-80.240923,4.029839
265778,-2.031081,-79.76939,4.756342
265878,-2.303237,-79.272106,5.351976
265978,-2.520195,-78.802488,5.839171
266078,-2.699689,-78.419371,6.185877
266178,-2.891855,-78.144972,6.410204
266278,-3.081515,-77.998086,6.537747
266378,-3.248026,-77.966181,6.595593
266478,-3.438532,-78.045323,6.666598
266578,-3.68303,-78.277109,6.818798
266678,-3.933408,-78.683472,7.037235
266778,-4.089288,-79.21611,7.262321
266878,-4.125412,-79.767703,7.494952
266978,-4.192374,-80.251167,7.886629
267078,-4.301395,-80.632576,8.402378
267178,-4.465043,-80.891413,9.000713
267278,-4.688983,-81.02794,9.640909
267378,-4.935764,-81.069151,10.244254
267478,-5.184617,-81.052992,10.75708
267578,-5.44609,-80.997058,11.188469
267678,-5.722264,-80.900743,11.559685
267778,-5.987194,-80.767326,11.857677
267878,-6.165277,-80.628547,12.013967
267978,-6.230318,-80.555671,12.025739
268078,-6.250253,-80.597089,12.007191
268178,-6.283697,-80.722152,12.025776
268278,-6.278691,-80.878128,12.014432
268378,-6.210847,-81.043423,11.93599
268478,-6.09759,-81.217959,11.805431
268578,-5.961088,-81.402459,11.643165
268678,-5.841445,-81.59163,11.493539
268778,-5.781371,-81.777246,11.399942
268878,-5.81071,-81.950833,11.390322
268978,-5.882119,-82.116198,11.410632
269078,-5.973139,-82.286104,11.436962
269178,-6.047956,-82.471762,11.442753
269278,-6.092615,-82.675404,11.41885
269378,-6.113712,-82.890885,11.372566
269478,-6.141891,-83.101246,11.332669
269578,-6.211846,-83.296119,11.334908
269678,-6.335698,-83.471577,11.399711
269778,-6.496389,-83.626543,11.509247
269878,-6.677265,-83.763861,11.641856
269978,-6.857264,-83.877613,11.77067
270078,-7.031527,-83.965755,11.885741
270178,-7.199047,-84.027405,11.986218
270278,-7.356731,-84.065743,12.070895
270378,-7.496877,-84.082591,12.132239
270478,-7.647495,-84.093877,12.207671
270578,-7.819483,-84.104542,12.319325
270678,-7.996369,-84.126488,12.457912
270778,-8.15988,-84.164363,12.605749
270878,-8.232811,-84.207469,12.689996
270978,-8.161769,-84.238861,12.658874
271078,-7.948791,-84.254757,12.512175
271178,-7.578836,-84.258867,12.24048
271278,-7.057601,-84.256179,11.862996
271378,-6.425703,-84.238527,11.425433
271478,-5.722727,-84.183876,10.944829
271578,-4.972222,-84.078407,10.405791
271678,-4.201005,-83.929115,9.791464
271778,-3.405501,-83.754806,9.075213
271878,-2.580349,-83.563021,8.2504
271978,-1.684156,-83.343364,7.283558
272078,-0.716104,-83.082021,6.201618
272178,0.299316,-82.793562,5.061644
272278,1.266387,-82.492222,3.989157
272378,2.069353,-82.192994,3.109624
272478,2.718127,-81.932137,2.417652
272578,3.278056,-81.763035,1.85434
272678,3.79768,-81.707644,1.361704
272778,4.27488,-81.759912,0.933476
272878,4.756167,-81.886491,0.509268
272978,5.269403,-82.053949,0.046531
273078,5.885767,-82.253923,-0.544975
273178,6.658645,-82.473011,-1.338882
273278,7.439464,-82.66198,-2.210441
273378,7.871413,-82.75796,-2.801707
273478,7.934125,-82.750522,-3.075601
273578,7.728163,-82.688025,-3.092087
273678,7.405295,-82.625391,-2.961002
273778,7.081294,-82.598425,-2.767729
273878,6.817614,-82.609406,-2.556681
273978,6.627905,-82.644568,-2.354487
274078,6.473916,-82.690775,-2.146403
274178,6.288558,-82.741239,-1.891602
274278,6.033599,-82.811135,-1.573349
274378,5.75213,-82.922409,-1.239882
274478,5.444781,-83.073792,-0.88746
274578,5.110291,-83.247116,-0.529121
274678,4.733145,-83.428202,-0.166042
274778,4.334853,-83.60299,0.16733
274878,3.926104,-83.754338,0.467257
274978,3.496402,-83.866613,0.759882
275078,3.044316,-83.942541,1.065117
275178,2.620588,-84.004276,1.347085
275278,2.255072,-84.078324,1.582559
275378,1.978059,-84.178254,1.739155
275478,1.764611,-84.30526,1.838019
275578,1.6265,-84.447775,1.863956
275678,1.572123,-84.589954,1.806318
275778,1.627967,-84.717643,1.644062
275878,1.798671,-84.825166,1.381084
275978,2.052797,-84.914133,1.052573
276078,2.336599,-84.999344,0.709518
276178,2.588958,-85.093241,0.411668
276278,2.787213,-85.199041,0.186591
276378,2.932616,-85.307492,0.039612
276478,2.988316,-85.405391,0.005577
276578,2.926407,-85.48502,0.094673
276678,2.72273,-85.545427,0.31872
276778,2.401201,-85.591337,0.648451
276878,1.983341,-85.631279,1.070187
276978,1.478234,-85.665119,1.577656
277078,0.917696,-85.688418,2.141616
277178,0.337953,-85.689626,2.726783
277278,-0.241405,-85.660908,3.316133
277378,-0.819871,-85.593346,3.915701
277478,-1.423349,-85.483192,4.558937
277578,-1.998531,-85.325742,5.183304
277678,-2.456669,-85.122656,5.689904
277778,-2.752075,-84.883888,6.028184
277878,-2.915692,-84.617371,6.223087
277978,-2.974183,-84.32389,6.299807
278078,-2.986082,-83.986183,6.319351
278178,-2.961844,-83.58462,6.294849
278278,-2.880264,-83.10935,6.213152
278378,-2.706784,-82.575021,6.054873
278478,-2.496598,-82.010894,5.88254
278578,-2.292717,-81.472006,5.719917
278678,-2.103391,-81.028317,5.547882
278778,-1.855082,-80.715931,5.262958
278878,-1.547504,-80.534433,4.838351
278978,-1.215423,-80.461305,4.321579
279078,-0.931926,-80.466775,3.818729
279178,-0.741088,-80.531013,3.402035
279278,-0.613513,-80.646322,3.078627
279378,-0.477011,-80.803955,2.813538
279478,-0.253358,-80.986987,2.558516
279578,0.118912,-81.158242,2.255355
279678,0.636832,-81.285716,1.885022
279778,1.249944,-81.360526,1.483647
279878,1.927938,-81.405728,1.065233
279978,2.657304,-81.451961,0.615063
280078,3.408287,-81.499321,0.135993
280178,4.102392,-81.524547,-0.322743
280278,4.630986,-81.515552,-0.678979
280378,4.8812,-81.46934,-0.845668
280478,4.846112,-81.379207,-0.810555
280578,4.57943,-81.246641,-0.593495
280678,4.216225,-81.090061,-0.317904
280778,3.942468,-80.944381,-0.164576
280878,3.822592,-80.854233,-0.17479
280978,3.833066,-80.823279,-0.293412
281078,3.963117,-80.839465,-0.488477
281178,4.22203,-80.89838,-0.762986
281278,4.590575,-80.990583,-1.107711
281378,5.028084,-81.104938,-1.499622
281478,5.479856,-81.229281,-1.89744
281578,5.922125,-81.359276,-2.279921
281678,6.323594,-81.482856,-2.620501
281778,6.680404,-81.587449,-2.918629
281878,6.991248,-81.671505,-3.180136
281978,7.267555,-81.743468,-3.416567
282078,7.517188,-81.812305,-3.635238
282178,7.743809,-81.890759,-3.839415
282278,7.962077,-81.988245,-4.046918
282378,8.172627,-82.107379,-4.264989
282478,8.367125,-82.244558,-4.481836
282578,8.532285,-82.393986,-4.675753
282678,8.644073,-82.54069,-4.817804
282778,8.715674,-82.673845,-4.914143
282878,8.753603,-82.792338,-4.968767
282978,8.764589,-82.894686,-4.990006
283078,8.774533,-82.980445,-5.010975
283178,8.79749,-83.056829,-5.052973
283278,8.862385,-83.135115,-5.134556
283378,8.993274,-83.222999,-5.278757
283478,9.200274,-83.325797,-5.492668
283578,9.468367,-83.444498,-5.757774
283678,9.790176,-83.578489,-6.064011
283778,10.141281,-83.723769,-6.388018
283878,10.5116,-83.872235,-6.71522
283978,10.888474,-84.015021,-7.031919
284078,11.292044,-84.150711,-7.357661
284178,11.751012,-84.279578,-7.716779
284278,12.259344,-84.391365,-8.103764
284378,12.752663,-84.467235,-8.452806
284478,13.181543,-84.490841,-8.724625
284578,13.485505,-84.456641,-8.8726
284678,13.67082,-84.376782,-8.92246
284778,13.876426,-84.269834,-9.034572
284878,14.218644,-84.138002,-9.34295
284978,14.585161,-83.950505,-9.752017
285078,14.990359,-83.690966,-10.234066
285178,15.377748,-83.355452,-10.724192
285278,15.731547,-82.963166,-11.183146
285378,15.966323,-82.541038,-11.501601
285478,15.951052,-82.122724,-11.529506
285578,15.778774,-81.77489,-11.329233
285678,15.722924,-81.55972,-11.139278
285778,15.791576,-81.4763,-11.012764
285878,15.979517,-81.491348,-11.006954
285978,16.354848,-81.569356,-11.212742
286078,16.950755,-81.684655,-11.658378
286178,17.689494,-81.830746,-12.281055
286278,18.473624,-82.000423,-13.011265
286378,19.200229,-82.161389,-13.768043
286478,19.68605,-82.272154,-14.366828
286578,19.806373,-82.313226,-14.647179
286678,19.595323,-82.298419,-14.609001
286778,19.143184,-82.249954,-14.335721
286878,18.568965,-82.189395,-13.934755
286978,17.988736,-82.133671,-13.509118
287078,17.488382,-82.089185,-13.134678
287178,17.121216,-82.051868,-12.855452
287278,16.865178,-82.019283,-12.644353
287378,16.655487,-81.986465,-12.447625
287478,16.40423,-81.948221,-12.199442
287578,16.065847,-81.902647,-11.881514
287678,15.673727,-81.866397,-11.536223
287778,15.240894,-81.847194,-11.175094
287878,14.743997,-81.841986,-10.775532
287978,14.188961,-81.839052,-10.341466
288078,13.566475,-81.827603,-9.863719
288178,12.885367,-81.813799,-9.349035
288278,12.173974,-81.799404,-8.820131
288378,11.40993,-81.779133,-8.247188
288478,10.589223,-81.748246,-7.618703
288578,9.72371,-81.711447,-6.940592
288678,8.841542,-81.681153,-6.232577
288778,7.994027,-81.666375,-5.534968
288878,7.238268,-81.672098,-4.902446
288978,6.596515,-81.697,-4.359145
289078,6.058144,-81.734667,-3.895996
289178,5.584356,-81.774194,-3.483881
289278,5.12689,-81.808132,-3.086915
289378,4.644493,-81.832178,-2.667844
289478,4.115721,-81.850242,-2.204463
289578,3.504113,-81.867909,-1.654726
289678,2.815985,-81.884734,-1.019959
289778,2.0707,-81.899826,-0.318989
289878,1.285246,-81.914424,0.428307
289978,0.465248,-81.929452,1.211236
290078,-0.348667,-81.940764,1.99072
290178,-1.136769,-81.936731,2.755397
290278,-1.880026,-81.911495,3.491273
290378,-2.597875,-81.86484,4.213818
290478,-3.299765,-81.802881,4.928909
290578,-4.028655,-81.735746,5.683026
290678,-4.778879,-81.668442,6.481619
290778,-5.553812,-81.606309,7.328059
290878,-6.36503,-81.555458,8.225587
290978,-7.192424,-81.511752,9.140371
291078,-8.035264,-81.46358,10.055712
291178,-8.858793,-81.396906,10.919277
291278,-9.613719,-81.307739,11.680225
291378,-10.26339,-81.208938,12.316487
291478,-10.801041,-81.097976,12.829559
291578,-11.237808,-80.979249,13.239438
291678,-11.614551,-80.862339,13.59918
291778,-11.923437,-80.739854,13.9157
291878,-12.134597,-80.585278,14.179823
291978,-12.233988,-80.374261,14.398515
292078,-12.291327,-80.108824,14.646518
292178,-12.410333,-79.822054,14.985827
292278,-12.601781,-79.561252,15.376068
292378,-12.872714,-79.359136,15.792267
292478,-13.168067,-79.220879,16.174153
292578,-13.510018,-79.153262,16.547054
292678,-13.80913,-79.187248,16.8051
292778,-13.966586,-79.335644,16.851137
292878,-14.01045,-79.581575,16.720414
292978,-13.965238,-79.903908,16.460914
293078,-13.823701,-80.288397,16.145862
293178,-13.595912,-80.742022,15.837925
293278,-13.306266,-81.247525,15.577688
293378,-12.896295,-81.740421,15.297689
293478,-12.305045,-82.146685,14.911314
293578,-11.500509,-82.436866,14.345486
293678,-10.579789,-82.643153,13.663596
293778,-9.636387,-82.789772,12.943304
293878,-8.61657,-82.879335,12.129838
293978,-7.544885,-82.901726,11.242969
294078,-6.466189,-82.853075,10.318881
294178,-5.473525,-82.745243,9.430298
294278,-4.61166,-82.611775,8.615796
294378,-3.869995,-82.493293,7.868846
294478,-3.207123,-82.417501,7.16252
294578,-2.593094,-82.391246,6.486803
294678,-2.034423,-82.409544,5.878526
294778,-1.497695,-82.458082,5.310973
294878,-0.936495,-82.528653,4.736033
294978,-0.316878,-82.620605,4.114049
295078,0.348723,-82.731732,3.456025
295178,1.036445,-82.850815,2.784319
295278,1.689179,-82.955516,2.156387
295378,2.290455,-83.033815,1.590848
295478,2.858077,-83.08873,1.07481
295578,3.418215,-83.131427,0.577462
295678,3.967128,-83.175065,0.095725
295778,4.492929,-83.224517,-0.362625
295878,4.961798,-83.281234,-0.768591
295978,5.339643,-83.346199,-1.093821
296078,5.608328,-83.422922,-1.319645
296178,5.77711,-83.512102,-1.451385
296278,5.855484,-83.61317,-1.500615
296378,5.85744,-83.722093,-1.483142
296478,5.832229,-83.834185,-1.451372
296578,5.810216,-83.940044,-1.434432
296678,5.802896,-84.022924,-1.443069
296778,5.816863,-84.076852,-1.48186
296878,5.859083,-84.122521,-1.551499
296978,5.928074,-84.182226,-1.657369
297078,5.961579,-84.25113,-1.737771
297178,5.891046,-84.297428,-1.720076
297278,5.739571,-84.294936,-1.621584
297378,5.587324,-84.248197,-1.513781
297478,5.503923,-84.172174,-1.463734
297578,5.563389,-84.0882,-1.556777
297678,5.777833,-84.015155,-1.807472
297778,6.165337,-83.950179,-2.214522
297878,6.69461,-83.866743,-2.726135
297978,7.277336,-83.740184,-3.244205
298078,7.836891,-83.55344,-3.697954
298178,8.333049,-83.302605,-4.081886
298278,8.778443,-82.994576,-4.446596
298378,9.140946,-82.637717,-4.792066
298478,9.387112,-82.237468,-5.104605
298578,9.560277,-81.803824,-5.415448
298678,9.673534,-81.335088,-5.705003
298778,9.739547,-80.83297,-5.947547
298878,9.723274,-80.330866,-6.07772
298978,9.796189,-79.898542,-6.259938
299078,10.050667,-79.626448,-6.613835
299178,10.497659,-79.562246,-7.160276
299278,11.131795,-79.697059,-7.868579
299378,11.915644,-79.975167,-8.674884
299478,12.920789,-80.333976,-9.654919
299578,14.103562,-80.698003,-10.822025
299678,15.157242,-80.972195,-11.941218
299778,15.705802,-81.082909,-12.65752
299878,15.712269,-81.022215,-12.909175
299978,15.399679,-80.854429,-12.86997
300078,14.925446,-80.656965,-12.635115
300178,14.421305,-80.505844,-12.302632
300278,13.973665,-80.438472,-11.966948
300378,13.611338,-80.451988,-11.683335
300478,13.364063,-80.530741,-11.497079
300578,13.229148,-80.654374,-11.407234
300678,13.186314,-80.802941,-11.393231
300778,13.21672,-80.965182,-11.43491
300878,13.287753,-81.136163,-11.505851
300978,13.354275,-81.303675,-11.585415
301078,13.381848,-81.460647,-11.659636
301178,13.359349,-81.598475,-11.721108
301278,13.316156,-81.718284,-11.78519
301378,13.262655,-81.829455,-11.843075
301478,13.216067,-81.950038,-11.902576
301578,13.211632,-82.095232,-11.997991
301678,13.248688,-82.270267,-12.129596
301778,13.320692,-82.471656,-12.291636
301878,13.401308,-82.680447,-12.451917
301978,13.475711,-82.878084,-12.594786
302078,13.568107,-83.053081,-12.73917
302178,13.727807,-83.225275,-12.932743
302278,13.974711,-83.404988,-13.201168
302378,14.260741,-83.595655,-13.49473
302478,14.488791,-83.783352,-13.713093
302578,14.625672,-83.950442,-13.827056
302678,14.675873,-84.094274,-13.853032
302778,14.650468,-84.217435,-13.810351
302878,14.55266,-84.326255,-13.708197
302978,14.365646,-84.429591,-13.534006
303078,14.08397,-84.530678,-13.271129
303178,13.651316,-84.616929,-12.850732
303278,13.01271,-84.670839,-12.20948
303378,12.208565,-84.688444,-11.382962
303478,11.35718,-84.687802,-10.486467
303578,10.567168,-84.687344,-9.632107
303678,9.851864,-84.687741,-8.850334
303778,9.231183,-84.683696,-8.177035
303878,8.668005,-84.662787,-7.603874
303978,8.056566,-84.603173,-7.046569
304078,7.359212,-84.497125,-6.463087
304178,6.620134,-84.353559,-5.875261
304278,5.948674,-84.166573,-5.347586
304378,5.341067,-83.930818,-4.82529
304478,4.801785,-83.650267,-4.289729
304578,4.418508,-83.349307,-3.810627
304678,4.255056,-83.072539,-3.485019
304778,4.277017,-82.875466,-3.371122
304878,4.42808,-82.774373,-3.508844
304978,4.648652,-82.737907,-3.87056
305078,4.886515,-82.730455,-4.339045
305178,5.09883,-82.727074,-4.818046
305278,5.286387,-82.747457,-5.276607
305378,5.519761,-82.825126,-5.75817
305478,5.921776,-82.966274,-6.358692
305578,6.567553,-83.146248,-7.133978
305678,7.470783,-83.336011,-8.097904
305778,8.56038,-83.514242,-9.190919
305878,9.795203,-83.687519,-10.381407
305978,11.111779,-83.865613,-11.610418
306078,12.404576,-84.044265,-12.774006
306178,13.628457,-84.207361,-13.841638
306278,14.619431,-84.318766,-14.673367
306378,15.238602,-84.350489,-15.141859
306478,15.42918,-84.301285,-15.200645
306578,15.296251,-84.203032,-14.960368
306678,14.969396,-84.095149,-14.558106
306778,14.546289,-84.004478,-14.09909
306878,14.09118,-83.929502,-13.656654
306978,13.65157,-83.853952,-13.286147
307078,13.233255,-83.771285,-12.968879
307178,12.817304,-83.681947,-12.662068
307278,12.433019,-83.58697,-12.372734
307378,12.165088,-83.497987,-12.168921
307478,12.088597,-83.440864,-12.116139
307578,12.209858,-83.426706,-12.218977
307678,12.474282,-83.449192,-12.444782
307778,12.822774,-83.497816,-12.749535
307878,13.244009,-83.563158,-13.138789
307978,13.735328,-83.637511,-13.613284
308078,14.233977,-83.705032,-14.107065
308178,14.651993,-83.759965,-14.522711
308278,15.001359,-83.810077,-14.868397
308378,15.303874,-83.865965,-15.159706
308478,15.572523,-83.933164,-15.410705
308578,15.773911,-84.007074,-15.595658
308678,15.919483,-84.075086,-15.733526
308778,16.002469,-84.128659,-15.820122
308878,16.100519,-84.171003,-15.925634
308978,16.245297,-84.209728,-16.074183
309078,16.398013,-84.242696,-16.222567
309178,16.500249,-84.267919,-16.313644
309278,16.529504,-84.29042,-16.328871
309378,16.503807,-84.310519,-16.296574
309478,16.445259,-84.329941,-16.240409
309578,16.393013,-84.353045,-16.198187
309678,16.407334,-84.389133,-16.220894
309778,16.514926,-84.436371,-16.324868
309878,16.720793,-84.485908,-16.503627
309978,16.974497,-84.524938,-16.702514
310078,17.159107,-84.536309,-16.814685
310178,17.235283,-84.511247,-16.811421
310278,17.244002,-84.461451,-16.747193
310378,17.280913,-84.4097,-16.727777
310478,17.475586,-84.374758,-16.873909
310578,17.827444,-84.343945,-17.167794
310678,18.212454,-84.276947,-17.462248
310778,18.501821,-84.143584,-17.624324
310878,18.693195,-83.942592,-17.665337
310978,18.832862,-83.680911,-17.66441
311078,18.896367,-83.358918,-17.638382
311178,18.795884,-82.968251,-17.541904
311278,18.525233,-82.499578,-17.377137
311378,18.187792,-81.965977,-17.196657
311478,17.830896,-81.417195,-16.981686
311578,17.52237,-80.902768,-16.749044
311678,17.50613,-80.479745,-16.718973
311778,17.696032,-80.210128,-16.831045
311878,18.016715,-80.135881,-17.047595
311978,18.479281,-80.231685,-17.373204
312078,19.159223,-80.448943,-17.83132
312178,20.141224,-80.743063,-18.506497
312278,21.366091,-81.055234,-19.443115
312378,22.396348,-81.30337,-20.304048
312478,22.657279,-81.390169,-20.56115
312578,22.013003,-81.281112,-20.066068
312678,20.87929,-81.027833,-19.186073
312778,19.663311,-80.759969,-18.252583
312878,18.642473,-80.57505,-17.486056
312978,17.935628,-80.495503,-16.950544
313078,17.509818,-80.490232,-16.591198
313178,17.27596,-80.511862,-16.331271
313278,17.145963,-80.533025,-16.114748
313378,17.060117,-80.554629,-15.895853
313478,17.009228,-80.599313,-15.680241
313578,16.978687,-80.683759,-15.480348
313678,16.928513,-80.803136,-15.282681
313778,16.795492,-80.936699,-15.051732
313878,16.527285,-81.055854,-14.747974
313978,16.129788,-81.139873,-14.370769
314078,15.612976,-81.186471,-13.905638
314178,15.048935,-81.206187,-13.395176
314278,14.472057,-81.206847,-12.865719
314378,13.920294,-81.200301,-12.357897
314478,13.435065,-81.200696,-11.912503
314578,13.010851,-81.217501,-11.518183
314678,12.634092,-81.247476,-11.160404
314778,12.294982,-81.286467,-10.83345
314878,11.977795,-81.326077,-10.518839
314978,11.660793,-81.369555,-10.198075
315078,11.324723,-81.402595,-9.850502
315178,10.968353,-81.417572,-9.459007
315278,10.669589,-81.421556,-9.093992
315378,10.390558,-81.407573,-8.720996
315478,10.097632,-81.367499,-8.315922
315578,9.76147,-81.302372,-7.854789
315678,9.380859,-81.2205,-7.336593
315778,8.958613,-81.135423,-6.771677
315878,8.489298,-81.063699,-6.168522
315978,7.951487,-81.009951,-5.517142
316078,7.330333,-80.96281,-4.811936
316178,6.626464,-80.904799,-4.049278
316278,5.897031,-80.824779,-3.278934
316378,5.169537,-80.726879,-2.524606
316478,4.472441,-80.618122,-1.814866
316578,3.846924,-80.511963,-1.188906
316678,3.308574,-80.4247,-0.659646
316778,2.841615,-80.363235,-0.208081
316878,2.445943,-80.325801,0.167714
316978,2.119771,-80.294851,0.475685
317078,1.840353,-80.246251,0.743379
317178,1.598248,-80.170694,0.980411
317278,1.390523,-80.066367,1.197269
317378,1.204728,-79.92846,1.42163
317478,0.987325,-79.742196,1.709226
317578,0.714918,-79.484933,2.079515
317678,0.359885,-79.145883,2.555536
317778,-0.06439,-78.742328,3.125477
317878,-0.428886,-78.311984,3.672109
317978,-0.678828,-77.903659,4.138428
318078,-0.81685,-77.580863,4.490285
318178,-0.833427,-77.386009,4.656263
318278,-0.699471,-77.354314,4.542452
318378,-0.5243,-77.471128,4.280034
318478,-0.426514,-77.673483,4.028007
318578,-0.420866,-77.932592,3.835925
318678,-0.473515,-78.281336,3.721931
318778,-0.520769,-78.756317,3.660069
318878,-0.477643,-79.337481,3.615881
318978,-0.290572,-79.962023,3.579722
319078,0.052915,-80.550444,3.532734
319178,0.460088,-81.022425,3.525563
319278,0.877485,-81.329198,3.553231
319378,1.249662,-81.486009,3.607252
319478,1.613477,-81.540843,3.595861
319578,1.944349,-81.553387,3.521671
319678,2.163093,-81.563448,3.474523
319778,2.219364,-81.583378,3.520521
319878,2.113192,-81.616398,3.668686
319978,1.95764,-81.664657,3.823698
320078,1.882723,-81.73611,3.878852
320178,1.878936,-81.857335,3.855585
320278,1.875549,-82.022545,3.828804
320378,1.884861,-82.205753,3.795865
320478,1.914745,-82.390069,3.758922
320578,1.927179,-82.574048,3.757116
320678,1.852284,-82.755809,3.861001
320778,1.674861,-82.933751,4.078008
320878,1.393315,-83.104567,4.398751
320978,1.024066,-83.268432,4.798428
321078,0.605555,-83.42895,5.234002
321178,0.187536,-83.586359,5.662937
321278,-0.17868,-83.736865,6.032949
321378,-0.471003,-83.880493,6.318998
321478,-0.735329,-84.02018,6.569066
321578,-0.98821,-84.164168,6.804796
321678,-1.239871,-84.321766,7.041597
321778,-1.470456,-84.493043,7.259486
321878,-1.635348,-84.671347,7.415068
321978,-1.732282,-84.847584,7.500212
322078,-1.776151,-85.007777,7.521571
322178,-1.800087,-85.142654,7.509939
322278,-1.803507,-85.248915,7.466503
322378,-1.782283,-85.338252,7.384255
322478,-1.708448,-85.422393,7.243317
322578,-1.538506,-85.511014,7.011146
322678,-1.204878,-85.588948,6.626253
322778,-0.702931,-85.634035,6.086154
322878,-0.043211,-85.63811,5.406175
322978,0.744548,-85.614393,4.623523
323078,1.704288,-85.578821,3.691426
323178,2.83739,-85.543479,2.600522
323278,4.033833,-85.491119,1.461223
323378,5.174343,-85.402797,0.39958
323478,6.135736,-85.26486,-0.451164
323578,6.906064,-85.069827,-1.098815
323678,7.514219,-84.823356,-1.618395
323778,8.005124,-84.525896,-2.10515
323878,8.462688,-84.17728,-2.669696
323978,8.937821,-83.793081,-3.349293
324078,9.482849,-83.392668,-4.13873
324178,9.936465,-82.978811,-4.832733
324278,10.240753,-82.571862,-5.335871
324378,10.743777,-82.245341,-5.989174
324478,11.513537,-82.06579,-6.867799
324578,12.515841,-82.070859,-7.916602
324678,13.539613,-82.225983,-8.922946
324778,14.6522,-82.458394,-9.965487
324878,15.941773,-82.709195,-11.151662
324978,17.341122,-82.941942,-12.478602
325078,18.326929,-83.093896,-13.503861
325178,18.371907,-83.109609,-13.720008
325278,17.614958,-82.98737,-13.21448
325378,16.574417,-82.780997,-12.441229
325478,15.511772,-82.56668,-11.611493
325578,14.572437,-82.390256,-10.843184
325678,13.841475,-82.261983,-10.208792
325778,13.356598,-82.176569,-9.759205
325878,13.107609,-82.130859,-9.518356
325978,13.035581,-82.131908,-9.450725
326078,13.065561,-82.176766,-9.48658
326178,13.086901,-82.234792,-9.525933
326278,13.020863,-82.286839,-9.497113
326378,12.806356,-82.325675,-9.357335
326478,12.47964,-82.347625,-9.144819
326578,12.1535,-82.355729,-8.959513
326678,11.895471,-82.353287,-8.850119
326778,11.681473,-82.34432,-8.783942
326878,11.484419,-82.330787,-8.734771
326978,11.301505,-82.317102,-8.702093
327078,11.14229,-82.310914,-8.690737
327178,11.011427,-82.32458,-8.701208
327278,10.915649,-82.363762,-8.737059
327378,10.849806,-82.431224,-8.792757
327478,10.819763,-82.518597,-8.871105
327578,10.82745,-82.609217,-8.969709
327678,10.873193,-82.689638,-9.084971
327778,10.954841,-82.75579,-9.211734
327878,11.04519,-82.805504,-9.327865
327978,11.13258,-82.847206,-9.428771
328078,11.202485,-82.895037,-9.502914
328178,11.194392,-82.941242,-9.487535
328278,11.035068,-82.974424,-9.308064
328378,10.702349,-82.984843,-8.943758
328478,10.222731,-82.975224,-8.427282
328578,9.65446,-82.955447,-7.829511
328678,8.998956,-82.939088,-7.156682
328778,8.266092,-82.933957,-6.40672
328878,7.499879,-82.934592,-5.611171
328978,6.751876,-82.927852,-4.817498
329078,6.074959,-82.901581,-4.079873
329178,5.446947,-82.849144,-3.393829
329278,4.846907,-82.770254,-2.758458
329378,4.289175,-82.664297,-2.199064
329478,3.7696,-82.533682,-1.709253
329578,3.264499,-82.371448,-1.252748
329678,2.760135,-82.162238,-0.787078
329778,2.217973,-81.888047,-0.240353
329878,1.669346,-81.539129,0.384032
329978,1.158236,-81.125792,1.042602
330078,0.669473,-80.67033,1.741167
330178,0.167224,-80.218309,2.478634
330278,-0.392765,-79.830672,3.229672
330378,-0.918456,-79.551436,3.822582
330478,-1.354479,-79.362593,4.182018
330578,-1.649537,-79.234333,4.319964
330678,-1.772365,-79.160485,4.254801
330778,-1.740324,-79.132761,4.036642
330878,-1.661745,-79.163347,3.810144
330978,-1.553211,-79.271691,3.619544
331078,-1.388906,-79.449038,3.467102
331178,-1.098811,-79.651315,3.289589
331278,-0.656128,-79.826455,3.034497
331378,-0.104349,-79.947796,2.711778
331478,0.472292,-80.021489,2.373767
331578,1.059922,-80.076141,2.014435
331678,1.646591,-80.127138,1.628609
331778,2.191341,-80.175241,1.249033
331878,2.640882,-80.220497,0.92724
331978,2.902492,-80.257259,0.744175
332078,2.959704,-80.275701,0.701034
332178,2.857088,-80.266293,0.765296
332278,2.67445,-80.226675,0.882575
332378,2.489969,-80.162347,0.984387
332478,2.315367,-80.078203,1.069417
332578,2.15013,-79.99019,1.154365
332678,2.011487,-79.928272,1.243041
332778,1.924828,-79.91649,1.31969
332878,1.918402,-79.960526,1.349368
332978,1.998382,-80.039702,1.319011
333078,2.147951,-80.124758,1.234252
333178,2.339793,-80.200468,1.109836
333278,2.542543,-80.263283,0.956808
333378,2.713976,-80.312336,0.813161
333478,2.830244,-80.358962,0.707388
333578,2.915647,-80.408831,0.62662
333678,3.000515,-80.466993,0.553415
333778,3.105593,-80.538101,0.462084
333878,3.241503,-80.624597,0.332564
333978,3.388507,-80.716975,0.177949
334078,3.521808,-80.795693,0.022286
334178,3.624046,-80.853929,-0.11422
334278,3.704366,-80.894366,-0.239774
334378,3.768022,-80.926916,-0.358342
334478,3.822704,-80.965659,-0.476323
334578,3.889016,-81.02174,-0.605742
334678,3.973418,-81.093642,-0.741886
334778,4.078017,-81.16852,-0.887286
334878,4.209059,-81.236672,-1.051612
334978,4.375493,-81.287983,-1.246107
335078,4.57428,-81.323008,-1.469413
335178,4.784119,-81.354182,-1.700246
335278,4.996477,-81.388214,-1.92637
335378,5.203781,-81.422975,-2.144555
335478,5.404547,-81.456722,-2.352854
335578,5.598709,-81.490297,-2.549696
335678,5.791395,-81.522627,-2.743197
335778,6.004438,-81.556808,-2.953664
335878,6.275131,-81.602937,-3.198008
335978,6.611409,-81.646071,-3.475531
336078,7.020719,-81.659444,-3.785828
336178,7.473287,-81.62341,-4.108191
336278,7.923924,-81.540547,-4.417118
336378,8.336707,-81.425248,-4.702217
336478,8.724083,-81.283714,-5.004929
336578,9.117605,-81.107973,-5.383736
336678,9.546838,-80.887326,-5.863269
336778,9.946506,-80.600646,-6.36847
336878,10.335817,-80.230659,-6.886196
336978,10.681967,-79.792526,-7.344701
337078,10.875593,-79.328068,-7.597764
337178,10.865497,-78.894241,-7.567128
337278,10.771718,-78.555612,-7.36137
337378,10.655363,-78.343469,-7.070841
337478,10.501681,-78.255702,-6.753543
337578,10.371196,-78.278863,-6.478671
337678,10.36937,-78.399876,-6.30671
337778,10.557787,-78.611619,-6.304168
337878,10.984316,-78.901011,-6.560173
337978,11.495772,-79.194594,-6.990304
338078,11.716177,-79.377051,-7.251814
338178,11.573807,-79.383474,-7.257445
338278,11.123965,-79.242971,-7.023409
338378,10.500987,-79.047635,-6.641822
338478,9.957218,-78.886661,-6.30536
338578,9.603275,-78.790938,-6.088794
338678,9.418152,-78.755164,-5.955493
338778,9.354084,-78.769631,-5.870656
338878,9.337904,-78.827353,-5.792833
338978,9.345647,-78.926395,-5.710016
339078,9.358397,-79.067094,-5.609768
339178,9.329145,-79.231276,-5.464123
339278,9.216089,-79.391705,-5.259937
339378,9.00026,-79.535113,-5.000555
339478,8.685793,-79.655998,-4.694737
339578,8.321635,-79.761121,-4.381388
339678,7.942081,-79.856683,-4.074976
339778,7.554894,-79.948525,-3.757452
339878,7.168665,-80.036754,-3.422249
339978,6.795496,-80.123496,-3.078307
340078,6.463481,-80.220868,-2.758645
340178,6.182418,-80.340225,-2.479349
340278,5.951613,-80.482824,-2.245835
340378,5.790336,-80.637729,-2.07929
340478,5.706034,-80.78657,-1.991289
340578,5.667702,-80.912712,-1.952615
340678,5.637825,-81.005245,-1.923699
340778,5.57837,-81.063085,-1.855983
340878,5.498288,-81.098968,-1.751338
340978,5.366281,-81.121767,-1.580048
341078,5.179209,-81.145299,-1.346665
341178,4.934366,-81.172303,-1.060877
341278,4.654219,-81.201845,-0.756613
341378,4.349524,-81.232631,-0.447067
341478,4.047054,-81.260827,-0.150504
341578,3.758688,-81.285657,0.135928
341678,3.490302,-81.298425,0.420331
341778,3.231897,-81.292558,0.720227
341878,2.979022,-81.272627,1.038309
341978,2.706174,-81.250574,1.395528
342078,2.372298,-81.246083,1.830545
342178,1.960233,-81.267316,2.352405
342278,1.481369,-81.308065,2.933894
342378,0.955823,-81.357782,3.532372
342478,0.416074,-81.402707,4.104634
342578,-0.093568,-81.426306,4.611341
342678,-0.508929,-81.422605,5.012852
342778,-0.798505,-81.400495,5.295985
342878,-0.979359,-81.37328,5.477382
342978,-1.08217,-81.33674,5.578514
343078,-1.133421,-81.271572,5.624646
343178,-1.165939,-81.161909,5.668209
343278,-1.207684,-81.009235,5.765602
343378,-1.294521,-80.816135,5.969011
343478,-1.462826,-80.577274,6.309864
343578,-1.744396,-80.307517,6.798838
343678,-2.062676,-80.062361,7.328506
343778,-2.374765,-79.886557,7.805298
343878,-2.677758,-79.792317,8.181864
343978,-2.877128,-79.778002,8.311705
344078,-2.812726,-79.848785,8.03321
344178,-2.357786,-80.009514,7.315841
344278,-1.643261,-80.24453,6.348112
344378,-0.880924,-80.548439,5.367022
344478,-0.145298,-80.93811,4.475073
344578,0.537972,-81.40981,3.713649
344678,1.119629,-81.90521,3.143474
344778,1.570401,-82.351602,2.795404
344878,1.891197,-82.715531,2.641129
344978,2.107774,-83.001238,2.629013
345078,2.242398,-83.227883,2.724349
345178,2.377414,-83.395405,2.831916
345278,2.593432,-83.496485,2.843426
345378,2.851273,-83.53346,2.774039
345478,3.052827,-83.518198,2.707718
345578,3.139182,-83.460586,2.692306
345678,3.164321,-83.371437,2.676507
345778,3.21278,-83.273811,2.594376
345878,3.331957,-83.195254,2.412132
345978,3.463433,-83.14852,2.203042
346078,3.564652,-83.131117,2.021898
346178,3.642986,-83.133753,1.862268
346278,3.690221,-83.156342,1.733225
346378,3.676187,-83.193947,1.663799
346478,3.609068,-83.245468,1.650685
346578,3.460056,-83.301597,1.729056
346678,3.284333,-83.354472,1.849652
346778,3.137528,-83.405039,1.960446
346878,3.060126,-83.449335,2.01535
346978,3.059577,-83.486763,1.994101
347078,3.121646,-83.52012,1.899567
347178,3.22611,-83.555676,1.755542
347278,3.321233,-83.603213,1.619392
347378,3.373454,-83.672043,1.526325
347478,3.369624,-83.771751,1.494393
347578,3.277898,-83.902245,1.555231
347678,3.10822,-84.054498,1.693885
347778,2.881436,-84.214905,1.885358
347878,2.578989,-84.373644,2.145318
347978,2.231198,-84.52902,2.444692
348078,1.863545,-84.678517,2.765021
348178,1.532782,-84.831631,3.05206
348278,1.260514,-84.987224,3.28428
348378,1.061979,-85.13282,3.446606
348478,0.931588,-85.252002,3.549704
348578,0.895815,-85.330921,3.570215
348678,0.96543,-85.365414,3.491427
348778,1.16921,-85.364628,3.273631
348878,1.524274,-85.3368,2.893547
348978,2.055953,-85.282139,2.325029
349078,2.761254,-85.195876,1.578943
349178,3.59418,-85.070974,0.708382
349278,4.549631,-84.917283,-0.269338
349378,5.624267,-84.757139,-1.347154
349478,6.746764,-84.590671,-2.448667
349578,7.811169,-84.38791,-3.466346
349678,8.706197,-84.114584,-4.302289
349778,9.364023,-83.749311,-4.916487
349878,9.728499,-83.281784,-5.2949
349978,9.87798,-82.729346,-5.526587
350078,9.988012,-82.145589,-5.770178
350178,10.144826,-81.608779,-6.078504
350278,10.357371,-81.169024,-6.438258
350378,10.79148,-80.845332,-7.03268
350478,11.527358,-80.666437,-7.961238
350578,12.451592,-80.647186,-9.088068
350678,13.445662,-80.77253,-10.24759
350778,14.56205,-81.004691,-11.469905
350878,15.915996,-81.283045,-12.885096
350978,17.333432,-81.514364,-14.381531
351078,18.36757,-81.611322,-15.564213
351178,18.831099,-81.555425,-16.25778
351278,18.877835,-81.392401,-16.59885
351378,18.716825,-81.196753,-16.748035
351478,18.497053,-81.042424,-16.80012
351578,18.27229,-80.962617,-16.794735
351678,18.112009,-80.949119,-16.804927
351778,18.081135,-80.995511,-16.895434
351878,18.217847,-81.090753,-17.114354
351978,18.51794,-81.222394,-17.461168
352078,18.903483,-81.372333,-17.87278
352178,19.293067,-81.522284,-18.284595
352278,19.629974,-81.664179,-18.653621
352378,19.875174,-81.785943,-18.958198
352478,20.002307,-81.873063,-19.179212
352578,20.011063,-81.923809,-19.311421
352678,19.954983,-81.947854,-19.388058
352778,19.833863,-81.962411,-19.391548
352878,19.707903,-81.982204,-19.378423
352978,19.600422,-82.015191,-19.375428
353078,19.544602,-82.071633,-19.413937
353178,19.552955,-82.152256,-19.501248
353278,19.597213,-82.246345,-19.608893
353378,19.659578,-82.337829,-19.718503
353478,19.728518,-82.413906,-19.816386
353578,19.797756,-82.469423,-19.892429
353678,19.852497,-82.510157,-19.930075
353778,19.898717,-82.543569,-19.933075
353878,19.916946,-82.573689,-19.887825
353978,19.891536,-82.603545,-19.783585
354078,19.770894,-82.631402,-19.579985
354178,19.529367,-82.657251,-19.255237
354278,19.146567,-82.678076,-18.790001
354378,18.624143,-82.687014,-18.195739
354478,17.963948,-82.678839,-17.480511
354578,17.219192,-82.661985,-16.692823
354678,16.45086,-82.643868,-15.889917
354778,15.671892,-82.634349,-15.071171
354878,14.877979,-82.6255,-14.224259
354978,14.062227,-82.602778,-13.338655
355078,13.255455,-82.563166,-12.447862
355178,12.466597,-82.5063,-11.574657
355278,11.698189,-82.441435,-10.747175
355378,10.928769,-82.365296,-9.957153
355478,10.147768,-82.262719,-9.180962
355578,9.340147,-82.114796,-8.382778
355678,8.495208,-81.898743,-7.525956
355778,7.620267,-81.599505,-6.596845
355878,6.736018,-81.211071,-5.604172
355978,5.84236,-80.744387,-4.536975
356078,5.015978,-80.230489,-3.478563
356178,4.308962,-79.678274,-2.502753
356278,3.734765,-79.114097,-1.655424
356378,3.255883,-78.600785,-0.954299
356478,2.886521,-78.222638,-0.492842
356578,2.570737,-78.058672,-0.223811
356678,2.294555,-78.106461,-0.053949
356778,2.006985,-78.28026,0.122579
356878,1.727916,-78.541786,0.3384
356978,1.513864,-78.898981,0.559207
357078,1.399202,-79.347646,0.782149
357178,1.38736,-79.840312,1.039597
357278,1.502671,-80.314641,1.297169
357378,1.692595,-80.712061,1.558974
357478,1.837751,-80.995496,1.902509
357578,1.906109,-81.169413,2.305704
357678,1.93035,-81.257854,2.68703
357778,1.903047,-81.289772,3.026668
357878,1.784714,-81.278814,3.371762
357978,1.532821,-81.225952,3.77953
358078,1.167033,-81.125197,4.236677
358178,0.758322,-80.991821,4.677132
358278,0.361671,-80.862268,5.054943
358378,0.011388,-80.776234,5.346651
358478,-0.301875,-80.758603,5.587358
358578,-0.565141,-80.808666,5.791027
358678,-0.741391,-80.907859,5.935934
358778,-0.819864,-81.035754,6.00701
358878,-0.811075,-81.179131,6.006721
358978,-0.768459,-81.321589,5.980632
359078,-0.735958,-81.451136,5.968007
359178,-0.732111,-81.560349,5.986069
359278,-0.767159,-81.64606,6.034809
359378,-0.831971,-81.715832,6.090131
359478,-0.917206,-81.785976,6.138387
359578,-1.034367,-81.861412,6.194795
359678,-1.176249,-81.950118,6.252102
359778,-1.339343,-82.056983,6.315484
359878,-1.512897,-82.178817,6.381652
359978,-1.670844,-82.305005,6.436817
360078,-1.810218,-82.427334,6.487304
360178,-1.919743,-82.538133,6.529471
360278,-2.007234,-82.638806,6.563461
360378,-2.077044,-82.738513,6.587006
360478,-2.161187,-82.846854,6.627003
360578,-2.288335,-82.966762,6.705555
360678,-2.487473,-83.084436,6.853193
360778,-2.746928,-83.185871,7.058399
360878,-3.060548,-83.267183,7.310224
360978,-3.396767,-83.336406,7.571562
361078,-3.7123,-83.406187,7.808721
361178,-3.950735,-83.484328,7.978658
361278,-4.044313,-83.569597,8.025206
361378,-3.963601,-83.654884,7.921649
361478,-3.704411,-83.735881,7.665127
361578,-3.278508,-83.812095,7.261429
361678,-2.703748,-83.886485,6.724306
361778,-2.033091,-83.957341,6.104679
361878,-1.251618,-84.006625,5.38864
361978,-0.412569,-84.02291,4.6313
362078,0.451601,-83.988916,3.848328
362178,1.3219,-83.888717,3.042123
362278,2.148796,-83.735855,2.246872
362378,2.926333,-83.54723,1.455445
362478,3.677567,-83.322352,0.635315
362578,4.423375,-83.054585,-0.238009
362678,5.21013,-82.74184,-1.201389
362778,5.996117,-82.391269,-2.169495
362878,6.682322,-82.027962,-3.004782
362978,7.27128,-81.694288,-3.687506
363078,7.827645,-81.448145,-4.267622
363178,8.4045,-81.323894,-4.816462
363278,8.962538,-81.331635,-5.312585
363378,9.52937,-81.442147,-5.779955
363478,10.170406,-81.597836,-6.292651
363578,10.927401,-81.767916,-6.913108
363678,11.803456,-81.935818,-7.69533
363778,12.593606,-82.072501,-8.486828
363878,12.867286,-82.126708,-8.894067
363978,12.665903,-82.087873,-8.923286
364078,12.264521,-82.004574,-8.797616
364178,11.841238,-81.91645,-8.640599
364278,11.517169,-81.83548,-8.530351
364378,11.357693,-81.757477,-8.505831
364478,11.390673,-81.693674,-8.582771
364578,11.630904,-81.655627,-8.790706
364678,11.998795,-81.645818,-9.091773
364778,12.360706,-81.66149,-9.38731
364878,12.659783,-81.706271,-9.62285
364978,12.863476,-81.779557,-9.761402
365078,12.970596,-81.871538,-9.816462
365178,12.975192,-81.965644,-9.800295
365278,12.849237,-82.04337,-9.69748
365378,12.562592,-82.096731,-9.475104
365478,12.143245,-82.118611,-9.152647
365578,11.628941,-82.119167,-8.745315
365678,11.077141,-82.110788,-8.292276
365778,10.543666,-82.105909,-7.849085
365878,10.091196,-82.130226,-7.46759
365978,9.788476,-82.203453,-7.20804
366078,9.639871,-82.327536,-7.073912
366178,9.596992,-82.482133,-7.021364
366278,9.632503,-82.642388,-7.032108
366378,9.671463,-82.793677,-7.03914
366478,9.666202,-82.931494,-6.997658
366578,9.605591,-83.055209,-6.893878
366678,9.442327,-83.165027,-6.680391
366778,9.158837,-83.259855,-6.348918
366878,8.758717,-83.339087,-5.909954
366978,8.265253,-83.408183,-5.388378
367078,7.723603,-83.477717,-4.834087
367178,7.207863,-83.557799,-4.307855
367278,6.75216,-83.65349,-3.827042
367378,6.296501,-83.743853,-3.320132
367478,5.733655,-83.801888,-2.677445
367578,5.001453,-83.815693,-1.844947
367678,4.11845,-83.808837,-0.845219
367778,3.092659,-83.810995,0.310104
367878,1.952644,-83.833901,1.576933
367978,0.695412,-83.865172,2.939449
368078,-0.653841,-83.888261,4.348769
368178,-2.042866,-83.886069,5.742945
368278,-3.372655,-83.841623,7.033026
368378,-4.547491,-83.746704,8.147866
368478,-5.538049,-83.594908,9.085134
368578,-6.360448,-83.392294,9.876916
368678,-7.029559,-83.143804,10.550097
368778,-7.56049,-82.858405,11.128957
368878,-7.991262,-82.548881,11.654517
368978,-8.446184,-82.219446,12.231407
369078,-8.917384,-81.870612,12.83114
369178,-9.382103,-81.49333,13.433789
369278,-9.79646,-81.092923,14.018709
369378,-10.102566,-80.686967,14.51886
369478,-10.268483,-80.31412,14.858808
369578,-10.291512,-80.017561,14.988226
369678,-10.194544,-79.828116,14.896141
369778,-10.009473,-79.76729,14.617077
369878,-9.760859,-79.827459,14.175172
369978,-9.482686,-79.983759,13.642676
370078,-9.224563,-80.221076,13.153907
370178,-9.00022,-80.526481,12.793617
370278,-8.791977,-80.85957,12.589342
370378,-8.516826,-81.159158,12.466399
370478,-8.124949,-81.388494,12.353306
370578,-7.647716,-81.534236,12.236245
370678,-7.128316,-81.589109,12.117158
370778,-6.544514,-81.565369,11.936232
370878,-5.869149,-81.492665,11.627543
370978,-5.157935,-81.405136,11.212423
371078,-4.515233,-81.322307,10.760074
371178,-4.013744,-81.248986,10.322007
371278,-3.622295,-81.184425,9.887428
371378,-3.241978,-81.130303,9.401689
371478,-2.785335,-81.098371,8.81593
371578,-2.263503,-81.110848,8.173854
371678,-1.7254,-81.178225,7.545631
371778,-1.166205,-81.294912,6.935482
371878,-0.548515,-81.452421,6.307994
371978,0.116667,-81.635021,5.663472
372078,0.76094,-81.819355,5.061026
372178,1.284491,-81.976735,4.59063
372278,1.651252,-82.087193,4.274796
372378,1.882941,-82.15317,4.079028
372478,2.004175,-82.194565,3.979385
372578,2.077799,-82.247217,3.914085
372678,2.190145,-82.325161,3.79136
372778,2.387202,-82.425009,3.564581
372878,2.630837,-82.535359,3.274646
372978,2.888258,-82.646253,2.961163
373078,3.116682,-82.750973,2.67098
373178,3.291844,-82.841416,2.426208
373278,3.436343,-82.913216,2.202044
373378,3.559547,-82.970579,1.991189
373478,3.6556,-83.020107,1.79788
373578,3.721605,-83.064388,1.626094
373678,3.762707,-83.09924,1.470185
373778,3.797787,-83.124519,1.311548
373878,3.851025,-83.144928,1.124634
373978,3.939407,-83.164142,0.898611
374078,4.025837,-83.183643,0.678178
374178,4.086942,-83.201122,0.500362
374278,4.091725,-83.210369,0.407449
374378,4.109051,-83.202187,0.334482
374478,4.174741,-83.182971,0.245429
374578,4.282185,-83.161234,0.132272
374678,4.448687,-83.142487,-0.030756
374778,4.670455,-83.132358,-0.230834
374878,4.948863,-83.123842,-0.449605
374978,5.237436,-83.097038,-0.63319
375078,5.531803,-83.029204,-0.792776
375178,5.845829,-82.9132,-0.970701
375278,6.191294,-82.742883,-1.216304
375378,6.513066,-82.508036,-1.512997
375478,6.780361,-82.196679,-1.850863
375578,6.988411,-81.805428,-2.201645
375678,7.188569,-81.36426,-2.592569
375778,7.39126,-80.900621,-2.98701
375878,7.574367,-80.449961,-3.331989
375978,7.646862,-80.047135,-3.527515
376078,7.694985,-79.747785,-3.65271
376178,7.802302,-79.62295,-3.802922
376278,8.003704,-79.695684,-4.042079
376378,8.361142,-79.932649,-4.434689
376478,8.956993,-80.281987,-5.061506
376578,9.868505,-80.702358,-6.010376
376678,11.025534,-81.137153,-7.239248
376778,12.144651,-81.505819,-8.491266
376878,12.889091,-81.723823,-9.436898
376978,13.122172,-81.752057,-9.931214
377078,12.870893,-81.625677,-9.97565
377178,12.347457,-81.423848,-9.742818
377278,11.765434,-81.229743,-9.400514
377378,11.205288,-81.092233,-9.014819
377478,10.710792,-81.021613,-8.633211
377578,10.299503,-81.0135,-8.299609
377678,9.970615,-81.052792,-8.038278
377778,9.738878,-81.134486,-7.840866
377878,9.580826,-81.254019,-7.677414
377978,9.476981,-81.398173,-7.540194
378078,9.372181,-81.550517,-7.402894
378178,9.208777,-81.695374,-7.233721
378278,8.963594,-81.823857,-7.016186
378378,8.664723,-81.93585,-6.76756
378478,8.339775,-82.038241,-6.501711
378578,7.959842,-82.1374,-6.17583
378678,7.553457,-82.242263,-5.809526
378778,7.166041,-82.359361,-5.445265
378878,6.833243,-82.489187,-5.1223
378978,6.590708,-82.627804,-4.878177
379078,6.455788,-82.770043,-4.732691
379178,6.410472,-82.912883,-4.672294
379278,6.458744,-83.053945,-4.705052
379378,6.557973,-83.194564,-4.790969
379478,6.652619,-83.335195,-4.876589
379578,6.683475,-83.471886,-4.90024
379678,6.604152,-83.600258,-4.809235
379778,6.410205,-83.71957,-4.59851
379878,6.153926,-83.835082,-4.319762
379978,5.886291,-83.953044,-4.018425
380078,5.622416,-84.075017,-3.704171
380178,5.355116,-84.196404,-3.368137
380278,5.026403,-84.307741,-2.95643
380378,4.541572,-84.394901,-2.38229
380478,3.878423,-84.447061,-1.624154
380578,3.059512,-84.462735,-0.702829
380678,2.119883,-84.453492,0.346409
380778,1.093928,-84.435271,1.4896
380878,0.061213,-84.423351,2.641984
380978,-0.945575,-84.419505,3.762205
381078,-1.939954,-84.409779,4.849434
381178,-2.883906,-84.368857,5.851831
381278,-3.715278,-84.279782,6.698981
381378,-4.442476,-84.143189,7.407062
381478,-5.049598,-83.965867,7.991768
381578,-5.528807,-83.755837,8.473025
381678,-5.88999,-83.502158,8.890224
381778,-6.192173,-83.199568,9.332181
381878,-6.505497,-82.864485,9.881245
381978,-6.856862,-82.528853,10.531077
382078,-7.277439,-82.237859,11.264373
382178,-7.811879,-82.047542,12.05448
382278,-8.403938,-81.975936,12.754817
382378,-9.025928,-81.965468,13.309923
382478,-9.523943,-81.966668,13.626976
382578,-9.90909,-81.969274,13.75286
382678,-10.250955,-82.017165,13.838962
382778,-10.565626,-82.160867,13.993955
382878,-10.797799,-82.416972,14.217748
382978,-10.759394,-82.740127,14.323155
383078,-10.374383,-83.052028,14.191832
383178,-9.706636,-83.28489,13.827062
383278,-8.925197,-83.414681,13.347721
383378,-8.234648,-83.464918,12.934683
383478,-7.713811,-83.47672,12.653783
383578,-7.357489,-83.4847,12.49261
383678,-7.163889,-83.485874,12.440659
383778,-7.138292,-83.452028,12.500513
383878,-7.270939,-83.359808,12.656647
383978,-7.506043,-83.224975,12.85448
384078,-7.739152,-83.089348,12.994103
384178,-7.90511,-82.984756,13.018806
384278,-8.003109,-82.930693,12.959511
384378,-7.996883,-82.921832,12.806427
384478,-7.817833,-82.930254,12.509033
384578,-7.469295,-82.937459,12.07427
384678,-7.04963,-82.944823,11.598891
384778,-6.648986,-82.95057,11.166108
384878,-6.310039,-82.948264,10.803822
384978,-6.067268,-82.934403,10.530617
385078,-5.919814,-82.918339,10.333165
385178,-5.814917,-82.908797,10.157639
385278,-5.700704,-82.915378,9.957115
385378,-5.51307,-82.944141,9.674023
385478,-5.230596,-82.996705,9.293831
385578,-4.834684,-83.065951,8.802224
385678,-4.330803,-83.141693,8.202622
385778,-3.784266,-83.219813,7.56231
385878,-3.266731,-83.294418,6.955723
385978,-2.802471,-83.345487,6.41181
386078,-2.397834,-83.382521,5.939171
386178,-2.035066,-83.429976,5.516028
386278,-1.702947,-83.496135,5.122183
386378,-1.415668,-83.566405,4.771159
386478,-1.15268,-83.633354,4.447634
386578,-0.910141,-83.697446,4.151705
386678,-0.623154,-83.760624,3.828076
386778,-0.257924,-83.825166,3.441787
386878,0.20803,-83.89685,2.962337
386978,0.76791,-83.972146,2.400546
387078,1.411222,-84.033238,1.780785
387178,2.099532,-84.061013,1.141234
387278,2.783819,-84.048497,0.524408
387378,3.437592,-84.012978,-0.055489
387478,4.051197,-83.982558,-0.601049
387578,4.616006,-83.973707,-1.105447
387678,5.15293,-83.988225,-1.579185
387778,5.694882,-84.001006,-2.041065
387878,6.274004,-83.972457,-2.501057
387978,6.863232,-83.882081,-2.930982
388078,7.360615,-83.733451,-3.256241
388178,7.754386,-83.536329,-3.494964
388278,8.093102,-83.293702,-3.727032
388378,8.332375,-82.980959,-3.935718
388478,8.520808,-82.575808,-4.143546
388578,8.704571,-82.075705,-4.369869
388678,8.923097,-81.491303,-4.625059
388778,9.165112,-80.859169,-4.867255
388878,9.307665,-80.240806,-4.952835
388978,9.337347,-79.713826,-4.852374
389078,9.332878,-79.338551,-4.653009
389178,9.246198,-79.125518,-4.349569
389278,9.122849,-79.050823,-4.027747
389378,9.078425,-79.080164,-3.794629
389478,9.189081,-79.183338,-3.705733
389578,9.455587,-79.336504,-3.778735
389678,9.764913,-79.49174,-3.947828
389778,9.901261,-79.575332,-4.048082
389878,9.770061,-79.535022,-3.999993
389978,9.428868,-79.389956,-3.83002
390078,8.947114,-79.207863,-3.566971
390178,8.46571,-79.054827,-3.306448
390278,8.108693,-78.957277,-3.126667
390378,7.887211,-78.907097,-3.009126
390478,7.77766,-78.891234,-2.937006
390578,7.768728,-78.905027,-2.919338
390678,7.82385,-78.94332,-2.933961
390778,7.93003,-79.000445,-2.97107
390878,8.073459,-79.066282,-3.016657
390978,8.227039,-79.140188,-3.05899
391078,8.326463,-79.217005,-3.059777
391178,8.313064,-79.277105,-2.99564
391278,8.175965,-79.302063,-2.870412
391378,7.946509,-79.309976,-2.707602
391478,7.643833,-79.31982,-2.510672
391578,7.304656,-79.345484,-2.297825
391678,6.959996,-79.38542,-2.071633
391778,6.62431,-79.443139,-1.828421
391878,6.329983,-79.52338,-1.589666
391978,6.087593,-79.633115,-1.36948
392078,5.915213,-79.775296,-1.194894
392178,5.794761,-79.944735,-1.05613
392278,5.682181,-80.121888,-0.916446
392378,5.547511,-80.282013,-0.751866
392478,5.362724,-80.409391,-0.535261
392578,5.119987,-80.500521,-0.257958
392678,4.818226,-80.560551,0.08183
392778,4.480863,-80.600113,0.454645
392878,4.118093,-80.628506,0.843374
392978,3.755694,-80.658203,1.219001
393078,3.384581,-80.687508,1.59299
393178,2.993497,-80.710309,1.985942
393278,2.561485,-80.719989,2.427769
393378,2.081474,-80.712297,2.922037
393478,1.553316,-80.688668,3.466599
393578,0.961724,-80.649044,4.068066
393678,0.313206,-80.594528,4.714421
393778,-0.362519,-80.531145,5.379187
393878,-1.014509,-80.463404,6.027379
393978,-1.603304,-80.389987,6.639871
394078,-2.123755,-80.305617,7.213637
394178,-2.579813,-80.207264,7.747821
394278,-3.016109,-80.092911,8.276432
394378,-3.463067,-79.960499,8.816052
394478,-3.930206,-79.808674,9.365363
394578,-4.397983,-79.647444,9.898222
394678,-4.84226,-79.496898,10.397983
394778,-5.223782,-79.368638,10.834439
394878,-5.492002,-79.252027,11.171824
394978,-5.598543,-79.116721,11.375317
395078,-5.554052,-78.924279,11.452139
395178,-5.431754,-78.63335,11.47046
395278,-5.286345,-78.228209,11.494274
395378,-5.114504,-77.743456,11.54304
395478,-4.935781,-77.238431,11.633085
395578,-4.757743,-76.801007,11.727445
395678,-4.611042,-76.500822,11.791561
395778,-4.537235,-76.362394,11.803208
395878,-4.550774,-76.367934,11.759134
395978,-4.634201,-76.484477,11.668691
396078,-4.812014,-76.671576,11.593826
396178,-5.082193,-76.938382,11.612349
396278,-5.366389,-77.331754,11.744156
396378,-5.521438,-77.863832,11.928665
396478,-5.405725,-78.481384,12.061815
396578,-5.051091,-79.078719,12.132348
396678,-4.566804,-79.557074,12.178968
396778,-4.033596,-79.866884,12.20158
396878,-3.592857,-80.015108,12.276163
396978,-3.283792,-80.06148,12.387505
397078,-3.188711,-80.070169,12.59273
397178,-3.37021,-80.07403,12.956192
397278,-3.8439,-80.082106,13.49792
397378,-4.523726,-80.097017,14.162583
397478,-5.230554,-80.119399,14.797535
397578,-5.840424,-80.15289,15.311075
397678,-6.352741,-80.21344,15.720367
397778,-6.806266,-80.314504,16.075994
397878,-7.159784,-80.439369,16.345402
397978,-7.390087,-80.572056,16.506535
398078,-7.551916,-80.696468,16.604017
398178,-7.694967,-80.805451,16.681239
398278,-7.870632,-80.898432,16.784423
398378,-8.10959,-80.975672,16.943628
398478,-8.416563,-81.040918,17.155188
398578,-8.751642,-81.108927,17.379723
398678,-9.081952,-81.196858,17.587595
398778,-9.359959,-81.311506,17.736859
398878,-9.542722,-81.438976,17.793282
398978,-9.672543,-81.565739,17.797624
399078,-9.832651,-81.687587,17.827469
399178,-10.048373,-81.807073,17.9053
399278,-10.306498,-81.929614,18.020042
399378,-10.590602,-82.058995,18.156038
399478,-10.846336,-82.193894,18.261792
399578,-11.043841,-82.320015,18.308354
399678,-11.182526,-82.426043,18.296487
399778,-11.285544,-82.516271,18.247244
399878,-11.392891,-82.60675,18.206118
399978,-11.522684,-82.714313,18.196515
400078,-11.655769,-82.830886,18.201291
400178,-11.74345,-82.932768,18.175496
400278,-11.767023,-83.006843,18.103205
400378,-11.727477,-83.057921,17.985121
400478,-11.656182,-83.099681,17.859067
400578,-11.546608,-83.132477,17.72284
400678,-11.360762,-83.156747,17.532975
400778,-11.081217,-83.17136,17.261006
400878,-10.694489,-83.184962,16.886821
400978,-10.211544,-83.197587,16.419299
401078,-9.632322,-83.205709,15.863212
401178,-8.944746,-83.194758,15.214804
401278,-8.168077,-83.152881,14.499983
401378,-7.329914,-83.07723,13.753677
401478,-6.46992,-82.966183,13.002445
401578,-5.587677,-82.820354,12.225826
401678,-4.706566,-82.622803,11.418463
401778,-3.84728,-82.348355,10.58426
401878,-3.052564,-81.982557,9.762995
401978,-2.369344,-81.538872,9.022121
402078,-1.826035,-81.066685,8.43279
402178,-1.424459,-80.642467,8.039655
402278,-0.987028,-80.347668,7.680004
402378,-0.530779,-80.222159,7.33636
402478,-0.091502,-80.253117,7.016815
402578,0.310435,-80.380602,6.728939
402678,0.721059,-80.538109,6.41978
402778,1.215145,-80.682698,5.994942
402878,1.757175,-80.785212,5.440011
402978,2.199167,-80.806323,4.862687
403078,2.42478,-80.727703,4.378626
403178,2.480824,-80.58088,3.97982
403278,2.4097,-80.416096,3.677087
403378,2.224164,-80.296963,3.510227
403478,2.071128,-80.258415,3.393326
403578,2.029202,-80.286457,3.288323
403678,2.128856,-80.325447,3.155341
403778,2.335378,-80.350414,2.993287
403878,2.592346,-80.35665,2.805965
403978,2.82094,-80.353199,2.625818
404078,3.016146,-80.358864,2.44653
404178,3.188527,-80.389492,2.274135
404278,3.317237,-80.443024,2.134604
404378,3.393692,-80.509731,2.01693
404478,3.397955,-80.574817,1.917208
404578,3.334638,-80.635428,1.824506
404678,3.222278,-80.6899,1.737129
404778,3.076521,-80.743266,1.675882
404878,2.955977,-80.802293,1.614484
404978,2.898385,-80.865416,1.52873
405078,2.92725,-80.934444,1.388753
405178,3.039548,-81.019484,1.18861
405278,3.250968,-81.128718,0.908797
405378,3.533791,-81.254353,0.570147
405478,3.863201,-81.38545,0.188268
405578,4.199923,-81.515576,-0.195076
405678,4.530581,-81.642406,-0.569091
405778,4.82306,-81.763775,-0.900404
405878,5.077005,-81.875128,-1.188643
405978,5.298885,-81.979287,-1.438949
406078,5.498832,-82.078719,-1.656573
406178,5.675892,-82.168172,-1.839402
406278,5.815625,-82.245224,-1.976034
406378,5.907683,-82.311276,-2.051841
406478,5.943717,-82.366496,-2.05426
406578,5.933564,-82.405365,-1.991462
406678,5.896685,-82.438668,-1.884401
406778,5.834787,-82.473141,-1.744407
406878,5.719323,-82.502511,-1.542041
406978,5.479411,-82.50445,-1.201623
407078,5.08627,-82.45154,-0.684539
407178,4.549115,-82.329723,-0.002086
407278,3.920284,-82.143385,0.784901
407378,3.290828,-81.921015,1.559977
407478,2.744561,-81.700179,2.210656
407578,2.318213,-81.501584,2.696102
407678,1.990024,-81.299315,3.044094
407778,1.720601,-81.051212,3.302726
407878,1.493856,-80.728135,3.510399
407978,1.3103,-80.329467,3.694383
408078,1.177927,-79.873898,3.868776
408178,1.103152,-79.398444,4.035984
408278,1.116821,-78.960304,4.143908
408378,1.276539,-78.63088,4.076194
408478,1.504023,-78.445861,3.831128
408578,1.696894,-78.410511,3.489865
408678,1.820478,-78.50523,3.133609
408778,1.90095,-78.676875,2.811159
408878,1.965178,-78.906848,2.565007
408978,2.013673,-79.172301,2.413853
409078,2.144155,-79.446822,2.281346
409178,2.442296,-79.700122,2.096699
409278,2.965606,-79.900572,1.798245
409378,3.612682,-80.036322,1.459209
409478,4.282668,-80.132098,1.145625
409578,4.928041,-80.223823,0.874921
409678,5.488224,-80.327432,0.675462
409778,5.870903,-80.438086,0.603879
409878,6.02503,-80.532503,0.677634
409978,5.87981,-80.591264,0.945133
410078,5.407693,-80.608179,1.443809
410178,4.762837,-80.589529,2.040802
410278,4.201979,-80.573711,2.494211
410378,3.819118,-80.618107,2.754626
410478,3.573575,-80.731529,2.906047
410578,3.455198,-80.892951,2.983987
410678,3.460247,-81.081514,2.991482
410778,3.53861,-81.28152,2.957143
410878,3.625449,-81.483075,2.923092
410978,3.667004,-81.676187,2.926158
411078,3.612569,-81.85178,3.012983
411178,3.463922,-82.00394,3.185946
411278,3.222106,-82.138365,3.439016
411378,2.898612,-82.261929,3.755817
411478,2.520838,-82.388963,4.108713
411578,2.099911,-82.529916,4.491473
411678,1.659971,-82.677905,4.884232
411778,1.21814,-82.826933,5.272464
411878,0.745496,-82.981479,5.678457
411978,0.231318,-83.146174,6.11385
412078,-0.340558,-83.31022,6.604574
412178,-0.998062,-83.456241,7.190128
412278,-1.740776,-83.577691,7.869897
412378,-2.551032,-83.669156,8.622436
412478,-3.403114,-83.740871,9.416819
412578,-4.282344,-83.813967,10.23111
412678,-5.171412,-83.90626,11.057105
412778,-6.074226,-84.020375,11.910092
412878,-6.95361,-84.134884,12.752772
412978,-7.703384,-84.219795,13.469249
413078,-8.265881,-84.268021,14.003427
413178,-8.651947,-84.284127,14.3632
413278,-8.881373,-84.282334,14.567759
413378,-9.031718,-84.281304,14.697454
413478,-9.152075,-84.292662,14.809606
413578,-9.29146,-84.315189,14.970455
413678,-9.420155,-84.329137,15.16656
413778,-9.492106,-84.300253,15.36221
413878,-9.42958,-84.193077,15.46752
413978,-9.179696,-83.998501,15.388708
414078,-8.726675,-83.725943,15.066222
414178,-8.07947,-83.396977,14.483194
414278,-7.279071,-83.024052,13.67823
414378,-6.405237,-82.603506,12.753922
414478,-5.540719,-82.139987,11.839923
414578,-4.730742,-81.69484,11.00646
414678,-3.829014,-81.390165,10.076904
414778,-2.908184,-81.316943,9.073657
414878,-2.064512,-81.449791,8.102271
414978,-1.275504,-81.702977,7.157902
415078,-0.41267,-82.02626,6.12455
415178,0.600888,-82.387191,4.921976
415278,1.813937,-82.752979,3.482633
415378,3.068504,-83.068083,1.954123
415478,4.024554,-83.266552,0.673207
415578,4.522973,-83.322678,-0.207191
415678,4.655368,-83.278774,-0.738806
415778,4.590666,-83.21971,-1.032573
415878,4.564115,-83.209271,-1.273835
415978,4.655337,-83.2619,-1.526028
416078,4.87314,-83.355194,-1.821789
416178,5.17439,-83.452698,-2.163827
416278,5.468736,-83.544891,-2.508966
416378,5.71527,-83.65107,-2.837131
416478,5.977435,-83.786565,-3.199157
416578,6.191508,-83.944212,-3.513969
416678,6.294484,-84.106139,-3.717333
416778,6.294803,-84.253466,-3.830984
416878,6.260912,-84.389417,-3.924369
416978,6.271347,-84.527117,-4.069203
417078,6.307459,-84.672092,-4.235938
417178,6.338071,-84.81174,-4.389219
417278,6.333219,-84.936226,-4.498669
417378,6.332792,-85.046711,-4.607157
417478,6.368399,-85.150746,-4.741353
417578,6.539174,-85.269341,-4.992414
417678,6.87226,-85.421148,-5.384629
417778,7.389486,-85.603776,-5.936155
417878,8.096292,-85.799066,-6.656348
417978,8.927732,-85.984839,-7.48558
418078,9.762091,-86.149611,-8.307156
418178,10.482234,-86.281749,-9.008803
418278,11.022032,-86.37958,-9.524931
418378,11.424557,-86.459774,-9.906862
418478,11.726982,-86.542082,-10.199105
418578,11.989186,-86.632078,-10.46146
418678,12.132643,-86.721025,-10.607574
418778,12.169906,-86.792817,-10.647999
418878,12.093732,-86.83781,-10.571475
418978,11.893501,-86.850719,-10.357749
419078,11.579028,-86.836328,-10.003924
419178,11.12465,-86.804204,-9.477485
419278,10.521457,-86.751328,-8.771229
419378,9.730413,-86.672652,-7.85671
419478,8.655431,-86.562525,-6.658304
419578,7.382621,-86.423105,-5.281476
419678,6.027476,-86.255401,-3.858374
419778,4.74958,-86.062701,-2.547173
419878,3.664292,-85.848491,-1.448375
419978,2.770923,-85.608365,-0.536565
420078,2.020047,-85.333648,0.265036
420178,1.322528,-85.023899,1.064424
420278,0.653909,-84.69294,1.900695
420378,0.009905,-84.35707,2.756619
420478,-0.580837,-84.031877,3.562343
420578,-1.115415,-83.747919,4.256647
420678,-1.562705,-83.531953,4.762621
420778,-1.916448,-83.369831,5.084247
420878,-2.236409,-83.22555,5.318933
420978,-2.494628,-83.083714,5.476427
421078,-2.673124,-82.968738,5.561914
421178,-2.76676,-82.912576,5.589337
421278,-2.747196,-82.92126,5.554467
421378,-2.581194,-82.980824,5.446716
421478,-2.23124,-83.072149,5.237684
421578,-1.660432,-83.168974,4.879139
421678,-0.965555,-83.258563,4.442883
421778,-0.254342,-83.337197,4.021938
421878,0.369589,-83.403448,3.702006
421978,0.859039,-83.444352,3.517147
422078,1.184822,-83.441211,3.476636
422178,1.297577,-83.38851,3.610462
422278,1.202407,-83.298705,3.900173
422378,0.918904,-83.180505,4.327402
422478,0.447464,-83.039552,4.914379
422578,-0.14729,-82.887096,5.610132
422678,-0.721216,-82.736173,6.277645
422778,-1.168169,-82.608055,6.797466
422878,-1.520096,-82.523195,7.18977
422978,-1.814902,-82.482289,7.496502
423078,-2.08297,-82.476117,7.766855
423178,-2.298364,-82.498777,7.989357
423278,-2.455767,-82.547278,8.171116
423378,-2.535869,-82.617,8.288447
423478,-2.548444,-82.704139,8.349958
423578,-2.519832,-82.811862,8.381587
423678,-2.47013,-82.946705,8.391674
423778,-2.419967,-83.122438,8.389339
423878,-2.381288,-83.353782,8.385252
423978,-2.367871,-83.639212,8.399332
424078,-2.417117,-83.961425,8.47159
424178,-2.532133,-84.290515,8.606811
424278,-2.710783,-84.612063,8.801538
424378,-2.882851,-84.908561,8.975169
424478,-3.018624,-85.163972,9.095442
424578,-3.079033,-85.37745,9.127656
424678,-3.058775,-85.561658,9.084025
424778,-2.938532,-85.732223,8.960742
424878,-2.715414,-85.89525,8.751355
424978,-2.406342,-86.0633,8.46419
425078,-2.058946,-86.231887,8.136931
425178,-1.73688,-86.383743,7.830801
425278,-1.411095,-86.505568,7.515318
425378,-1.06361,-86.601246,7.178576
425478,-0.697699,-86.681187,6.823952
425578,-0.308842,-86.743071,6.451496
425678,0.10201,-86.780006,6.061758
425778,0.583954,-86.791956,5.606195
425878,1.180249,-86.786859,5.047249
425978,1.990782,-86.779564,4.284068
426078,3.070555,-86.776498,3.26782
426178,4.424183,-86.781888,1.99633
426278,5.975976,-86.797055,0.543857
426378,7.541473,-86.808339,-0.90264
426478,8.998276,-86.79041,-2.217638
426578,10.279084,-86.72107,-3.340495
426678,11.267702,-86.588762,-4.180604
426778,11.880095,-86.38233,-4.693478
426878,12.123626,-86.088768,-4.917349
426978,12.174639,-85.699975,-5.026916
427078,12.194419,-85.205853,-5.156994
427178,12.354228,-84.607985,-5.433155
427278,12.634911,-83.9547,-5.820697
427378,12.869975,-83.301857,-6.1348
427478,13.036336,-82.695675,-6.33527
427578,13.160421,-82.194945,-6.435283
427678,13.193685,-81.878858,-6.388416
427778,13.275691,-81.773318,-6.34442
427878,13.551268,-81.824276,-6.457819
427978,14.099797,-81.972082,-6.833372
428078,14.841259,-82.176552,-7.469584
428178,15.560355,-82.376382,-8.205206
428278,16.038625,-82.483391,-8.823493
428378,16.135806,-82.440736,-9.142626
428478,15.913322,-82.25618,-9.174852
428578,15.506289,-82.003406,-9.020477
428678,15.10379,-81.76759,-8.828586
428778,14.822279,-81.597926,-8.70119
428878,14.702417,-81.507552,-8.6769
428978,14.716634,-81.489955,-8.720494
429078,14.845868,-81.518673,-8.817982
429178,15.032014,-81.57158,-8.939934
429278,15.241386,-81.635239,-9.077099
429378,15.46567,-81.707823,-9.232472
429478,15.68932,-81.795378,-9.407852
429578,15.841579,-81.878374,-9.555447
429678,15.86215,-81.938997,-9.628957
429778,15.741558,-81.974974,-9.614642
429878,15.506312,-81.99361,-9.515339
429978,15.204894,-82.007297,-9.360972
430078,14.881391,-82.025821,-9.187949
430178,14.562328,-82.059337,-9.012398
430278,14.295287,-82.111637,-8.870579
430378,14.07684,-82.19012,-8.760556
430478,13.935062,-82.298968,-8.716395
430578,13.887501,-82.432976,-8.758639
430678,13.91851,-82.574522,-8.875919
430778,13.977356,-82.701869,-9.0154
430878,14.004437,-82.800762,-9.118767
