SampleTimeFine,Gyr_X,Gyr_Y,Gyr_Z,Roll,Pitch,Yaw
177139,-0.006676,0.030431,0.016843,-7.780825,-77.468725,7.597659
177239,-0.012799,0.027655,0.013354,-7.810479,-77.452665,7.620546
177339,-0.019366,0.021872,0.009779,-7.836717,-77.440173,7.636083
177439,-0.020496,0.016854,0.00821,-7.861293,-77.430657,7.649254
177539,-0.021945,0.015927,0.004465,-7.877427,-77.421963,7.652929
177639,-0.022238,0.024063,0.002375,-7.885519,-77.408821,7.648193
177739,-0.013769,0.042641,0.003739,-7.88569,-77.385035,7.640312
177839,-0.00641,0.052981,0.004165,-7.879114,-77.355351,7.629838
177939,-0.006774,0.064268,0.003525,-7.867219,-77.319321,7.613698
178039,-0.017922,0.067687,0.004263,-7.86244,-77.281309,7.598304
178139,-0.027284,0.051601,0.003873,-7.867665,-77.252465,7.587666
178239,-0.043456,0.027628,0.009711,-7.905071,-77.23677,7.600523
178339,-0.048543,0.019698,0.011434,-7.952382,-77.225439,7.620549
178439,-0.044246,0.030637,0.009535,-7.988563,-77.20806,7.631689
178539,-0.047059,0.044803,0.007123,-8.015278,-77.182848,7.631472
178639,-0.052661,0.059429,0.003996,-8.032216,-77.149599,7.617937
178739,-0.058149,0.060877,0.002506,-8.048055,-77.115657,7.60005
178839,-0.066506,0.04443,0.000243,-8.068822,-77.091239,7.582303
178939,-0.070845,0.018571,0.000255,-8.101126,-77.0815,7.573845
179039,-0.069373,-0.005322,0.001248,-8.143394,-77.085238,7.576477
179139,-0.063549,-0.018413,-0.000467,-8.182676,-77.096543,7.579471
179239,-0.058242,-0.013526,-0.005976,-8.203513,-77.105526,7.566664
179339,-0.06098,0.006063,-0.014819,-8.197002,-77.10412,7.524194
179439,-0.065799,0.030547,-0.01803,-8.176643,-77.089084,7.464681
179539,-0.070912,0.053792,-0.018068,-8.151057,-77.060859,7.396791
179639,-0.077366,0.066718,-0.014152,-8.134534,-77.024976,7.334398
179739,-0.081193,0.063105,-0.00987,-8.13223,-76.990794,7.284336
179839,-0.080128,0.049309,-0.004525,-8.147363,-76.964005,7.252791
179939,-0.080111,0.037361,0.000724,-8.179513,-76.943568,7.238723
180039,-0.080214,0.028131,0.002228,-8.218566,-76.928244,7.231683
180139,-0.068461,0.032836,-0.001645,-8.239718,-76.910568,7.213177
180239,-0.050884,0.036357,-0.004067,-8.243664,-76.891087,7.187346
180339,-0.027975,0.047962,-0.009146,-8.218138,-76.865434,7.144726
180439,-0.01382,0.056188,-0.01426,-8.16944,-76.835519,7.08663
180539,-0.008807,0.07161,-0.012798,-8.116411,-76.796719,7.027025
180639,-0.008347,0.077078,-0.010047,-8.068262,-76.754581,6.972693
180739,-0.009217,0.058285,-0.006773,-8.035177,-76.722838,6.933317
180839,-0.013164,0.035769,-0.007446,-8.010505,-76.703921,6.900258
180939,-0.014653,0.019231,-0.007016,-7.993362,-76.694349,6.874056
181039,-0.014229,0.011193,-0.008592,-7.97494,-76.689457,6.846789
181139,-0.001965,0.009092,-0.011878,-7.942346,-76.686004,6.812177
181239,0.019233,0.014123,-0.010596,-7.899013,-76.679575,6.779011
181339,0.039321,0.021529,-0.010728,-7.84144,-76.668935,6.743038
181439,0.047678,0.026383,-0.007958,-7.784177,-76.655305,6.712303
181539,0.038728,0.032617,-0.004295,-7.738851,-76.637841,6.688565
181639,0.017053,0.040837,0.000113,-7.713891,-76.615365,6.672995
181739,-0.001857,0.043993,0.000199,-7.698968,-76.591096,6.656604
181839,-0.000207,0.034303,0.004941,-7.697614,-76.571959,6.655131
181939,-0.020067,0.031913,0.006724,-7.712655,-76.55404,6.658814
182039,-0.000304,0.021536,0.003468,-7.711935,-76.542265,6.657936
182139,0.024183,0.023089,-0.002924,-7.68151,-76.530094,6.640942
182239,0.040074,0.033248,-0.006048,-7.631362,-76.512384,6.61303
182339,0.04425,0.046297,-0.010244,-7.564891,-76.487564,6.570789
182439,0.046176,0.060319,-0.013002,-7.486689,-76.454965,6.517611
182539,0.043541,0.070112,-0.010604,-7.413002,-76.416598,6.467514
182639,0.041201,0.078745,-0.007937,-7.344694,-76.373107,6.421561
182739,0.042538,0.077523,-0.000755,-7.293168,-76.329767,6.393655
182839,0.046603,0.071047,0.004106,-7.252794,-76.289748,6.379621
182939,0.046546,0.068113,0.006029,-7.217883,-76.251252,6.371178
183039,0.042988,0.069856,0.003971,-7.17976,-76.211912,6.357333
183139,0.036505,0.082405,0.000158,-7.132975,-76.16571,6.330745
183239,0.024859,0.09456,-0.005114,-7.077454,-76.112965,6.288283
183339,0.01514,0.095345,-0.005057,-7.027772,-76.059758,6.246089
183439,0.01136,0.080731,-0.007499,-6.979145,-76.015019,6.20274
183539,0.019817,0.068388,-0.005692,-6.933534,-75.977164,6.167485
183639,0.040529,0.05574,-0.000195,-6.892244,-75.946112,6.148912
183739,0.061381,0.058935,-0.002278,-6.833529,-75.913382,6.124692
183839,0.069846,0.067627,-0.006642,-6.757912,-75.876001,6.088043
183939,0.061247,0.067913,-0.011645,-6.676146,-75.838785,6.039967
184039,0.041599,0.048026,-0.010159,-6.614521,-75.812774,6.001046
184139,0.016701,0.034509,-0.00122,-6.590965,-75.793858,5.986674
184239,0.013411,0.036741,0.001937,-6.575882,-75.773462,5.979094
184339,0.01935,0.042108,0.005784,-6.564673,-75.749762,5.979021
184439,0.024053,0.043467,0.007885,-6.555103,-75.725153,5.983422
184539,0.030368,0.048684,0.002742,-6.529016,-75.697909,5.974518
184639,0.027264,0.04123,-0.00074,-6.498813,-75.675138,5.959535
184739,0.022873,0.02884,-0.005393,-6.463899,-75.659721,5.937096
184839,0.010609,0.018536,-0.009011,-6.430568,-75.650396,5.909039
184939,-0.000811,0.024522,-0.010418,-6.399191,-75.637745,5.876244
185039,-0.015195,0.032682,-0.009638,-6.375812,-75.620394,5.843196
185139,-0.028177,0.029315,-0.005704,-6.369481,-75.604712,5.820067
185239,-0.031939,0.019465,-0.001686,-6.376635,-75.594387,5.808636
185339,-0.029296,0.013673,-0.001828,-6.383353,-75.587366,5.79832
185439,-0.017479,0.010305,-0.004356,-6.3785,-75.582421,5.78305
185539,-0.004916,0.007126,-0.006562,-6.362353,-75.579423,5.763551
185639,0.011794,0.000953,-0.007285,-6.336579,-75.579981,5.743997
185739,0.025734,-0.004707,-0.00801,-6.302634,-75.5838,5.72425
185839,0.028366,-0.004742,-0.009253,-6.264475,-75.587711,5.701706
185939,0.034013,0.006009,-0.012376,-6.213608,-75.585686,5.669378
186039,0.039844,0.010908,-0.010347,-6.162791,-75.580736,5.640548
186139,0.045148,0.015275,-0.009461,-6.109917,-75.573234,5.61273
186239,0.046912,0.022561,-0.009882,-6.05343,-75.561603,5.582222
186339,0.03687,0.026204,-0.006589,-6.009191,-75.547691,5.558421
186439,0.033008,0.016694,-0.005239,-5.972405,-75.539114,5.540029
186539,0.041154,0.000587,-0.004145,-5.937099,-75.539643,5.527987
186639,0.050918,-0.003018,-0.005964,-5.893029,-75.542328,5.512669
186739,0.055679,0.001247,-0.006195,-5.844812,-75.542589,5.495883
186839,0.049742,0.001737,0.001764,-5.817543,-75.542105,5.497212
186939,0.043108,-0.009382,0.014207,-5.824091,-75.547244,5.52954
187039,0.042722,-0.02695,0.021667,-5.851275,-75.561969,5.582952
187139,0.038758,-0.043162,0.025154,-5.892096,-75.585726,5.648106
187239,0.028406,-0.049923,0.022722,-5.935028,-75.613468,5.709314
187339,0.016086,-0.050492,0.020304,-5.979865,-75.64166,5.765202
187439,0.011952,-0.054431,0.012806,-6.011429,-75.672529,5.804939
187539,0.021208,-0.054283,0.007452,-6.025861,-75.703621,5.83246
187639,0.02726,-0.041127,0.000703,-6.018752,-75.727612,5.841323
187739,0.026009,-0.015887,-0.00161,-6.001307,-75.737353,5.838776
187839,0.023183,0.00327,-0.00284,-5.978276,-75.736252,5.82879
187939,0.018051,0.000251,0.000765,-5.966999,-75.736662,5.827897
188039,0.008796,-0.013461,0.006294,-5.976611,-75.744567,5.843088
188139,-0.002078,-0.031308,0.012162,-6.009789,-75.762298,5.876167
188239,-0.013714,-0.04504,0.011224,-6.050811,-75.787908,5.91046
188339,-0.024252,-0.053098,0.010612,-6.098512,-75.818139,5.945414
188439,-0.040999,-0.050048,0.010447,-6.154878,-75.84663,5.979403
188539,-0.047486,-0.040294,0.012024,-6.216358,-75.869452,6.014825
188639,-0.039696,-0.025677,0.008895,-6.262864,-75.884128,6.039404
188739,-0.028951,-0.017815,0.005839,-6.294447,-75.894511,6.054938
188839,-0.015033,-0.01661,0.002892,-6.311121,-75.90439,6.063321
188939,-0.01316,-0.023028,0.002507,-6.327488,-75.917949,6.072492
189039,-0.017254,-0.025705,0.00156,-6.344744,-75.933095,6.080162
189139,-0.03548,-0.033908,-0.001312,-6.368015,-75.953095,6.083266
189239,-0.048575,-0.026309,0.000421,-6.400834,-75.96866,6.088479
189339,-0.060388,-0.004644,0.004557,-6.444278,-75.97162,6.097669
189439,-0.073056,-0.000327,0.006791,-6.498868,-75.971979,6.11087
189539,-0.07269,0.005324,0.006098,-6.550048,-75.969178,6.120783
189639,-0.081446,-0.010651,0.00346,-6.60429,-75.975648,6.128687
189739,-0.089203,-0.035885,-0.006449,-6.647019,-75.997134,6.120147
189839,-0.080309,-0.046846,-0.012463,-6.673857,-76.025251,6.100483
189939,-0.060774,-0.034999,-0.017783,-6.674173,-76.046973,6.065024
190039,-0.046381,-0.007908,-0.021537,-6.650428,-76.053522,6.013267
190139,-0.031358,0.005073,-0.017443,-6.624095,-76.052399,5.967706
190239,-0.01925,0.003767,-0.012742,-6.602056,-76.051695,5.933713
190339,-0.011841,-0.01373,-0.009066,-6.588916,-76.060698,5.913257
190439,-0.008418,-0.039706,-0.009768,-6.579124,-76.084528,5.89827
190539,0.002023,-0.058133,-0.009952,-6.567829,-76.118854,5.887895
190639,0.016462,-0.064196,-0.008729,-6.552698,-76.156546,5.882088
190739,0.027459,-0.055174,-0.012032,-6.52122,-76.189314,5.865931
190839,0.028077,-0.048571,-0.013022,-6.485298,-76.218381,5.845563
190939,0.027285,-0.032169,-0.006656,-6.460251,-76.237694,5.835923
191039,0.025717,-0.028774,-0.003415,-6.44272,-76.254867,5.833095
191139,0.029947,-0.041575,-0.000445,-6.432983,-76.279144,5.840788
191239,0.031915,-0.054855,-0.000191,-6.426133,-76.310971,5.852617
191339,0.030205,-0.059692,-0.000978,-6.419647,-76.345609,5.863812
191439,0.026814,-0.055305,-0.002976,-6.409233,-76.377883,5.868967
191539,0.018069,-0.044202,-0.005626,-6.394676,-76.404012,5.864702
191639,0.009051,-0.031921,-0.004465,-6.384804,-76.423083,5.859938
191739,0.005839,-0.034083,0.000879,-6.38997,-76.443052,5.86875
191839,0.00136,-0.033589,0.00534,-6.408137,-76.462464,5.888295
191939,0.001098,-0.033084,0.013836,-6.446445,-76.481053,5.928403
192039,-0.006191,-0.038237,0.017592,-6.499262,-76.502334,5.979137
192139,-0.000725,-0.052683,0.017949,-6.553811,-76.531811,6.034871
192239,0.007334,-0.055858,0.013714,-6.594703,-76.563368,6.081307
192339,0.008669,-0.038841,0.008125,-6.61696,-76.585603,6.109366
192439,0.001477,-0.012498,0.001571,-6.620489,-76.593279,6.113932
192539,-0.002291,-0.008944,-3e-06,-6.621504,-76.59904,6.11369
192639,0.000998,-0.020575,0.00266,-6.630289,-76.611246,6.12337
192739,0.012004,-0.03262,0.006359,-6.64505,-76.630056,6.145671
192839,0.020637,-0.038489,0.010021,-6.665387,-76.651951,6.178784
192939,0.027051,-0.037763,0.012589,-6.688131,-76.673246,6.21814
193039,0.032615,-0.028284,0.015588,-6.712331,-76.68893,6.262265
193139,0.030245,-0.007201,0.015751,-6.732391,-76.692595,6.300737
193239,0.020455,0.017425,0.011435,-6.740707,-76.682537,6.321375
193339,0.004378,0.03338,0.014546,-6.761127,-76.663198,6.344988
193439,-0.008872,0.025122,0.021677,-6.808442,-76.648088,6.388446
193539,-0.014233,-0.003473,0.025938,-6.877068,-76.648961,6.450657
193639,-0.023946,-0.028764,0.026639,-6.96024,-76.664165,6.522101
193739,-0.028257,-0.050994,0.026057,-7.051184,-76.692029,6.598991
193839,-0.027183,-0.054559,0.027067,-7.145317,-76.721816,6.679783
193939,-0.025345,-0.044691,0.022597,-7.224938,-76.746281,6.746738
194039,-0.024279,-0.028694,0.014653,-7.280074,-76.762207,6.789161
194139,-0.022445,-0.009181,0.007407,-7.310733,-76.767567,6.807515
194239,-0.028304,0.000309,0.005188,-7.336526,-76.767701,6.81742
194339,-0.034384,-0.00534,0.004086,-7.364979,-76.771134,6.826474
194439,-0.031479,-0.023418,0.008119,-7.407268,-76.784547,6.851447
194539,-0.024689,-0.045136,0.012431,-7.463096,-76.809976,6.894319
194639,-0.018323,-0.062297,0.015595,-7.528647,-76.844904,6.950918
194739,-0.017246,-0.072466,0.018668,-7.604663,-76.885354,7.018889
194839,-0.013249,-0.064125,0.017565,-7.67334,-76.921129,7.081667
194939,-0.001252,-0.03141,0.015648,-7.719863,-76.938455,7.128752
195039,0.002617,-0.005678,0.005926,-7.731873,-76.941914,7.142685
195139,0.004329,0.005785,-0.003452,-7.71615,-76.93959,7.129154
195239,0.000508,-0.005907,-0.008138,-7.695061,-76.944261,7.107866
195339,0.00309,-0.021707,-0.006275,-7.682319,-76.957752,7.096662
195439,0.007864,-0.027497,-0.000153,-7.683807,-76.974053,7.102871
195539,0.012199,-0.012431,0.005499,-7.691752,-76.981363,7.118254
195639,0.009668,-0.001319,0.012216,-7.713994,-76.98185,7.14682
195739,0.003039,0.001995,0.017689,-7.752368,-76.980035,7.188047
195839,-0.002027,0.006864,0.022175,-7.802977,-76.975106,7.238854
195939,-0.002229,-0.004055,0.02329,-7.860058,-76.976284,7.296187
196039,-0.002576,-0.033315,0.024981,-7.931469,-76.99393,7.368024
196139,0.002629,-0.068019,0.02063,-8.001366,-77.0316,7.44136
196239,0.010999,-0.081922,0.018767,-8.067106,-77.077284,7.515341
196339,0.016323,-0.075344,0.015452,-8.119684,-77.119485,7.578936
196439,0.02047,-0.059154,0.011608,-8.154877,-77.152802,7.627128
196539,0.019312,-0.049826,0.005349,-8.171974,-77.181331,7.656075
196639,0.015088,-0.04374,0.002656,-8.182664,-77.206624,7.675967
196739,0.011644,-0.0447,0.002183,-8.194547,-77.232494,7.695055
196839,0.010489,-0.041136,0.000844,-8.202503,-77.25645,7.709438
196939,0.006829,-0.032514,0.003379,-8.215846,-77.275304,7.727193
197039,0.00391,-0.023951,0.005863,-8.234055,-77.289101,7.748218
197139,0.003967,-0.022979,0.010741,-8.264208,-77.301951,7.781519
197239,0.000684,-0.027088,0.013811,-8.305562,-77.316881,7.824371
197339,-0.00042,-0.039559,0.021186,-8.370861,-77.338264,7.891116
197439,0.001126,-0.047825,0.02463,-8.447261,-77.364026,7.97014
197539,0.006943,-0.049588,0.020356,-8.510434,-77.391125,8.039019
197639,0.006825,-0.045652,0.015237,-8.559423,-77.416414,8.093288
197739,-0.001665,-0.043154,0.011685,-8.603481,-77.440576,8.137516
197839,-0.004474,-0.041131,0.008334,-8.639999,-77.463866,8.172367
197939,-0.00323,-0.039917,0.007164,-8.672484,-77.48656,8.203813
198039,0.002859,-0.029793,0.006395,-8.695657,-77.503581,8.229291
198139,0.004973,-0.033419,0.009905,-8.728066,-77.522349,8.265469
198239,0.001254,-0.037729,0.01121,-8.767728,-77.54344,8.306892
198339,-0.000463,-0.048475,0.012023,-8.814851,-77.570538,8.354944
198439,-0.003948,-0.057517,0.011642,-8.866811,-77.60278,8.405899
198539,-0.003124,-0.064994,0.010788,-8.919375,-77.639322,8.457949
198639,-0.007455,-0.065297,0.006027,-8.962506,-77.676446,8.497796
198739,-0.007029,-0.069094,0.003317,-9.000143,-77.71595,8.532265
198839,-0.009395,-0.061187,0.00182,-9.032176,-77.751103,8.559606
198939,-0.01188,-0.050995,0.000521,-9.058163,-77.780598,8.5793
199039,-0.014373,-0.036407,-0.001908,-9.07325,-77.802058,8.586377
199139,-0.016612,-0.032472,-0.000463,-9.091817,-77.821169,8.595701
199239,-0.014241,-0.044727,0.004008,-9.125991,-77.846813,8.622378
199339,-0.012625,-0.059552,0.013877,-9.191676,-77.87994,8.682231
199439,-0.008871,-0.074984,0.021019,-9.281072,-77.921122,8.768524
199539,-0.010888,-0.08486,0.026167,-9.390182,-77.967378,8.873779
199639,-0.015989,-0.079253,0.03107,-9.513553,-78.009957,8.990609
199739,-0.020905,-0.075314,0.03206,-9.641403,-78.050161,9.109123
199839,-0.019877,-0.072013,0.028772,-9.759114,-78.08876,9.21786
199939,-0.015564,-0.069444,0.024948,-9.86358,-78.126237,9.315571
200039,-0.00908,-0.067728,0.023566,-9.960413,-78.162846,9.409267
200139,-0.001821,-0.072115,0.027558,-10.06656,-78.201504,9.516713
200239,-0.004372,-0.081327,0.035007,-10.199541,-78.244565,9.650062
200339,-0.018283,-0.082346,0.042708,-10.362906,-78.287342,9.80628
200439,-0.03362,-0.078353,0.04822,-10.549174,-78.3272,9.976892
200539,-0.041647,-0.067102,0.054215,-10.751691,-78.359974,10.159382
200639,-0.050411,-0.050296,0.04465,-10.925084,-78.384206,10.306996
200739,-0.065035,-0.043686,0.032203,-11.069723,-78.406005,10.416696
200839,-0.07516,-0.049042,0.015684,-11.178115,-78.432588,10.483467
200939,-0.072162,-0.054016,0.004573,-11.257309,-78.463171,10.522181
201039,-0.062332,-0.045101,0.00214,-11.319589,-78.488994,10.549377
201139,-0.037719,-0.025987,0.001963,-11.35696,-78.504093,10.565537
201239,-0.013853,-0.020104,0.008852,-11.396619,-78.515112,10.597981
201339,0.005722,-0.028813,0.021888,-11.466192,-78.529542,10.672389
201439,0.009901,-0.039393,0.033271,-11.571158,-78.54859,10.785346
201539,0.000603,-0.055536,0.041375,-11.713616,-78.575713,10.931109
201639,-0.016406,-0.070719,0.04037,-11.872597,-78.611397,11.08377
201739,-0.03896,-0.078303,0.042168,-12.055009,-78.65103,11.247128
201839,-0.055543,-0.074281,0.035507,-12.226994,-78.689117,11.390142
201939,-0.059912,-0.057931,0.025002,-12.362928,-78.719256,11.493825
202039,-0.051326,-0.043291,0.012006,-12.448867,-78.742764,11.551539
202139,-0.035482,-0.03875,0.002528,-12.496437,-78.764891,11.579384
202239,-0.017292,-0.050125,-0.00024,-12.533029,-78.793719,11.606661
202339,-0.006843,-0.065531,-0.005671,-12.558176,-78.83183,11.628369
202439,-0.002491,-0.067368,-0.001246,-12.594813,-78.870405,11.664324
202539,-0.002456,-0.058628,0.007842,-12.6521,-78.902942,11.721335
202639,-0.000719,-0.049771,0.019385,-12.736084,-78.929058,11.806556
202739,-0.002903,-0.050559,0.033339,-12.862215,-78.953818,11.933437
202839,-0.009011,-0.049025,0.04045,-13.011784,-78.976753,12.080621
202939,-0.012993,-0.052231,0.04266,-13.172691,-79.001116,12.237021
203039,-0.015596,-0.054977,0.039635,-13.328879,-79.027325,12.387083
203139,-0.010416,-0.043646,0.031742,-13.452167,-79.048196,12.506649
203239,-0.002359,-0.031995,0.025435,-13.544896,-79.063382,12.599787
203339,0.005631,-0.030924,0.021221,-13.620319,-79.078523,12.679958
203439,0.010746,-0.040975,0.018374,-13.691826,-79.099634,12.759123
203539,0.013026,-0.06397,0.020864,-13.785839,-79.133188,12.862531
203639,0.011651,-0.081848,0.024,-13.903214,-79.176223,12.988909
203739,0.011131,-0.092219,0.026297,-14.036117,-79.224653,13.130773
203839,0.007021,-0.098151,0.028668,-14.183937,-79.275983,13.2854
203939,0.001048,-0.095417,0.030091,-14.338726,-79.325518,13.443611
204039,-0.008336,-0.07938,0.027772,-14.481202,-79.366408,13.5838
204139,-0.020097,-0.060742,0.024566,-14.607558,-79.397367,13.700716
204239,-0.033617,-0.055057,0.021363,-14.728374,-79.425606,13.804106
204339,-0.043677,-0.066927,0.017022,-14.851943,-79.461029,13.904424
204439,-0.050974,-0.082934,0.017827,-14.995597,-79.505165,14.020906
204539,-0.056846,-0.102088,0.018224,-15.160446,-79.559787,14.155502
204639,-0.056051,-0.11276,0.020326,-15.341576,-79.619918,14.307087
204739,-0.049903,-0.115868,0.017875,-15.516303,-79.68205,14.455714
204839,-0.041914,-0.109016,0.01049,-15.660025,-79.74146,14.577451
204939,-0.028286,-0.095795,0.001211,-15.757573,-79.794969,14.660181
205039,-0.016773,-0.084292,-0.004095,-15.823081,-79.842942,14.717046
205139,-0.007703,-0.078701,-0.001961,-15.885652,-79.887492,14.776198
205239,-0.00814,-0.072829,-0.00289,-15.940954,-79.928944,14.827703
205339,-0.007254,-0.073481,-0.000798,-16.003321,-79.970417,14.886891
205439,-0.012026,-0.073013,0.008904,-16.098861,-80.010078,14.976979
205539,-0.016988,-0.072653,0.017995,-16.226161,-80.048056,15.096416
205639,-0.028289,-0.06791,0.021849,-16.368589,-80.082749,15.224626
205739,-0.047208,-0.0594,0.022766,-16.517681,-80.112549,15.348584
205839,-0.066407,-0.046608,0.014871,-16.641517,-80.136553,15.435733
205939,-0.080265,-0.033857,0.009114,-16.743415,-80.154472,15.492551
206039,-0.07609,-0.012388,0.005897,-16.812476,-80.161133,15.518469
206139,-0.064256,0.001849,0.002952,-16.85186,-80.160476,15.521148
206239,-0.053262,0.012373,0.002152,-16.872365,-80.154187,15.511059
206339,-0.050605,0.00714,0.003769,-16.901513,-80.150508,15.511286
206439,-0.05264,-0.016994,-0.003028,-16.933597,-80.16119,15.513308
206539,-0.066445,-0.045269,0.00033,-17.011647,-80.186793,15.553952
206639,-0.07485,-0.050513,0.008112,-17.12473,-80.213936,15.625254
206739,-0.07493,-0.037584,0.015744,-17.249971,-80.232679,15.708839
206839,-0.076176,-0.023875,0.020138,-17.37674,-80.243148,15.793246
206939,-0.078548,-0.022157,0.017714,-17.495704,-80.253074,15.86835
207039,-0.070086,-0.036892,0.012299,-17.607654,-80.271967,15.941254
207139,-0.063961,-0.061763,0.004836,-17.717979,-80.30572,16.016063
207239,-0.055179,-0.100077,-0.00302,-17.838256,-80.36173,16.106061
207339,-0.047192,-0.14185,-0.003058,-17.998905,-80.440484,16.241624
207439,-0.040929,-0.156244,-0.00184,-18.177829,-80.526793,16.39932
207539,-0.030908,-0.129561,-0.000579,-18.329181,-80.598278,16.534849
207639,-0.024461,-0.092558,-0.0032,-18.429592,-80.650071,16.622465
207739,-0.019056,-0.068862,-0.004698,-18.496721,-80.689247,16.679478
207839,-0.020338,-0.063442,-0.007768,-18.548882,-80.72604,16.720574
207939,-0.024416,-0.06772,-0.010788,-18.598516,-80.765711,16.756736
208039,-0.033529,-0.073924,-0.012717,-18.654307,-80.809105,16.793843
208139,-0.041093,-0.073059,-0.012832,-18.713483,-80.852049,16.829983
208239,-0.04803,-0.068843,-0.011327,-18.777297,-80.892425,16.866792
208339,-0.054637,-0.062043,-0.010483,-18.840307,-80.928954,16.898949
208439,-0.050901,-0.049148,-0.011938,-18.881554,-80.958761,16.911234
208539,-0.041595,-0.041407,-0.010119,-18.914794,-80.984038,16.920808
208639,-0.032273,-0.03117,-0.012654,-18.922135,-81.004242,16.909566
208739,-0.025433,-0.020535,-0.017526,-18.896385,-81.019592,16.868791
208839,-0.026682,-0.01954,-0.01703,-18.871847,-81.03431,16.828518
208939,-0.032792,-0.021868,-0.015064,-18.860276,-81.049923,16.797829
209039,-0.039039,-0.021743,-0.011976,-18.86274,-81.064889,16.777723
209139,-0.038745,-0.018379,-0.011211,-18.863681,-81.077882,16.756248
209239,-0.036984,-0.011302,-0.011607,-18.853863,-81.087106,16.724904
209339,-0.039877,-0.004728,-0.012258,-18.83568,-81.092881,16.683415
209439,-0.04213,-0.001595,-0.011924,-18.816264,-81.096888,16.63937
209539,-0.04405,0.000505,-0.013611,-18.789653,-81.100062,16.586929
209639,-0.048755,0.007456,-0.018104,-18.742006,-81.100286,16.510467
209739,-0.051521,0.011947,-0.017926,-18.691309,-81.098029,16.429313
209839,-0.047641,0.011851,-0.021156,-18.627324,-81.096407,16.33696
209939,-0.035921,0.01042,-0.023777,-18.549197,-81.09603,16.23709
210039,-0.023692,0.003228,-0.0298,-18.451437,-81.100639,16.124441
210139,-0.004965,0.003124,-0.036366,-18.320092,-81.106461,15.988662
210239,0.010967,0.008251,-0.044899,-18.14388,-81.110969,15.816712
210339,0.010586,0.022532,-0.051205,-17.929655,-81.108724,15.606066
210439,0.004085,0.039695,-0.051454,-17.699373,-81.097035,15.375392
210539,-0.008531,0.041676,-0.042506,-17.506035,-81.082586,15.174786
210639,-0.019679,0.038671,-0.030728,-17.364076,-81.067671,15.019714
210739,-0.022203,0.035949,-0.018831,-17.268405,-81.052172,14.910029
210839,-0.016762,0.040928,-0.006589,-17.207143,-81.031852,14.838328
210939,-0.001268,0.042099,-0.002616,-17.149858,-81.010212,14.779636
211039,0.01631,0.040863,0.000185,-17.093826,-80.988773,14.732405
211139,0.033952,0.041565,-0.000586,-17.024607,-80.967076,14.682055
211239,0.045849,0.042224,-0.005722,-16.930558,-80.945872,14.61346
211339,0.050071,0.035765,-0.009229,-16.82918,-80.928781,14.539889
211439,0.045259,0.023763,-0.010563,-16.73871,-80.918478,14.47457
211539,0.044463,0.032466,-0.004343,-16.661236,-80.902363,14.421949
211639,0.072089,0.039649,0.007291,-16.600623,-80.880384,14.402433
211739,0.018277,0.041392,0.015007,-16.595491,-80.856194,14.407884
211839,0.023975,0.015879,0.020465,-16.631605,-80.845119,14.458418
211939,0.028346,-0.01973,0.021506,-16.704998,-80.853408,14.549249
212039,0.014758,-0.021195,0.022567,-16.791477,-80.862306,14.645447
212139,0.056359,0.003056,0.027745,-16.846913,-80.857018,14.734342
212239,0.041189,0.032976,0.036479,-16.909746,-80.833859,14.821929
212339,0.064246,0.031557,0.037379,-16.963566,-80.811325,14.913773
212439,0.094047,0.015697,0.031212,-16.995565,-80.798511,15.000814
212539,0.095194,-0.000416,0.021513,-17.010639,-80.796152,15.071377
212639,0.091988,-0.014635,0.021661,-17.042767,-80.801554,15.157356
212739,0.079975,-0.027925,0.028251,-17.117983,-80.813108,15.280009
212839,0.063905,-0.046584,0.035227,-17.245865,-80.833656,15.44668
212939,0.049746,-0.049175,0.038487,-17.396276,-80.855002,15.627944
213039,0.043017,-0.037159,0.038579,-17.538642,-80.869695,15.797148
213139,0.046409,-0.026375,0.037057,-17.662644,-80.878707,15.949715
213239,0.055598,-0.020762,0.034198,-17.76577,-80.88511,16.086468
213339,0.066997,-0.022804,0.027265,-17.84116,-80.893819,16.201743
213439,0.073944,-0.033365,0.019951,-17.899488,-80.909559,16.303766
213539,0.081112,-0.050471,0.019711,-17.972155,-80.934652,16.424464
213639,0.080322,-0.063735,0.023032,-18.072049,-80.966353,16.57226
213739,0.084642,-0.065292,0.025968,-18.182185,-80.998331,16.732921
213839,0.082969,-0.061122,0.026071,-18.289814,-81.02797,16.890059
213939,0.078935,-0.057115,0.025518,-18.394065,-81.055483,17.041425
214039,0.080957,-0.061814,0.026395,-18.506358,-81.085346,17.202094
214139,0.085853,-0.064619,0.024773,-18.614323,-81.116983,17.361209
214239,0.088635,-0.075294,0.022865,-18.727533,-81.154718,17.527233
214339,0.086815,-0.082709,0.021332,-18.846401,-81.196709,17.69791
214439,0.095745,-0.084169,0.016971,-18.94784,-81.24025,17.856111
214539,0.10964,-0.076214,0.015738,-19.028389,-81.279669,18.001214
214639,0.127121,-0.057607,0.010631,-19.058822,-81.309946,18.105739
214739,0.144236,-0.050805,0.004998,-19.051361,-81.337597,18.181847
214839,0.154269,-0.060457,0.003107,-19.043388,-81.370832,18.263245
214939,0.158229,-0.075961,0.007518,-19.068325,-81.411633,18.380218
215039,0.160974,-0.086964,0.014425,-19.130894,-81.457072,18.536826
215139,0.158588,-0.087836,0.022166,-19.225035,-81.501479,18.723958
215239,0.151945,-0.081092,0.029395,-19.342029,-81.540805,18.930328
215339,0.147005,-0.068971,0.032833,-19.460127,-81.572857,19.134933
215439,0.153028,-0.054532,0.034334,-19.562507,-81.596768,19.327127
215539,0.158834,-0.054883,0.034048,-19.661612,-81.620884,19.519363
215639,0.162915,-0.066271,0.030285,-19.760254,-81.651833,19.713484
215739,0.162722,-0.07853,0.030745,-19.877947,-81.689255,19.926734
215839,0.177428,-0.104488,0.029833,-20.020224,-81.740771,20.17332
215939,0.176141,-0.111847,0.038295,-20.207177,-81.794469,20.46427
216039,0.17876,-0.100816,0.050453,-20.425702,-81.839666,20.788598
216139,0.16726,-0.094698,0.058235,-20.674191,-81.879816,21.136506
216239,0.161471,-0.089697,0.06615,-20.951285,-81.915441,21.509927
216339,0.164746,-0.082232,0.072691,-21.242777,-81.945459,21.899758
216439,0.157402,-0.072195,0.069801,-21.514769,-81.970461,22.265624
216539,0.147293,-0.066286,0.06539,-21.7686,-81.993023,22.607282
216639,0.136473,-0.065332,0.065899,-22.030478,-82.014766,22.950792
216739,0.122413,-0.071028,0.065522,-22.309238,-82.039398,23.303197
216839,0.10006,-0.081749,0.064365,-22.615092,-82.069715,23.670006
216939,0.091078,-0.077937,0.070174,-22.944357,-82.096449,24.055233
217039,0.083391,-0.058848,0.073867,-23.262924,-82.111991,24.425197
217139,0.061794,-0.051715,0.076629,-23.593586,-82.122859,24.79487
217239,0.043282,-0.049552,0.075861,-23.928989,-82.132468,25.158616
217339,0.030534,-0.039412,0.079088,-24.267193,-82.135713,25.517812
217439,0.024541,-0.023795,0.080409,-24.586929,-82.130202,25.854901
217539,0.027028,-0.015042,0.083824,-24.9022,-82.119054,26.18893
217639,0.033323,-0.011647,0.088875,-25.225788,-82.104661,26.535006
217739,0.041547,-0.015896,0.090048,-25.555348,-82.091908,26.891881
217839,0.050735,-0.017617,0.088757,-25.876834,-82.080077,27.245929
217939,0.057944,-0.014855,0.090309,-26.193873,-82.066146,27.599668
218039,0.0616,-0.017933,0.088953,-26.508286,-82.053855,27.952883
218139,0.070016,-0.030922,0.086703,-26.832715,-82.048506,28.321085
218239,0.082992,-0.05323,0.084128,-27.181761,-82.054904,28.721647
218339,0.096988,-0.075964,0.08414,-27.566845,-82.072499,29.166678
218439,0.109043,-0.086964,0.084447,-27.969454,-82.09515,29.636349
218539,0.11358,-0.08381,0.082385,-28.358446,-82.116297,30.094869
218639,0.11637,-0.076633,0.085833,-28.746532,-82.132433,30.554062
218739,0.11555,-0.073176,0.086418,-29.132178,-82.146215,31.010296
218839,0.115989,-0.072962,0.087698,-29.523463,-82.159074,31.472457
218939,0.116296,-0.079678,0.090167,-29.939072,-82.17409,31.959328
219039,0.122025,-0.087763,0.093277,-30.38164,-82.191682,32.476701
219139,0.133817,-0.103275,0.098623,-30.872417,-82.214751,33.049522
219239,0.144937,-0.110346,0.102731,-31.390435,-82.239349,33.65623
219339,0.151147,-0.10371,0.099928,-31.88383,-82.26079,34.24164
219439,0.158426,-0.095597,0.097536,-32.349221,-82.278319,34.802968
219539,0.152584,-0.077324,0.088889,-32.747564,-82.28908,35.293237
219639,0.145865,-0.04885,0.078141,-33.046835,-82.289046,35.67964
219739,0.127645,-0.027061,0.065788,-33.262053,-82.282155,35.970691
219839,0.11019,-0.023846,0.055023,-33.441178,-82.276935,36.215232
219939,0.10129,-0.03233,0.049127,-33.623988,-82.277476,36.45835
220039,0.092574,-0.049052,0.04389,-33.832567,-82.287483,36.722432
220139,0.091784,-0.064973,0.03787,-34.058675,-82.306792,37.003737
220239,0.091657,-0.073772,0.034169,-34.294083,-82.331259,37.29434
220339,0.096713,-0.072464,0.029644,-34.509145,-82.35637,37.567319
220439,0.100704,-0.07428,0.025429,-34.713129,-82.383528,37.83141
220539,0.101252,-0.082058,0.02471,-34.935146,-82.4144,38.11399
220639,0.10193,-0.091538,0.023151,-35.176986,-82.450026,38.416937
220739,0.100477,-0.101054,0.028963,-35.466821,-82.487932,38.767428
220839,0.098586,-0.112794,0.034983,-35.812352,-82.528978,39.172969
220939,0.094783,-0.12443,0.040639,-36.214476,-82.573105,39.633344
221039,0.085835,-0.12868,0.044083,-36.650258,-82.617517,40.122445
221139,0.072216,-0.120945,0.044527,-37.080136,-82.657688,40.597677
221239,0.06296,-0.118044,0.041904,-37.50293,-82.69693,41.060379
221339,0.05688,-0.114194,0.036334,-37.903448,-82.735897,41.49707
221439,0.059474,-0.116344,0.02639,-38.277573,-82.778917,41.908614
221539,0.061785,-0.107799,0.011195,-38.576602,-82.823154,42.245763
221639,0.070203,-0.104638,-0.004235,-38.810398,-82.871248,42.521994
221739,0.086157,-0.104215,-0.016389,-38.993413,-82.923339,42.756235
221839,0.095009,-0.105538,-0.031225,-39.124494,-82.981228,42.94323
221939,0.110215,-0.105234,-0.041454,-39.211033,-83.042565,43.094103
222039,0.117768,-0.102587,-0.050509,-39.253824,-83.105912,43.205249
222139,0.127753,-0.103126,-0.062468,-39.249269,-83.173747,43.274456
222239,0.126742,-0.107684,-0.073073,-39.219785,-83.247358,43.317964
222339,0.137001,-0.115391,-0.079046,-39.185386,-83.326457,43.362435
222439,0.151033,-0.111964,-0.078901,-39.132462,-83.403884,43.396342
222539,0.148288,-0.111068,-0.082732,-39.062809,-83.482204,43.411821
222639,0.138472,-0.109826,-0.087838,-38.973755,-83.561723,43.402112
222739,0.1242,-0.115196,-0.091361,-38.894671,-83.644812,43.394206
222839,0.10724,-0.120615,-0.09722,-38.817785,-83.732333,43.378735
222939,0.093352,-0.139265,-0.100685,-38.794782,-83.829333,43.409464
223039,0.091031,-0.142274,-0.108428,-38.750396,-83.930372,43.417345
223139,0.091572,-0.14069,-0.116781,-38.663398,-84.03362,43.382685
223239,0.094557,-0.145864,-0.123996,-38.558455,-84.14168,43.33171
223339,0.104302,-0.150404,-0.133564,-38.417673,-84.255087,43.250333
223439,0.118985,-0.159513,-0.138238,-38.274766,-84.374129,43.175289
223539,0.130201,-0.181632,-0.145923,-38.165488,-84.505733,43.140504
223639,0.137464,-0.205005,-0.152773,-38.103189,-84.650183,43.157093
223739,0.136172,-0.220505,-0.158805,-38.070208,-84.803644,43.202372
223839,0.127937,-0.225011,-0.164525,-38.030716,-84.961051,43.236361
223939,0.105361,-0.228011,-0.169123,-37.991735,-85.12133,43.257867
224039,0.078337,-0.224256,-0.173943,-37.92478,-85.281502,43.235751
224139,0.062376,-0.210143,-0.179128,-37.771555,-85.436993,43.117907
224239,0.048421,-0.183626,-0.181123,-37.484223,-85.580995,42.857541
224339,0.042775,-0.165328,-0.183445,-37.082083,-85.71722,42.478834
224439,0.045692,-0.158001,-0.188815,-36.583302,-85.851594,42.004961
224539,0.037166,-0.171205,-0.201314,-36.037224,-85.995883,41.478848
224639,0.028047,-0.168038,-0.214782,-35.346816,-86.142681,40.802914
224739,0.003825,-0.120013,-0.227409,-34.284487,-86.270168,39.740432
224839,-0.010303,-0.042606,-0.237881,-32.694131,-86.362173,38.140842
224939,-0.015281,0.018651,-0.236469,-30.746402,-86.420528,36.180431
225039,-0.034306,0.061948,-0.228998,-28.615047,-86.450639,34.0252
225139,-0.049149,0.123689,-0.218745,-26.28986,-86.441283,31.667254
225239,-0.065482,0.158924,-0.194173,-24.064917,-86.401757,29.400297
225339,-0.037246,0.148777,-0.161869,-22.18087,-86.355168,27.491007
225439,0.033224,0.117852,-0.137416,-20.607728,-86.316276,25.933615
225539,0.125328,0.076325,-0.12228,-19.264072,-86.294229,24.659004
225639,0.219155,0.036635,-0.112532,-18.074628,-86.290114,23.592773
225739,0.294831,-0.003786,-0.105542,-17.01012,-86.305525,22.695188
225839,0.34502,-0.032573,-0.100426,-16.025208,-86.334886,21.906195
225939,0.381547,-0.051031,-0.099319,-15.059436,-86.373405,21.157376
226039,0.411058,-0.071273,-0.097134,-14.124051,-86.422039,20.455975
226139,0.429683,-0.095238,-0.092553,-13.248675,-86.482688,19.825428
226239,0.426925,-0.099881,-0.091277,-12.369611,-86.54516,19.189643
226339,0.394125,-0.070107,-0.090299,-11.432479,-86.590196,18.47689
226439,0.325605,-0.006102,-0.087257,-10.426838,-86.598163,17.656196
226539,0.231912,0.049553,-0.082484,-9.426041,-86.573417,16.786569
226639,0.126399,0.085087,-0.079295,-8.477376,-86.527459,15.908572
226739,0.026782,0.083576,-0.079529,-7.607477,-86.481638,15.052264
226839,-0.061436,0.048847,-0.082075,-6.823081,-86.455116,14.230948
226939,-0.123195,0.018713,-0.087412,-6.0648,-86.44555,13.400332
227039,-0.144476,0.001116,-0.078726,-5.416545,-86.44503,12.667736
227139,-0.131198,-0.031632,-0.069448,-4.870616,-86.462396,12.045295
227239,-0.109889,-0.064446,-0.065467,-4.365934,-86.498104,11.476433
227339,-0.082641,-0.083334,-0.062511,-3.873743,-86.544298,10.935753
227439,-0.048177,-0.089648,-0.046524,-3.504354,-86.593366,10.537908
227539,-0.024938,-0.084085,-0.029656,-3.271328,-86.63864,10.290024
227639,-0.007935,-0.062968,-0.011009,-3.194086,-86.671261,10.207961
227739,0.001207,-0.037489,0.002085,-3.225558,-86.688946,10.240046
227839,0.00438,-0.012111,0.017703,-3.395579,-86.691651,10.412735
227939,-0.002228,0.017934,0.031219,-3.684021,-86.676713,10.700256
228039,-0.031864,0.024399,0.040759,-4.075331,-86.657666,11.07382
228139,-0.063888,0.017994,0.03844,-4.462266,-86.642279,11.424632
228239,-0.090066,0.005999,0.031036,-4.797898,-86.633982,11.709037
228339,-0.138253,-0.000654,0.020904,-5.066077,-86.629896,11.898219
228439,-0.171889,0.009236,0.016456,-5.299988,-86.620342,12.033773
228539,-0.179102,0.028894,0.022726,-5.577947,-86.599186,12.209316
228639,-0.179997,0.03821,0.023208,-5.84812,-86.572628,12.376554
228739,-0.171597,0.039956,0.013999,-6.020398,-86.545567,12.450549
228839,-0.156447,0.041016,0.001087,-6.059119,-86.518648,12.399441
228939,-0.141592,0.039972,-0.009331,-5.992814,-86.492923,12.25164
229039,-0.125986,0.024656,-0.013437,-5.895248,-86.476132,12.081473
229139,-0.099274,0.004845,-0.017758,-5.762007,-86.470839,11.890895
229239,-0.066013,-0.00619,-0.01731,-5.624355,-86.471756,11.714991
229339,-0.031928,-0.024049,-0.00941,-5.556434,-86.482375,11.628517
229439,-0.001765,-0.03023,-0.00088,-5.555954,-86.496026,11.626924
229539,0.010421,-0.042788,0.006772,-5.631741,-86.516397,11.708736
229639,0.011901,-0.069016,0.01464,-5.806905,-86.551248,11.890954
229739,0.007871,-0.102662,0.020823,-6.081227,-86.604844,12.170187
229839,-0.002377,-0.130113,0.025206,-6.443018,-86.673689,12.531139
229939,-0.016562,-0.149905,0.029572,-6.895321,-86.753332,12.974586
230039,-0.027869,-0.164332,0.032819,-7.428679,-86.840699,13.49269
230139,-0.021733,-0.182718,0.034826,-8.036177,-86.938027,14.088519
230239,-0.017134,-0.191519,0.033514,-8.679775,-87.040059,14.723081
230339,-0.002738,-0.184019,0.027618,-9.278678,-87.137964,15.321093
230439,0.016765,-0.162844,0.02073,-9.783893,-87.224218,15.836443
230539,0.048605,-0.124121,0.008856,-10.076603,-87.28957,16.157274
230639,0.079084,-0.090101,0.007797,-10.277201,-87.335736,16.40336
230739,0.107939,-0.075483,0.011623,-10.48167,-87.373183,16.669861
230839,0.146095,-0.071774,0.019573,-10.760253,-87.407595,17.032429
230939,0.176906,-0.068697,0.027992,-11.127257,-87.439201,17.50117
231039,0.191458,-0.047823,0.045907,-11.668217,-87.45682,18.152375
231139,0.183823,-0.011484,0.067596,-12.394546,-87.451104,18.984753
231239,0.160025,0.024951,0.086871,-13.263389,-87.422018,19.946153
231339,0.124276,0.047646,0.105505,-14.28772,-87.377019,21.04273
231439,0.084857,0.054301,0.117292,-15.415246,-87.325656,22.220051
231539,0.036628,0.051081,0.120007,-16.567388,-87.274559,23.394407
231639,-0.006708,0.037921,0.117525,-17.718763,-87.229991,24.543191
231739,-0.040924,0.022782,0.113007,-18.858198,-87.193384,25.66044
231839,-0.05855,0.023845,0.103971,-19.874082,-87.156897,26.643918
231939,-0.056039,0.044157,0.092815,-20.660293,-87.110917,27.398916
232039,-0.032626,0.095122,0.085556,-21.125812,-87.038666,27.846282
232139,0.00866,0.190148,0.089815,-21.215332,-86.914552,27.940858
232239,0.057771,0.319844,0.108861,-20.975631,-86.717074,27.733912
232339,0.124526,0.436318,0.137616,-20.59053,-86.451186,27.419585
232439,0.177412,0.506805,0.167235,-20.253401,-86.141324,27.183612
232539,0.183747,0.545758,0.176683,-19.92055,-85.808505,26.955495
232639,0.148514,0.59365,0.169679,-19.484644,-85.45111,26.603694
232739,0.114596,0.604275,0.161151,-19.047923,-85.089463,26.231419
232839,0.064178,0.539693,0.15389,-18.781296,-84.764141,26.000734
232939,-0.013398,0.400975,0.124723,-18.686079,-84.519617,25.897481
233039,-0.089816,0.206926,0.069052,-18.69619,-84.390886,25.856041
233139,-0.136638,0.021304,0.014448,-18.779248,-84.373165,25.860946
233239,-0.125919,-0.146414,-0.005688,-19.063133,-84.450283,26.073807
233339,-0.086139,-0.298267,-0.019005,-19.560246,-84.61205,26.523721
233439,-0.052756,-0.432323,-0.029548,-20.296963,-84.847732,27.233308
233539,0.005287,-0.489625,-0.044742,-21.112626,-85.116375,28.055236
233639,0.104402,-0.484823,-0.059908,-21.853354,-85.38467,28.858615
233739,0.214277,-0.444839,-0.069207,-22.445543,-85.632966,29.575839
233839,0.327617,-0.33946,-0.067564,-22.738036,-85.824704,30.05743
233939,0.398675,-0.14374,-0.055066,-22.503469,-85.910148,30.051312
234039,0.42893,0.074637,-0.043794,-21.670084,-85.877224,29.462208
234139,0.408727,0.240015,-0.032163,-20.488063,-85.752775,28.511869
234239,0.359337,0.32481,-0.004808,-19.377394,-85.575981,27.604522
234339,0.28033,0.370256,0.032566,-18.538227,-85.366514,26.923885
234439,0.197202,0.379842,0.057593,-17.952456,-85.146767,26.449522
234539,0.13414,0.346755,0.081814,-17.66176,-84.940645,26.234931
234639,0.066196,0.275761,0.089001,-17.605217,-84.772134,26.216301
234739,-0.01451,0.170543,0.072339,-17.69426,-84.664111,26.297442
234839,-0.073151,0.057504,0.043938,-17.858989,-84.622819,26.42087
234939,-0.081598,-0.042244,0.015799,-18.051439,-84.640893,26.567283
235039,-0.066448,-0.103753,-0.005865,-18.228307,-84.696307,26.706754
235139,-0.046669,-0.143698,-0.024782,-18.363861,-84.776819,26.816099
235239,-0.023494,-0.163433,-0.04751,-18.392492,-84.872134,26.831397
235339,0.001224,-0.162721,-0.066957,-18.286412,-84.970543,26.725663
235439,0.010646,-0.135621,-0.082797,-18.015323,-85.056968,26.459722
235539,0.02228,-0.093069,-0.093071,-17.57561,-85.121813,26.031252
235639,0.034897,-0.056973,-0.106072,-16.960974,-85.168772,25.434515
235739,0.033124,-0.032201,-0.116302,-16.221194,-85.203202,24.711203
235839,0.035305,-0.035072,-0.119892,-15.451448,-85.238981,23.959109
235939,0.026231,-0.06955,-0.115155,-14.768553,-85.292337,23.28899
236039,0.017793,-0.107501,-0.107061,-14.196384,-85.364992,22.725171
236139,0.006905,-0.134798,-0.091036,-13.771637,-85.450211,22.303048
236239,0.005355,-0.146614,-0.068773,-13.511735,-85.538794,22.045435
236339,0.008755,-0.149714,-0.046086,-13.411252,-85.626,21.949694
236439,0.012904,-0.152554,-0.02351,-13.478413,-85.711752,22.024467
236539,0.014163,-0.155298,-0.006581,-13.682131,-85.796703,22.236882
236639,0.012904,-0.144677,0.005078,-13.965654,-85.87404,22.528565
236739,0.014657,-0.123943,0.002539,-14.198649,-85.940074,22.770569
236839,0.013811,-0.100816,-0.004966,-14.333715,-85.994235,22.913895
236939,0.005243,-0.084445,-0.018954,-14.331746,-86.041252,22.914922
237039,-0.008089,-0.076659,-0.040212,-14.148887,-86.086922,22.726973
237139,-0.023924,-0.072492,-0.06775,-13.735746,-86.133994,22.299126
237239,-0.03413,-0.064882,-0.095998,-13.067341,-86.180287,21.609599
237339,-0.044091,-0.05438,-0.126859,-12.107084,-86.223889,20.621891
237439,-0.055442,-0.028018,-0.157401,-10.824368,-86.254865,19.304549
237539,-0.058557,0.004993,-0.181541,-9.265855,-86.267473,17.70906
237639,-0.056461,0.026886,-0.191443,-7.58534,-86.265564,15.992518
237739,-0.042801,0.038295,-0.191647,-5.888936,-86.253904,14.267879
237839,-0.005814,0.048364,-0.183888,-4.245521,-86.232861,12.617541
237939,0.060865,0.064061,-0.167128,-2.723353,-86.199317,11.126945
238039,0.143269,0.083579,-0.144938,-1.368792,-86.151727,9.851573
238139,0.213301,0.09762,-0.12033,-0.215432,-86.094082,8.817994
238239,0.233115,0.104422,-0.099529,0.7428,-86.031322,7.991304
238339,0.180442,0.125208,-0.081714,1.493063,-85.955964,7.342763
238439,0.088208,0.180508,-0.082358,2.15366,-85.848263,6.731055
238539,-0.005513,0.305561,-0.093064,2.765072,-85.668102,6.114703
238639,-0.072961,0.466843,-0.118991,3.408084,-85.394263,5.427702
238739,-0.106429,0.596212,-0.139221,4.032447,-85.045069,4.739868
238839,-0.103306,0.653523,-0.137503,4.533981,-84.662681,4.176773
238939,-0.071848,0.616477,-0.123831,4.92236,-84.301822,3.745128
239039,-0.029776,0.478367,-0.107842,5.268009,-84.020523,3.380426
239139,-0.007118,0.266668,-0.110743,5.719861,-83.859799,2.921839
239239,-0.037072,0.017052,-0.127827,6.36368,-83.840088,2.252841
239339,-0.052793,-0.244524,-0.117498,7.112109,-83.969295,1.469658
239439,0.000543,-0.442129,-0.11291,8.053694,-84.210036,0.523287
239539,0.074928,-0.544257,-0.127065,9.300659,-84.505614,-0.686664
239639,0.137813,-0.533567,-0.130717,10.734651,-84.791964,-2.047674
239739,0.126982,-0.433918,-0.130193,12.181858,-85.019109,-3.427623
239839,0.028654,-0.275258,-0.097243,13.235317,-85.158957,-4.468532
239939,-0.083082,-0.095223,-0.046813,13.648557,-85.204023,-4.931058
240039,-0.136621,0.044918,0.01208,13.41988,-85.17889,-4.780172
240139,-0.151658,0.102551,0.059026,12.789078,-85.127664,-4.234352
240239,-0.146267,0.110679,0.099744,11.897789,-85.076359,-3.423943
240339,-0.135653,0.068744,0.139151,10.827682,-85.051989,-2.427893
240439,-0.132906,0.010143,0.172564,9.617384,-85.062465,-1.289533
240539,-0.123874,-0.03483,0.192626,8.319198,-85.098137,-0.057802
240639,-0.094465,-0.082714,0.190717,7.072507,-85.158595,1.139075
240739,-0.052755,-0.134395,0.168955,6.004913,-85.245069,2.180083
240839,-0.004318,-0.164338,0.139907,5.148681,-85.345581,3.036722
240939,0.026008,-0.175459,0.109615,4.496331,-85.450074,3.706131
241039,0.03935,-0.179832,0.087194,3.988427,-85.555571,4.238221
241139,0.040214,-0.179727,0.068267,3.599078,-85.65995,4.65183
241239,0.018554,-0.174826,0.056527,3.266663,-85.760906,4.995844
241339,-0.013859,-0.158552,0.051596,2.932165,-85.852233,5.323286
241439,-0.055742,-0.138966,0.052259,2.546897,-85.932204,5.677536
241539,-0.107145,-0.121193,0.055135,2.088742,-86.001868,6.075297
241639,-0.152566,-0.114631,0.056717,1.574934,-86.067554,6.502726
241739,-0.184069,-0.11621,0.066147,0.947534,-86.133961,7.025885
241839,-0.191239,-0.141274,0.081996,0.160096,-86.214367,7.705278
241939,-0.171439,-0.167453,0.094493,-0.761073,-86.309045,8.529985
242039,-0.136419,-0.189901,0.102477,-1.78676,-86.415547,9.479432
242139,-0.100148,-0.207564,0.111393,-2.943968,-86.530786,10.581356
242239,-0.06796,-0.229578,0.11135,-4.174681,-86.657184,11.775248
242339,-0.03338,-0.24232,0.111906,-5.497735,-86.789222,13.081321
242439,-0.010139,-0.260934,0.108932,-6.911198,-86.930226,14.491101
242539,0.005445,-0.284465,0.106458,-8.461241,-87.082736,16.046393
242639,0.019705,-0.304336,0.101894,-10.160443,-87.244537,17.758989
242739,0.025556,-0.31795,0.097588,-12.048993,-87.411728,19.664257
242839,0.035891,-0.329671,0.093259,-14.171779,-87.582802,21.809656
242939,0.038503,-0.33667,0.08669,-16.55027,-87.754914,24.212195
243039,0.038921,-0.331697,0.085808,-19.279339,-87.919927,26.965523
243139,0.055184,-0.313665,0.086719,-22.357986,-88.069598,30.077689
243239,0.082215,-0.27012,0.093045,-25.684584,-88.188651,33.453184
243339,0.109248,-0.218714,0.103199,-29.137378,-88.272109,36.970242
243439,0.122486,-0.169321,0.114396,-32.577311,-88.321262,40.481897
243539,0.126957,-0.136714,0.121359,-35.937433,-88.346418,43.916202
243639,0.13615,-0.113518,0.126418,-39.1677,-88.353465,47.22584
243739,0.149575,-0.094602,0.133459,-42.256458,-88.344379,50.401606
243839,0.155559,-0.062023,0.143108,-44.978539,-88.313317,53.214002
243939,0.138791,-0.0206,0.161078,-47.255157,-88.254819,55.571189
244039,0.092194,0.017149,0.181071,-49.122273,-88.17084,57.492054
244139,0.028946,0.03564,0.206287,-50.882393,-88.067132,59.269709
244239,-0.028469,0.046674,0.227372,-52.557073,-87.948337,60.929076
244339,-0.0741,0.079428,0.235923,-53.749331,-87.812987,62.079661
244439,-0.091787,0.158471,0.233858,-53.893426,-87.651394,62.171238
244539,-0.063741,0.285964,0.219213,-52.56499,-87.452833,60.805042
244639,0.024486,0.44659,0.202514,-49.787049,-87.201987,58.038139
244739,0.154352,0.598043,0.193738,-46.157789,-86.889839,54.492641
244839,0.292726,0.69535,0.202335,-42.546806,-86.523389,51.043733
244939,0.39302,0.71405,0.227142,-39.623659,-86.128825,48.340274
245039,0.414487,0.697101,0.252806,-37.44948,-85.725397,46.39874
245139,0.360194,0.692482,0.278035,-35.824681,-85.31114,44.976036
245239,0.262915,0.658252,0.310814,-34.800734,-84.899649,44.099604
245339,0.145283,0.547467,0.331663,-34.459705,-84.532882,43.840788
245439,0.053774,0.356233,0.314517,-34.740885,-84.262052,44.154348
245539,0.021927,0.13196,0.225089,-35.322902,-84.125809,44.752067
245639,0.024391,-0.049031,0.115497,-35.973436,-84.109942,45.420167
245739,0.030076,-0.164946,0.049618,-36.708855,-84.169231,46.176843
245839,0.017348,-0.226852,0.00434,-37.476987,-84.271528,46.958957
245939,0.02372,-0.24754,-0.034947,-38.164542,-84.396036,47.663609
246039,0.086691,-0.207101,-0.074817,-38.510918,-84.515924,48.061576
246139,0.195384,-0.130904,-0.101211,-38.396446,-84.61095,48.059094
246239,0.272871,0.004199,-0.100456,-37.727681,-84.644744,47.544462
246339,0.282879,0.129922,-0.080105,-36.684231,-84.613376,46.659251
246439,0.276139,0.197797,-0.059777,-35.518343,-84.542123,45.647093
246539,0.268158,0.199542,-0.034449,-34.503898,-84.459927,44.782353
246639,0.25967,0.177113,-0.011621,-33.705616,-84.37976,44.129798
246739,0.247872,0.13434,0.003267,-33.140849,-84.314636,43.705024
246839,0.227307,0.104478,0.018975,-32.766319,-84.258679,43.459551
246939,0.168419,0.10362,0.031299,-32.49246,-84.199252,43.281326
247039,0.073372,0.110919,0.01849,-32.194939,-84.140194,43.024558
247139,-0.039972,0.109305,-0.010253,-31.837113,-84.090557,42.641857
247239,-0.123445,0.100056,-0.038481,-31.427184,-84.053686,42.158659
247339,-0.161624,0.071528,-0.060336,-31.022469,-84.036944,41.658689
247439,-0.170643,0.01537,-0.063749,-30.766447,-84.048513,41.303019
247539,-0.169107,-0.030624,-0.063938,-30.636481,-84.082647,41.074984
247639,-0.15329,-0.043777,-0.063529,-30.534586,-84.123063,40.884293
247739,-0.144371,-0.030023,-0.072828,-30.341865,-84.159292,40.607449
247839,-0.143052,-0.011568,-0.079291,-30.062155,-84.18809,40.243938
247939,-0.1493,-0.007263,-0.088271,-29.726921,-84.217083,39.821036
248039,-0.154863,-0.020668,-0.089666,-29.421775,-84.252889,39.425194
248139,-0.155624,-0.04075,-0.089514,-29.169547,-84.298476,39.082125
248239,-0.152062,-0.07134,-0.094011,-28.973334,-84.360486,38.79743
248339,-0.147534,-0.115034,-0.102363,-28.849749,-84.446636,38.588353
248439,-0.142518,-0.150456,-0.105245,-28.804938,-84.551326,38.461335
248539,-0.130048,-0.17468,-0.10558,-28.819239,-84.668254,38.40089
248639,-0.116131,-0.189643,-0.104072,-28.878182,-84.79226,38.393295
248739,-0.101547,-0.202047,-0.102831,-28.975823,-84.922118,38.432943
248839,-0.0984,-0.214647,-0.09325,-29.171557,-85.055574,38.572861
248939,-0.095364,-0.229452,-0.074018,-29.538774,-85.190919,38.886602
249039,-0.092621,-0.231899,-0.058178,-30.029184,-85.322719,39.325473
249139,-0.086014,-0.220608,-0.039041,-30.620318,-85.442997,39.869112
249239,-0.073234,-0.205153,-0.021612,-31.285815,-85.550005,40.494602
249339,-0.050783,-0.178484,-0.010488,-31.935074,-85.640039,41.116625
249439,-0.031243,-0.149231,-0.006322,-32.506267,-85.714064,41.671518
249539,-0.018523,-0.136207,-0.008658,-33.019523,-85.782108,42.17557
249639,-0.007368,-0.129977,-0.018255,-33.452683,-85.849841,42.605676
249739,0.011894,-0.119588,-0.033317,-33.742161,-85.917169,42.902757
249839,0.032759,-0.095333,-0.056225,-33.763938,-85.980151,42.943427
249939,0.052403,-0.070734,-0.0821,-33.484186,-86.03959,42.693114
250039,0.073539,-0.060141,-0.106625,-32.962908,-86.101505,42.212863
250139,0.095914,-0.076944,-0.121305,-32.383769,-86.175726,41.687508
250239,0.134307,-0.102004,-0.126056,-31.841302,-86.263182,41.220999
250339,0.185235,-0.090086,-0.127762,-31.17698,-86.344973,40.661666
250439,0.235578,-0.027927,-0.121618,-30.217276,-86.393797,39.835301
250539,0.265659,0.02015,-0.116663,-29.040914,-86.416256,38.809151
250639,0.266959,0.039202,-0.117091,-27.765364,-86.427802,37.684386
250739,0.261769,0.055183,-0.123742,-26.365313,-86.431221,36.431906
250839,0.238403,0.108515,-0.139001,-24.644146,-86.408619,34.844254
250939,0.189535,0.209589,-0.15649,-22.474754,-86.333501,32.779334
251039,0.098882,0.358063,-0.17015,-19.88848,-86.176444,30.244319
251139,-0.015058,0.506286,-0.195904,-17.012564,-85.935711,27.352948
251239,-0.140117,0.627587,-0.228771,-14.067785,-85.623235,24.319683
251339,-0.233939,0.737374,-0.248147,-11.296789,-85.241099,21.405419
251439,-0.290078,0.766368,-0.229313,-9.073191,-84.831045,19.006644
251539,-0.282204,0.710764,-0.214469,-7.314789,-84.444493,17.078129
251639,-0.266573,0.518146,-0.207713,-5.934193,-84.162518,15.537204
251739,-0.224162,0.263429,-0.208816,-4.771247,-84.02278,14.238943
251839,-0.153849,0.006775,-0.177152,-3.88616,-84.026105,13.260407
251939,-0.017418,-0.194689,-0.166564,-3.038384,-84.14286,12.398082
252039,0.176349,-0.321694,-0.177875,-2.005237,-84.331201,11.461267
252139,0.305684,-0.390008,-0.203809,-0.679681,-84.55708,10.305456
252239,0.29277,-0.341733,-0.208652,0.772115,-84.752508,9.015828
252339,0.140039,-0.211814,-0.176865,2.005534,-84.871057,7.857931
252439,-0.044125,-0.039658,-0.111022,2.705467,-84.890794,7.129841
252539,-0.157591,0.12353,-0.051314,2.908244,-84.818312,6.835614
252639,-0.221556,0.211344,-0.027392,2.890893,-84.696265,6.725594
252739,-0.252245,0.229321,0.000716,2.679557,-84.56478,6.792732
252839,-0.26128,0.204287,0.049602,2.188211,-84.448827,7.135987
252939,-0.282485,0.145657,0.108978,1.367575,-84.367185,7.797957
253039,-0.311034,0.095931,0.150724,0.31482,-84.313377,8.676826
253139,-0.315387,0.060855,0.15675,-0.758817,-84.278085,9.574241
253239,-0.277303,0.03854,0.142509,-1.721107,-84.254197,10.381727
253339,-0.213267,0.030857,0.114044,-2.479815,-84.234113,11.021506
253439,-0.131378,0.032236,0.09099,-3.056073,-84.213137,11.525087
253539,-0.053412,0.027311,0.075965,-3.500878,-84.195018,11.941456
253639,0.008598,0.001652,0.067173,-3.867799,-84.191588,12.315259
253739,0.031603,-0.033738,0.061719,-4.20491,-84.208358,12.672344
253839,0.019322,-0.067363,0.055319,-4.529752,-84.244389,13.010006
253939,-0.023348,-0.068279,0.045764,-4.82898,-84.281184,13.297334
254039,-0.059186,-0.054873,0.046953,-5.152281,-84.310094,13.5882
254139,-0.097821,-0.030368,0.049004,-5.499032,-84.324728,13.880374
254239,-0.108646,-0.01795,0.056208,-5.887668,-84.331674,14.208401
254339,-0.106026,-0.028748,0.061844,-6.314896,-84.344183,14.576711
254439,-0.081391,-0.045843,0.069973,-6.788282,-84.365595,15.005576
254539,-0.052265,-0.07528,0.082312,-7.34169,-84.402489,15.531595
254639,-0.015255,-0.11203,0.101184,-8.021169,-84.458245,16.205547
254739,0.013912,-0.14259,0.109899,-8.776789,-84.529767,16.972708
254839,0.049425,-0.17971,0.113741,-9.592487,-84.620917,17.820552
254939,0.072705,-0.224212,0.109876,-10.449694,-84.736379,18.723335
255039,0.091423,-0.268106,0.101285,-11.336592,-84.876175,19.666514
255139,0.109344,-0.308972,0.089703,-12.246661,-85.038887,20.643038
255239,0.121236,-0.338473,0.076584,-13.171992,-85.218339,21.641463
255339,0.128767,-0.365471,0.061471,-14.1099,-85.413454,22.656562
255439,0.129272,-0.377776,0.050566,-15.078941,-85.615547,23.702895
255539,0.130094,-0.373144,0.044946,-16.091728,-85.814487,24.793285
255639,0.137438,-0.346464,0.050289,-17.181354,-85.996351,25.964663
255739,0.156483,-0.298722,0.05531,-18.278735,-86.149625,27.154509
255839,0.171327,-0.237917,0.067365,-19.382924,-86.266064,28.359512
255939,0.191997,-0.16672,0.082421,-20.450532,-86.339644,29.539592
256039,0.210243,-0.096375,0.094041,-21.416575,-86.371811,30.628307
256139,0.214408,-0.075225,0.105254,-22.418907,-86.389123,31.755745
256239,0.207983,-0.11413,0.113121,-23.643057,-86.423784,33.101715
256339,0.183238,-0.155372,0.121397,-25.137496,-86.475983,34.704225
256439,0.157537,-0.162844,0.133665,-26.827036,-86.526158,36.487357
256539,0.118187,-0.133236,0.153595,-28.619642,-86.552665,38.351082
256639,0.057386,-0.097993,0.16265,-30.37725,-86.555543,40.144817
256739,-0.033744,-0.087954,0.155683,-32.080866,-86.552324,41.832152
256839,-0.133713,-0.086929,0.136378,-33.678344,-86.551713,43.355774
256939,-0.216405,-0.058088,0.107393,-34.937948,-86.544541,44.493447
257039,-0.235478,0.02299,0.084147,-35.577084,-86.505991,44.998585
257139,-0.185599,0.147765,0.081451,-35.482603,-86.409994,44.79737
257239,-0.092826,0.288669,0.091103,-34.700279,-86.244621,43.960133
257339,0.008126,0.410599,0.092159,-33.376101,-86.020002,42.637594
257439,0.130951,0.500709,0.099273,-31.802133,-85.747439,41.134779
257539,0.174407,0.57757,0.116595,-30.218301,-85.4291,39.646473
257639,0.102895,0.665078,0.139069,-28.725272,-85.057787,38.207456
257739,-0.015746,0.719033,0.160028,-27.464964,-84.650797,36.933008
257839,-0.119183,0.665306,0.173884,-26.648869,-84.265655,36.044492
257939,-0.186477,0.498198,0.165187,-26.331487,-83.967675,35.618038
258039,-0.194337,0.257127,0.117179,-26.383828,-83.805658,35.558712
258139,-0.14556,0.028354,0.051676,-26.634561,-83.777789,35.727049
258239,-0.090544,-0.138555,0.002114,-27.01755,-83.848055,36.060117
258339,-0.05164,-0.296215,-0.034767,-27.603574,-84.008041,36.619707
258439,-0.027483,-0.453601,-0.07166,-28.445657,-84.256868,37.450407
258539,0.0135,-0.536678,-0.107568,-29.396118,-84.555985,38.413193
258639,0.104552,-0.52849,-0.1376,-30.212835,-84.85811,39.293573
258739,0.234899,-0.440228,-0.146954,-30.698913,-85.118406,39.916628
258839,0.352758,-0.27359,-0.128574,-30.686018,-85.290988,40.106521
258939,0.386908,-0.096889,-0.093881,-30.232249,-85.366284,39.873671
259039,0.381166,0.006568,-0.065053,-29.582902,-85.38178,39.44132
259139,0.354845,0.022781,-0.024984,-29.138182,-85.377594,39.199139
259239,0.330107,-0.002105,0.022114,-29.085789,-85.372659,39.336346
259339,0.29938,0.014769,0.073456,-29.308872,-85.344927,39.732275
259439,0.256814,0.073904,0.116277,-29.607956,-85.275502,40.180017
259539,0.184326,0.125244,0.140855,-29.907585,-85.173399,40.586682
259639,0.060262,0.104487,0.108658,-30.147062,-85.090716,40.861689
259739,-0.078199,0.030384,0.048254,-30.360038,-85.062101,41.030492
259839,-0.170203,-0.041302,-0.005896,-30.555521,-85.084597,41.128827
259939,-0.203233,-0.1033,-0.040521,-30.783975,-85.147748,41.241251
260039,-0.19872,-0.137544,-0.055877,-31.044744,-85.232209,41.388686
260139,-0.183382,-0.157552,-0.071659,-31.282067,-85.331087,41.521394
260239,-0.162491,-0.159869,-0.090169,-31.410571,-85.436553,41.556918
260339,-0.131486,-0.132151,-0.103801,-31.33355,-85.532487,41.404093
260439,-0.099344,-0.079034,-0.10863,-30.997035,-85.603727,41.009485
260539,-0.073862,-0.023445,-0.117294,-30.364475,-85.649812,40.332644
260639,-0.056045,0.023698,-0.124832,-29.481336,-85.673927,39.414774
260739,-0.04602,0.045607,-0.12701,-28.488502,-85.686508,38.392679
260839,-0.039003,0.037244,-0.12837,-27.506323,-85.702346,37.385323
260939,-0.038496,-0.00466,-0.126003,-26.676877,-85.73774,36.531451
261039,-0.054577,-0.059091,-0.123722,-26.043828,-85.799681,35.865329
261139,-0.079129,-0.10224,-0.116358,-25.605786,-85.881569,35.380687
261239,-0.110653,-0.122551,-0.103048,-25.335602,-85.970453,35.046271
261339,-0.139142,-0.127641,-0.081195,-25.250935,-86.056528,34.881498
261439,-0.157258,-0.114307,-0.054826,-25.325621,-86.129209,34.866064
261539,-0.166846,-0.101527,-0.029048,-25.560478,-86.188897,35.005656
261639,-0.151924,-0.071476,-0.006565,-25.855404,-86.2274,35.214012
261739,-0.127805,-0.036276,0.002083,-26.074398,-86.245499,35.360116
261839,-0.096229,-0.018328,-0.002888,-26.168679,-86.255556,35.399367
261939,-0.084355,-0.005619,-0.013499,-26.123888,-86.261718,35.30607
262039,-0.075481,0.024215,-0.028516,-25.840961,-86.256233,34.979225
262139,-0.050374,0.057172,-0.045358,-25.288354,-86.237697,34.396531
262239,-0.01848,0.08989,-0.064626,-24.453629,-86.206314,33.549403
262339,0.008014,0.10627,-0.085373,-23.398877,-86.170239,32.49694
262439,0.033548,0.093141,-0.105299,-22.235405,-86.144157,31.350137
262539,0.054145,0.074731,-0.117483,-21.036079,-86.128856,30.179201
262639,0.085019,0.043557,-0.119723,-19.900969,-86.129115,29.090347
262739,0.135059,0.009091,-0.111941,-18.894831,-86.145131,28.159508
262839,0.197113,-0.015057,-0.09868,-18.017366,-86.17082,27.393292
262939,0.271691,0.000191,-0.078557,-17.213266,-86.183925,26.74345
263039,0.339493,0.029767,-0.060923,-16.439104,-86.17727,26.162553
263139,0.35976,0.068268,-0.056015,-15.607355,-86.148063,25.535568
263239,0.331944,0.085925,-0.057515,-14.752162,-86.108648,24.869085
263339,0.255943,0.096649,-0.05466,-13.956844,-86.062154,24.218936
263439,0.154315,0.162656,-0.063212,-13.04443,-85.979283,23.392983
263539,0.066657,0.303858,-0.085037,-11.814547,-85.818955,22.198265
263639,-0.02523,0.453473,-0.105999,-10.367106,-85.5748,20.732264
263739,-0.128621,0.584496,-0.12644,-8.847419,-85.255791,19.133795
263839,-0.22554,0.712927,-0.121785,-7.500687,-84.860489,17.652356
263939,-0.276786,0.730378,-0.12757,-6.33928,-84.453038,16.326623
264039,-0.345441,0.541641,-0.180162,-5.190484,-84.153924,14.973242
264139,-0.364,0.238668,-0.193209,-4.220691,-84.026153,13.788618
264239,-0.315063,-0.070775,-0.178655,-3.443444,-84.073022,12.825691
264339,-0.240981,-0.319821,-0.139482,-2.895831,-84.260074,12.136468
264439,-0.133974,-0.473606,-0.122862,-2.378997,-84.53412,11.540058
264539,-0.028842,-0.51883,-0.125668,-1.732237,-84.833547,10.873941
264639,-0.015787,-0.457418,-0.133518,-0.937194,-85.097102,10.066772
264739,-0.125941,-0.277932,-0.121214,-0.199107,-85.256757,9.253675
264839,-0.279572,-0.074174,-0.073481,0.156518,-85.298976,8.736135
264939,-0.374157,0.034885,-0.013239,0.04024,-85.278684,8.637728
265039,-0.411182,0.033127,0.02078,-0.332025,-85.259413,8.774895
265139,-0.43211,0.008887,0.041232,-0.856971,-85.253865,9.053239
265239,-0.45823,-0.016636,0.073292,-1.621471,-85.262333,9.556945
265339,-0.474839,-0.041739,0.120722,-2.733941,-85.283507,10.400252
265439,-0.452761,-0.097682,0.161983,-4.157111,-85.333758,11.567956
265539,-0.388753,-0.149742,0.188398,-5.794344,-85.40988,12.987114
265639,-0.292415,-0.185919,0.191396,-7.482004,-85.503065,14.512065
265739,-0.179664,-0.197448,0.186609,-9.149611,-85.59962,16.0815
265839,-0.071573,-0.202715,0.167372,-10.689494,-85.697606,17.584747
265939,0.010181,-0.201949,0.149796,-12.116589,-85.794165,19.021674
266039,0.044295,-0.200009,0.137515,-13.491217,-85.888564,20.425413
266139,0.042558,-0.19942,0.120484,-14.795448,-85.982611,21.757412
266239,0.020481,-0.193325,0.111396,-16.087504,-86.072513,23.064375
266339,-0.009343,-0.185787,0.108669,-17.415069,-86.156634,24.389662
266439,-0.045928,-0.170467,0.104799,-18.747103,-86.230987,25.698291
266539,-0.070748,-0.157576,0.107131,-20.125548,-86.29585,27.039073
266639,-0.093419,-0.164012,0.105828,-21.574683,-86.362246,28.43757
266739,-0.097916,-0.180883,0.102276,-23.108794,-86.436001,29.918518
266839,-0.080197,-0.209422,0.100434,-24.791565,-86.522488,31.558448
266939,-0.048615,-0.242119,0.099609,-26.6737,-86.622882,33.416062
267039,-0.011793,-0.269197,0.099313,-28.774342,-86.73317,35.513482
267139,0.018531,-0.280795,0.097125,-31.04325,-86.845126,37.7966
267239,0.045895,-0.285846,0.089592,-33.421671,-86.95655,40.204845
267339,0.066614,-0.286304,0.082997,-35.908204,-87.064708,42.732991
267439,0.091535,-0.277392,0.085607,-38.525441,-87.161911,45.40607
267539,0.094029,-0.268557,0.091701,-41.306818,-87.246537,48.244701
267639,0.081366,-0.282666,0.096549,-44.429012,-87.327957,51.417067
267739,0.060905,-0.293161,0.095378,-47.837643,-87.405343,54.864227
267839,0.03898,-0.308583,0.094228,-51.602606,-87.478888,58.655289
267939,0.03071,-0.318493,0.093631,-55.684647,-87.54433,62.758777
268039,0.046287,-0.30633,0.091193,-59.797293,-87.594328,66.901649
268139,0.068467,-0.26769,0.091282,-63.569312,-87.621564,70.716196
268239,0.106664,-0.202728,0.088534,-66.545709,-87.625094,73.756296
268339,0.153278,-0.136058,0.087359,-68.632404,-87.609098,75.932668
268439,0.167932,-0.095932,0.0805,-70.133279,-87.585855,77.531138
268539,0.188787,-0.095549,0.077427,-71.573106,-87.562487,79.080491
268639,0.202165,-0.131227,0.080969,-73.444625,-87.541437,81.069626
268739,0.220704,-0.145439,0.102501,-75.522985,-87.507753,83.276469
268839,0.224395,-0.099948,0.133777,-77.054021,-87.447491,84.937651
268939,0.215362,-0.021221,0.16733,-77.639519,-87.357255,85.647239
269039,0.187725,0.020655,0.198917,-77.786005,-87.244036,85.901532
269139,0.147849,0.029352,0.226061,-77.906324,-87.114552,86.106775
269239,0.093463,0.044269,0.231217,-77.895706,-86.980406,86.149723
269339,0.053694,0.12753,0.227202,-77.051961,-86.838206,85.335511
269439,0.052632,0.271335,0.216402,-74.873373,-86.680916,83.18359
269539,0.088303,0.437756,0.21895,-71.393447,-86.488703,79.748112
269639,0.195385,0.59004,0.227849,-67.014378,-86.247074,75.472369
269739,0.326431,0.718177,0.249117,-62.25774,-85.942069,70.892113
269839,0.413491,0.811846,0.290051,-57.698604,-85.565504,66.557999
269939,0.40835,0.836389,0.329258,-53.878808,-85.140043,62.960359
270039,0.338047,0.79027,0.362943,-51.058214,-84.699299,60.323108
270139,0.251338,0.662803,0.386312,-49.346867,-84.286253,58.748508
270239,0.181807,0.440318,0.370405,-48.73462,-83.960803,58.237741
270339,0.159615,0.161106,0.289866,-49.005485,-83.775292,58.602132
270439,0.186896,-0.05391,0.17518,-49.702517,-83.719654,59.411041
270539,0.206215,-0.184801,0.104658,-50.668291,-83.741871,60.501463
270639,0.176635,-0.296563,0.068068,-52.00263,-83.818124,61.945476
270739,0.127874,-0.339302,0.039982,-53.493942,-83.918158,63.519022
270839,0.139896,-0.286523,0.015615,-54.716366,-84.007763,64.82883
270939,0.20476,-0.152342,-0.009299,-55.249779,-84.062805,65.483072
271039,0.246904,0.002079,-0.02397,-55.019442,-84.073967,65.393694
271139,0.261387,0.114797,-0.022895,-54.277422,-84.047159,64.798217
271239,0.262314,0.159923,-0.021875,-53.346342,-84.003698,64.013146
271339,0.267865,0.17478,-0.024334,-52.352925,-83.954845,63.168527
271439,0.289092,0.202434,-0.024275,-51.246771,-83.894559,62.222679
271539,0.32115,0.228038,-0.031545,-50.013813,-83.826181,61.167653
271639,0.315601,0.265242,-0.048221,-48.605433,-83.748607,59.932821
271739,0.265167,0.300958,-0.073336,-47.035308,-83.664556,58.505996
271839,0.169954,0.308083,-0.108328,-45.408635,-83.587873,56.967151
271939,0.063288,0.269863,-0.140436,-43.898119,-83.535091,55.4835
272039,-0.023936,0.195913,-0.157931,-42.649072,-83.51607,54.212591
272139,-0.095859,0.123021,-0.155386,-41.702115,-83.524291,53.204229
272239,-0.154297,0.072045,-0.144852,-40.995405,-83.548802,52.403987
272339,-0.211548,0.039442,-0.13025,-40.479914,-83.581028,51.763212
272439,-0.260663,0.036418,-0.115365,-40.055131,-83.608446,51.185439
272539,-0.299914,0.052086,-0.103723,-39.643441,-83.624194,50.598239
272639,-0.336975,0.083218,-0.099253,-39.167549,-83.623996,49.925083
272739,-0.360014,0.107317,-0.097982,-38.633084,-83.611911,49.179701
272839,-0.36503,0.106026,-0.100103,-38.099479,-83.600369,48.432279
272939,-0.342727,0.074651,-0.109513,-37.614827,-83.605577,47.746972
273039,-0.315866,0.03202,-0.12783,-37.170613,-83.635935,47.117866
273139,-0.289929,-0.012856,-0.14637,-36.768085,-83.6927,46.54571
273239,-0.26504,-0.068604,-0.158186,-36.465764,-83.778739,46.08879
273339,-0.245516,-0.12909,-0.150712,-36.364618,-83.889929,45.845556
273439,-0.221903,-0.16847,-0.140036,-36.417709,-84.01561,45.771084
273539,-0.192314,-0.171349,-0.12409,-36.534491,-84.137157,45.777711
273639,-0.162336,-0.176733,-0.100433,-36.763063,-84.253037,45.913974
273739,-0.132448,-0.203204,-0.080585,-37.166716,-84.37406,46.24337
273839,-0.105489,-0.225673,-0.071812,-37.693749,-84.501918,46.712184
273939,-0.070969,-0.211151,-0.066885,-38.193319,-84.621007,47.173188
274039,-0.027628,-0.171401,-0.06613,-38.539036,-84.721595,47.504532
274139,0.016769,-0.134221,-0.074716,-38.682901,-84.80844,47.658677
274239,0.045869,-0.126431,-0.09867,-38.663856,-84.900335,47.665974
274339,0.062141,-0.122307,-0.119199,-38.513362,-84.997699,47.550669
274439,0.060075,-0.126968,-0.134319,-38.298851,-85.102482,47.369941
274539,0.062486,-0.152028,-0.13618,-38.170154,-85.219133,47.276752
274639,0.085324,-0.167497,-0.137484,-38.082442,-85.343178,47.237835
274739,0.129475,-0.176524,-0.135556,-38.01678,-85.470589,47.246426
274839,0.172135,-0.202229,-0.132769,-38.059049,-85.608592,47.387794
274939,0.199614,-0.234472,-0.136083,-38.225119,-85.762252,47.669079
275039,0.21992,-0.232425,-0.156098,-38.259979,-85.92202,47.83042
275139,0.236027,-0.160671,-0.170211,-37.831594,-86.054396,47.536604
275239,0.239253,-0.070727,-0.182279,-36.829161,-86.149676,46.669307
275339,0.236365,0.008109,-0.191133,-35.319693,-86.210064,45.292271
275439,0.225648,0.085656,-0.202621,-33.311273,-86.234547,43.409113
275539,0.198139,0.174316,-0.221613,-30.754589,-86.216693,40.96071
275639,0.149628,0.294432,-0.239006,-27.640093,-86.135575,37.925253
275739,0.078938,0.458182,-0.252129,-24.046748,-85.961482,34.368747
275839,-0.010908,0.6188,-0.258845,-20.328647,-85.688269,30.634552
275939,-0.103218,0.697606,-0.266299,-16.903452,-85.357225,27.139613
276039,-0.160823,0.69413,-0.25789,-14.038516,-85.012429,24.172109
276139,-0.180325,0.604534,-0.251526,-11.716003,-84.706066,21.736522
276239,-0.179579,0.441558,-0.237035,-9.902592,-84.482348,19.811696
276339,-0.166607,0.187739,-0.227307,-8.496541,-84.396461,18.303124
276439,-0.15313,-0.094314,-0.201052,-7.487623,-84.465621,17.20131
276539,-0.135749,-0.346079,-0.167536,-6.819628,-84.67408,16.45222
276639,-0.06176,-0.49093,-0.158925,-6.205272,-84.963733,15.79986
276739,0.038724,-0.544164,-0.160419,-5.478843,-85.283171,15.093105
276839,0.091984,-0.480984,-0.173795,-4.479957,-85.566292,14.143936
276939,0.012981,-0.311993,-0.169077,-3.353794,-85.751164,13.022022
277039,-0.14081,-0.081727,-0.138378,-2.386749,-85.801783,11.971469
277139,-0.257912,0.10304,-0.091424,-1.789632,-85.744568,11.224568
277239,-0.318006,0.183466,-0.061289,-1.45874,-85.640385,10.710038
277339,-0.358408,0.203789,-0.030538,-1.392749,-85.524034,10.437907
277439,-0.380438,0.176077,0.021822,-1.726953,-85.422842,10.554524
277539,-0.411168,0.081007,0.093118,-2.596777,-85.374512,11.190849
277639,-0.426969,-0.041839,0.153658,-3.941054,-85.393558,12.294105
277739,-0.396951,-0.121814,0.176641,-5.494995,-85.45498,13.624893
277839,-0.312728,-0.169589,0.168025,-7.01886,-85.541307,14.973783
277939,-0.212568,-0.187764,0.144833,-8.38855,-85.637054,16.225432
278039,-0.117027,-0.177208,0.121609,-9.571791,-85.726741,17.344844
278139,-0.036556,-0.15554,0.100789,-10.565856,-85.804675,18.32067
278239,0.024131,-0.145014,0.081166,-11.391954,-85.877674,19.162852
278339,0.04824,-0.150072,0.064736,-12.112236,-85.954592,19.912713
278439,0.039344,-0.153692,0.047632,-12.734319,-86.035007,20.558947
278539,0.001512,-0.134878,0.033254,-13.249345,-86.106312,21.076078
278639,-0.045167,-0.090082,0.018126,-13.593589,-86.154389,21.395186
278739,-0.087276,-0.052638,0.016,-13.874704,-86.181791,21.626822
278839,-0.118284,-0.029637,0.017189,-14.138458,-86.196162,21.823244
278939,-0.117401,-0.038235,0.027761,-14.51039,-86.213731,22.128583
279039,-0.099248,-0.071179,0.039416,-15.047167,-86.247683,22.609538
279139,-0.056957,-0.101196,0.052742,-15.753771,-86.295842,23.28494
279239,-0.007838,-0.12854,0.070788,-16.675581,-86.355528,24.204151
279339,0.05773,-0.14514,0.086211,-17.770674,-86.420636,25.334571
279439,0.104817,-0.16996,0.091005,-18.997118,-86.496918,26.623534
279539,0.143836,-0.221496,0.089902,-20.418661,-86.599351,28.130224
279639,0.158504,-0.275518,0.080319,-22.034803,-86.730178,29.840076
279739,0.153927,-0.311575,0.078311,-23.92389,-86.877364,31.820431
279839,0.141218,-0.325114,0.078281,-26.073858,-87.0276,34.054457
279939,0.135055,-0.30091,0.081893,-28.359336,-87.15984,36.42034
280039,0.124981,-0.265559,0.077068,-30.604221,-87.27095,38.739547
280139,0.120369,-0.244421,0.068025,-32.801725,-87.370014,41.008465
280239,0.098447,-0.240617,0.064203,-35.11293,-87.46423,43.378443
280339,0.079533,-0.229134,0.063411,-37.507804,-87.548928,45.821152
280439,0.069954,-0.191352,0.073296,-39.845216,-87.608692,48.200717
280539,0.072637,-0.144729,0.088405,-42.015692,-87.638566,50.414661
280639,0.084576,-0.102423,0.101975,-43.955686,-87.642066,52.404745
280739,0.105693,-0.069869,0.111019,-45.650102,-87.626058,54.161157
280839,0.124969,-0.043773,0.116515,-47.097099,-87.595455,55.681017
280939,0.139487,-0.004375,0.121081,-48.142572,-87.54632,56.807359
281039,0.140101,0.048598,0.12829,-48.684674,-87.473283,57.430256
281139,0.113886,0.098574,0.142845,-48.853892,-87.374932,57.664896
281239,0.064326,0.118985,0.153226,-48.932553,-87.264395,57.780468
281339,-0.013868,0.108638,0.158012,-49.173258,-87.155675,58.013426
281439,-0.108848,0.10037,0.156148,-49.505376,-87.050821,58.283437
281539,-0.176863,0.143461,0.156605,-49.505405,-86.92971,58.181895
281639,-0.165482,0.255483,0.165053,-48.694546,-86.762868,57.274745
281739,-0.070382,0.396713,0.175544,-46.987956,-86.536139,55.524734
281839,0.073654,0.549237,0.187957,-44.542144,-86.239679,53.116246
281939,0.22908,0.69266,0.224597,-41.815524,-85.862258,50.514631
282039,0.338027,0.771118,0.28116,-39.432829,-85.421933,48.319214
282139,0.330815,0.796901,0.324556,-37.579803,-84.948675,46.649808
282239,0.230157,0.825824,0.36373,-36.171352,-84.4449,45.36772
282339,0.15691,0.788043,0.413109,-35.363523,-83.940016,44.646077
282439,0.09387,0.60034,0.448041,-35.392605,-83.510861,44.729425
282539,0.058506,0.291759,0.408823,-36.145924,-83.238388,45.52153
282639,0.062787,-0.01734,0.314486,-37.361115,-83.138785,46.781555
282739,0.074112,-0.253075,0.205991,-38.832102,-83.180499,48.305808
282839,0.033453,-0.406957,0.1223,-40.519741,-83.315791,50.024474
282939,-0.020637,-0.531578,0.059299,-42.495992,-83.522051,52.001857
283039,-0.032203,-0.603559,0.010175,-44.688244,-83.769287,54.189011
283139,0.035794,-0.553611,-0.047208,-46.604895,-84.011203,56.137148
283239,0.179559,-0.39841,-0.101238,-47.737795,-84.20974,57.379404
283339,0.290034,-0.217879,-0.124138,-48.014967,-84.347011,57.824898
283439,0.331804,-0.09487,-0.123594,-47.747458,-84.436752,57.747059
283539,0.344926,-0.02296,-0.11501,-47.186014,-84.494933,57.381478
283639,0.36114,0.032558,-0.10623,-46.399997,-84.527236,56.799656
283739,0.380549,0.071139,-0.095421,-45.474741,-84.538889,56.089152
283839,0.38216,0.106145,-0.085048,-44.442258,-84.531023,55.271857
283939,0.355895,0.129539,-0.071223,-43.391454,-84.506648,54.421009
284039,0.283582,0.135804,-0.067676,-42.380998,-84.476869,53.569024
284139,0.155679,0.102003,-0.081354,-41.525523,-84.465473,52.799079
284239,0.010529,0.052696,-0.106636,-40.833758,-84.483935,52.110051
284339,-0.101628,0.026803,-0.128924,-40.19963,-84.521237,51.414393
284439,-0.180966,0.011918,-0.141453,-39.600791,-84.568984,50.708569
284539,-0.235607,0.000286,-0.13837,-39.080832,-84.620102,50.050588
284639,-0.276697,-0.00484,-0.124272,-38.660518,-84.667902,49.469101
284739,-0.309209,0.001496,-0.105882,-38.315085,-84.705903,48.944154
284839,-0.33796,0.016392,-0.086319,-38.019094,-84.729953,48.452352
284939,-0.367731,0.040157,-0.065205,-37.750499,-84.735562,47.97095
285039,-0.3793,0.055101,-0.054044,-37.48666,-84.730245,47.487676
285139,-0.354086,0.063199,-0.041756,-37.239747,-84.716741,47.035906
285239,-0.301399,0.062548,-0.039937,-36.975984,-84.7027,46.597526
285339,-0.246564,0.034731,-0.045314,-36.758627,-84.703075,46.237302
285439,-0.20938,0.001848,-0.061185,-36.561994,-84.723858,45.919294
285539,-0.20102,-0.019171,-0.074279,-36.370373,-84.758665,45.611148
285639,-0.203776,-0.032309,-0.076767,-36.213183,-84.800272,45.336013
285739,-0.194944,-0.043124,-0.066092,-36.142709,-84.843191,45.153055
285839,-0.194478,-0.056066,-0.049622,-36.203974,-84.886486,45.102653
285939,-0.202398,-0.06118,-0.02938,-36.394842,-84.925241,45.177821
286039,-0.206588,-0.054707,-0.004013,-36.697415,-84.952278,45.362726
286139,-0.201655,-0.048189,0.018288,-37.090262,-84.968498,45.641092
286239,-0.185787,-0.047292,0.027781,-37.52175,-84.980778,45.967376
286339,-0.159108,-0.045991,0.025942,-37.925014,-84.992845,46.280674
286439,-0.125951,-0.029076,0.029642,-38.261364,-84.995744,46.545874
286539,-0.098252,-0.00193,0.034272,-38.495317,-84.984638,46.724224
286639,-0.072518,0.01907,0.036077,-38.637403,-84.963388,46.825162
286739,-0.04301,0.018442,0.030151,-38.734176,-84.944491,46.89759
286839,-0.021663,-0.00601,0.014918,-38.840446,-84.941939,46.991835
286939,-0.008691,-0.01875,-0.006407,-38.88344,-84.952695,47.030022
287039,0.001732,-0.014296,-0.037951,-38.742424,-84.972759,46.889482
287139,0.012597,-0.010291,-0.068813,-38.41952,-85.001973,46.572614
287239,0.028375,-0.035591,-0.086833,-38.093188,-85.048773,46.2614
287339,0.063424,-0.077412,-0.096614,-37.860573,-85.117744,46.064438
287439,0.118265,-0.09444,-0.107399,-37.602946,-85.198105,45.873937
287539,0.172851,-0.061285,-0.121688,-37.088474,-85.268178,45.457111
287639,0.211802,0.017031,-0.139083,-36.114213,-85.307658,44.60137
287739,0.21478,0.106377,-0.153999,-34.67821,-85.308795,43.28408
287839,0.184282,0.191206,-0.16184,-32.891467,-85.268903,41.597295
287939,0.152159,0.286283,-0.155521,-30.855254,-85.176122,39.641542
288039,0.116035,0.39714,-0.136345,-28.673874,-85.016723,37.518948
288139,0.062936,0.507337,-0.124924,-26.410795,-84.791358,35.283156
288239,0.003121,0.553374,-0.124374,-24.259293,-84.534575,33.124137
288339,-0.099482,0.558683,-0.119883,-22.372917,-84.267175,31.171486
288439,-0.183076,0.539689,-0.189533,-20.386235,-84.018316,29.068963
288539,-0.228098,0.401453,-0.295445,-18.289539,-83.856984,26.829076
288639,-0.219314,0.169,-0.326338,-16.488824,-83.820279,24.891533
288739,-0.169914,-0.068731,-0.290674,-15.191401,-83.903567,23.488739
288839,-0.069252,-0.262196,-0.251795,-14.263112,-84.085565,22.515456
288939,0.094215,-0.388696,-0.21882,-13.531745,-84.331956,21.834621
289039,0.208119,-0.433961,-0.207055,-12.799455,-84.601205,21.218726
289139,0.195889,-0.375411,-0.195928,-11.994868,-84.835509,20.523441
289239,0.048867,-0.232566,-0.163194,-11.233301,-84.98497,19.786981
289339,-0.124275,-0.081153,-0.093078,-10.799651,-85.040923,19.280215
289439,-0.254602,0.014987,-0.040225,-10.659257,-85.036944,18.992874
289539,-0.331721,0.016065,-0.009009,-10.764227,-85.029102,18.907464
289639,-0.359526,-0.033966,0.030132,-11.201159,-85.045239,19.139276
289739,-0.350156,-0.085137,0.078752,-12.020676,-85.084328,19.760478
289839,-0.332882,-0.140167,0.132564,-13.27813,-85.146504,20.831101
289939,-0.308285,-0.172266,0.16939,-14.850704,-85.219161,22.232002
290039,-0.258404,-0.18469,0.178542,-16.525155,-85.29392,23.76366
290139,-0.175863,-0.196976,0.164711,-18.136722,-85.374121,25.279507
290239,-0.083029,-0.202376,0.137422,-19.576608,-85.459011,26.676306
290339,-0.006429,-0.199708,0.109457,-20.826377,-85.545369,27.926258
290439,0.051711,-0.207273,0.088107,-21.964093,-85.63817,29.097083
290539,0.08384,-0.228196,0.07612,-23.111243,-85.742867,30.295672
290639,0.09276,-0.2348,0.078033,-24.346773,-85.848689,31.587836
290739,0.080278,-0.232396,0.088473,-25.722211,-85.94854,33.012923
290839,0.046208,-0.215861,0.105445,-27.248923,-86.032956,34.569917
290939,-0.000299,-0.184079,0.108867,-28.763978,-86.097454,36.088368
291039,-0.041111,-0.170695,0.100832,-30.23508,-86.154809,37.539209
291139,-0.061639,-0.173831,0.098108,-31.755012,-86.211929,39.027097
291239,-0.062273,-0.160305,0.095711,-33.237174,-86.260631,40.476674
291339,-0.036412,-0.145494,0.093381,-34.650067,-86.300616,41.871608
291439,0.007469,-0.146325,0.092636,-36.066319,-86.338982,43.295037
291539,0.054345,-0.172817,0.085872,-37.582399,-86.389463,44.845336
291639,0.087593,-0.213995,0.08358,-39.345629,-86.456391,46.662255
291739,0.120081,-0.220497,0.084305,-41.202517,-86.522266,48.591526
291839,0.157887,-0.215891,0.086268,-43.091757,-86.581521,50.57478
291939,0.187339,-0.217378,0.090683,-45.070269,-86.635559,52.664247
292039,0.208201,-0.231011,0.092405,-47.210578,-86.689813,54.927639
292139,0.219013,-0.252559,0.091684,-49.574279,-86.747351,57.420862
292239,0.231611,-0.276935,0.089319,-52.195305,-86.808488,60.178892
292339,0.233818,-0.287192,0.086788,-54.985412,-86.86689,63.107361
292439,0.243383,-0.276265,0.085216,-57.762571,-86.91465,66.028197
292539,0.25376,-0.238676,0.087277,-60.274025,-86.942933,68.688789
292639,0.260137,-0.163442,0.094138,-62.13904,-86.941524,70.705646
292739,0.267072,-0.080567,0.101412,-63.237543,-86.911828,71.958893
292839,0.261866,-0.018925,0.110244,-63.774687,-86.860875,72.647013
292939,0.2475,0.008784,0.126954,-64.118198,-86.794046,73.132998
293039,0.239706,0.009668,0.134902,-64.474782,-86.72272,73.627636
293139,0.240718,-0.003201,0.140013,-64.947342,-86.651688,74.239059
293239,0.238294,-0.015126,0.148582,-65.536079,-86.578733,74.965513
293339,0.215602,0.004073,0.162971,-65.999554,-86.493362,75.553504
293439,0.163423,0.040392,0.176596,-66.213484,-86.392235,75.861568
293539,0.095134,0.071895,0.181662,-66.214292,-86.281173,75.91689
293639,0.01907,0.094748,0.174142,-66.050796,-86.168812,75.763868
293739,-0.050361,0.14318,0.148543,-65.480035,-86.058432,75.162731
293839,-0.090244,0.239024,0.121714,-64.170403,-85.937986,73.797916
293939,-0.06443,0.389507,0.093778,-61.780527,-85.789614,71.364628
294039,0.043947,0.56328,0.072484,-58.302193,-85.593227,67.901535
294139,0.145891,0.747654,0.077698,-54.034884,-85.318264,63.704496
294239,0.210006,0.871432,0.100847,-49.695933,-84.964763,59.470564
294339,0.232055,0.911806,0.14935,-45.953058,-84.550713,55.845416
294439,0.215796,0.883428,0.192386,-43.033535,-84.112486,53.035742
294539,0.178621,0.829678,0.254633,-40.961684,-83.661707,51.054922
294639,0.10238,0.729879,0.281693,-39.610198,-83.238544,49.753549
294739,0.011515,0.507368,0.248805,-38.986937,-82.923639,49.132295
294839,-0.023407,0.208546,0.169342,-38.994881,-82.770217,49.126706
294939,0.008951,-0.043739,0.082032,-39.39503,-82.760579,49.535144
295039,0.052961,-0.239559,0.020076,-40.124931,-82.859511,50.30131
295139,0.063517,-0.373404,-0.022075,-41.131528,-83.03101,51.352138
295239,0.073939,-0.457545,-0.062482,-42.312912,-83.251465,52.584583
295339,0.103975,-0.430191,-0.10384,-43.313695,-83.473695,53.651972
295439,0.16845,-0.299756,-0.127776,-43.792057,-83.649575,54.230383
295539,0.232139,-0.139912,-0.128903,-43.674599,-83.759491,54.245924
295639,0.277555,-0.042226,-0.113469,-43.232235,-83.822679,53.960824
295739,0.330284,-0.029963,-0.110042,-42.721426,-83.879118,53.637311
295839,0.359792,-0.023997,-0.122611,-42.114375,-83.937549,53.23405
295939,0.385612,-0.001265,-0.135039,-41.350008,-83.9905,52.687513
296039,0.385432,0.058149,-0.137592,-40.351725,-84.017796,51.905704
296139,0.360376,0.156207,-0.136433,-39.02485,-83.999816,50.779062
296239,0.313744,0.248308,-0.143889,-37.395705,-83.940042,49.32151
296339,0.231444,0.301147,-0.170121,-35.566184,-83.860328,47.61482
296439,0.117086,0.272318,-0.205265,-33.779273,-83.800037,45.884853
296539,-0.006097,0.166211,-0.223967,-32.311297,-83.791347,44.404585
296639,-0.105709,0.055357,-0.230005,-31.17951,-83.834892,43.205117
296739,-0.171778,-0.005684,-0.231403,-30.226922,-83.906558,42.147937
296839,-0.221522,-0.021633,-0.230631,-29.325328,-83.984084,41.113527
296939,-0.246793,-0.007921,-0.22949,-28.383041,-84.052618,40.023788
297039,-0.270681,0.030359,-0.229494,-27.333721,-84.099738,38.812804
297139,-0.291487,0.090871,-0.208865,-26.233252,-84.108184,37.538485
297239,-0.316054,0.159485,-0.178206,-25.137095,-84.071036,36.254326
297339,-0.342799,0.186192,-0.148365,-24.161318,-84.010431,35.075688
297439,-0.34848,0.159081,-0.132442,-23.347676,-83.95844,34.056696
297539,-0.341673,0.091037,-0.132211,-22.687402,-83.94089,33.195791
297639,-0.335773,0.030391,-0.139869,-22.112396,-83.956144,32.424033
297739,-0.327388,-0.016622,-0.147906,-21.582104,-83.997315,31.702112
297839,-0.309589,-0.043752,-0.148912,-21.08119,-84.052473,31.02005
297939,-0.284451,-0.068554,-0.148374,-20.605916,-84.120167,30.378326
298039,-0.26323,-0.097631,-0.144893,-20.180226,-84.20222,29.79876
298139,-0.250413,-0.121972,-0.129963,-19.860501,-84.294014,29.333172
298239,-0.247935,-0.142814,-0.110613,-19.673748,-84.393034,29.002719
298339,-0.236626,-0.149453,-0.093972,-19.577789,-84.492292,28.770065
298439,-0.217933,-0.143091,-0.08246,-19.518102,-84.585811,28.584655
298539,-0.199578,-0.126286,-0.076346,-19.444893,-84.668998,28.396262
298639,-0.191023,-0.108512,-0.074749,-19.335556,-84.742184,28.176541
298739,-0.1937,-0.083471,-0.079494,-19.143187,-84.802606,27.87193
298839,-0.202588,-0.053305,-0.084546,-18.857691,-84.847458,27.468728
298939,-0.20397,-0.032619,-0.091399,-18.483368,-84.882077,26.975575
299039,-0.192577,-0.033345,-0.093105,-18.087637,-84.917054,26.467512
299139,-0.167675,-0.054411,-0.096162,-17.693989,-84.9637,25.975902
299239,-0.141723,-0.062947,-0.100942,-17.263963,-85.015474,25.462743
299339,-0.111027,-0.05541,-0.105,-16.766455,-85.063391,24.899549
299439,-0.065482,-0.055501,-0.110049,-16.200386,-85.111687,24.29378
299539,-0.002415,-0.08803,-0.111035,-15.639661,-85.177511,23.729699
299639,0.067612,-0.127943,-0.106714,-15.124002,-85.264236,23.251178
299739,0.137169,-0.130352,-0.107419,-14.549602,-85.35197,22.753776
299839,0.202161,-0.067847,-0.118344,-13.734343,-85.40595,22.052149
299939,0.253409,0.010434,-0.12889,-12.673258,-85.416644,21.133404
300039,0.274145,0.053891,-0.145163,-11.419888,-85.403365,20.033678
300139,0.261117,0.039003,-0.173134,-10.004013,-85.399306,18.763421
300239,0.208509,0.031224,-0.202621,-8.421662,-85.399574,17.295902
300339,0.117661,0.126605,-0.229408,-6.623451,-85.344078,15.559525
300439,0.017022,0.336423,-0.255356,-4.627639,-85.165671,13.566703
300539,-0.079637,0.576549,-0.286684,-2.556018,-84.84525,11.441441
300639,-0.119661,0.755519,-0.275281,-0.807481,-84.416145,9.616382
300739,-0.141879,0.845101,-0.248167,0.52082,-83.931321,8.199509
300839,-0.154223,0.777563,-0.225089,1.533152,-83.482746,7.092174
300939,-0.179636,0.53887,-0.185913,2.256125,-83.170055,6.26068
301039,-0.199453,0.132067,-0.169124,2.919701,-83.089774,5.477251
301139,-0.176021,-0.302411,-0.118078,3.466436,-83.258947,4.825103
301239,-0.071735,-0.599557,-0.080247,4.021259,-83.598873,4.225309
301339,0.130958,-0.758326,-0.076102,4.809577,-84.028996,3.50792
301439,0.297408,-0.812166,-0.113502,6.06696,-84.486421,2.415526
301539,0.30484,-0.740696,-0.146754,7.693224,-84.898009,0.957729
301639,0.159613,-0.538339,-0.13728,9.211847,-85.191781,-0.474755
301739,-0.020321,-0.238925,-0.080138,10.028635,-85.31922,-1.306006
301839,-0.133702,0.054269,-0.018775,10.022618,-85.286842,-1.376807
301939,-0.21262,0.219009,0.019021,9.524695,-85.165172,-0.999372
302039,-0.271841,0.25335,0.067466,8.663966,-85.028163,-0.291779
302139,-0.346365,0.189936,0.137984,7.408256,-84.931772,0.769584
302239,-0.421828,0.060458,0.208756,5.79156,-84.911535,2.15005
302339,-0.454702,-0.084821,0.255043,3.93905,-84.972886,3.748302
302439,-0.452131,-0.181734,0.263594,2.014584,-85.085329,5.420048
302539,-0.372502,-0.230164,0.237723,0.232357,-85.220518,6.994517
302639,-0.23316,-0.248968,0.188325,-1.219321,-85.362932,8.317102
302739,-0.10495,-0.238653,0.140087,-2.328851,-85.497836,9.369873
302839,-0.012602,-0.207954,0.097673,-3.120452,-85.614904,10.156637
302939,0.04254,-0.179809,0.075557,-3.739176,-85.715854,10.801591
303039,0.05501,-0.132858,0.058213,-4.217937,-85.790159,11.313277
303139,0.025914,-0.091605,0.044843,-4.598916,-85.841172,11.710155
303239,-0.017356,-0.08108,0.041842,-4.982894,-85.886096,12.085151
303339,-0.070677,-0.091098,0.053077,-5.503463,-85.935905,12.566432
303439,-0.125914,-0.099558,0.072819,-6.235761,-85.988982,13.228206
303539,-0.139164,-0.09951,0.095051,-7.176764,-86.03985,14.091538
303639,-0.133997,-0.096326,0.117642,-8.321533,-86.086063,15.162032
303739,-0.107616,-0.105003,0.132458,-9.613121,-86.13429,16.394773
303839,-0.059861,-0.116513,0.142872,-11.015041,-86.185955,17.765444
303939,0.001073,-0.141069,0.144806,-12.481669,-86.248853,19.23586
304039,0.055367,-0.172571,0.142018,-14.009743,-86.327126,20.798904
304139,0.106034,-0.203968,0.129983,-15.545641,-86.421808,22.398721
304239,0.143628,-0.230084,0.116695,-17.096397,-86.530213,24.034824
304339,0.159626,-0.237396,0.108003,-18.681561,-86.64132,25.714386
304439,0.16595,-0.229451,0.109095,-20.355141,-86.745015,27.485949
304539,0.175684,-0.201263,0.11144,-22.046386,-86.830096,29.280619
304639,0.179954,-0.174986,0.116852,-23.768656,-86.897043,31.108671
304739,0.186703,-0.170151,0.123264,-25.602463,-86.956783,33.052175
304839,0.186631,-0.188604,0.121179,-27.582621,-87.022991,35.142069
304939,0.186048,-0.21118,0.115163,-29.719406,-87.098194,37.388321
305039,0.189164,-0.199201,0.111197,-31.854103,-87.164283,39.634121
305139,0.191783,-0.15275,0.109985,-33.769686,-87.204322,41.661937
305239,0.198964,-0.085168,0.118435,-35.351423,-87.206622,43.359588
305339,0.213836,-0.026641,0.131321,-36.63586,-87.175338,44.768133
305439,0.223589,-0.006958,0.142065,-37.842361,-87.12982,46.104286
305539,0.232736,-0.015833,0.154725,-39.176087,-87.082269,47.573126
305639,0.223838,-0.015633,0.16576,-40.55963,-87.028797,49.086809
305739,0.190761,0.010812,0.183781,-41.863026,-86.955286,50.501342
305839,0.131444,0.051433,0.207395,-43.024279,-86.853873,51.739599
305939,0.042851,0.080461,0.220629,-44.051567,-86.733924,52.792965
306039,-0.040751,0.069079,0.222759,-45.143777,-86.616712,53.863496
306139,-0.098591,0.057053,0.213991,-46.219288,-86.506778,54.884209
306239,-0.109835,0.115703,0.199734,-46.758303,-86.378798,55.361052
306339,-0.059306,0.256003,0.194744,-46.31575,-86.197557,54.883347
306439,0.037838,0.41817,0.195256,-44.920064,-85.950584,53.505941
306539,0.167147,0.560715,0.206098,-42.93121,-85.637699,51.607589
306639,0.304518,0.652087,0.237003,-40.871921,-85.269203,49.716695
306739,0.403296,0.665872,0.286112,-39.233062,-84.871841,48.303575
306839,0.418001,0.638669,0.322727,-38.076964,-84.470664,47.382913
306939,0.353529,0.572754,0.359021,-37.478768,-84.085344,46.985231
307039,0.278868,0.441132,0.409449,-37.609272,-83.742122,47.277108
307139,0.192763,0.251785,0.440754,-38.472754,-83.473167,48.257073
307239,0.09264,0.0365,0.406173,-39.856811,-83.310445,49.703751
307339,0.028656,-0.179154,0.292059,-41.483793,-83.279898,51.358382
307439,-0.000539,-0.349394,0.201203,-43.357974,-83.350725,53.244975
307539,-0.012399,-0.468259,0.134845,-45.467493,-83.489249,55.361206
307639,-0.008086,-0.567632,0.067947,-47.810695,-83.685301,57.714359
307739,0.066161,-0.624776,0.005549,-50.278932,-83.918666,60.235086
307839,0.224701,-0.555087,-0.055017,-52.333854,-84.143215,62.430506
307939,0.389502,-0.380008,-0.097238,-53.49603,-84.320017,63.822766
308039,0.473864,-0.214071,-0.125684,-53.794161,-84.451741,64.395022
308139,0.458648,-0.097485,-0.145009,-53.486381,-84.552753,64.349708
308239,0.45007,-0.038386,-0.158481,-52.838782,-84.639579,63.958137
308339,0.458869,0.016418,-0.157773,-51.903799,-84.706391,63.283051
308439,0.464133,0.069189,-0.144094,-50.743145,-84.747056,62.384418
308539,0.436027,0.09712,-0.119445,-49.549347,-84.764968,61.436361
308639,0.368607,0.110925,-0.084741,-48.466291,-84.761027,60.560715
308739,0.2629,0.117632,-0.054062,-47.54359,-84.740134,59.785242
308839,0.100462,0.11679,-0.053031,-46.728708,-84.71814,59.024537
308939,-0.053786,0.108428,-0.070618,-45.970221,-84.705846,58.23168
309039,-0.159129,0.077011,-0.088241,-45.336865,-84.712505,57.503862
309139,-0.242367,0.048278,-0.106024,-44.796416,-84.73733,56.821468
309239,-0.31047,0.021069,-0.11705,-44.358501,-84.777143,56.202892
309339,-0.355121,0.006915,-0.10854,-44.038769,-84.818962,55.677348
309439,-0.371263,0.024984,-0.096314,-43.698426,-84.848136,55.121861
309539,-0.367789,0.070789,-0.078943,-43.231952,-84.851002,54.44176
309639,-0.338343,0.104429,-0.065873,-42.664668,-84.834044,53.677387
309739,-0.303757,0.111404,-0.053393,-42.111339,-84.808587,52.946914
309839,-0.265175,0.09678,-0.051636,-41.611607,-84.788049,52.292444
309939,-0.224459,0.063229,-0.053468,-41.222857,-84.782127,51.772837
310039,-0.186351,0.0191,-0.064071,-40.944222,-84.798954,51.38574
310139,-0.154324,-0.019236,-0.07586,-40.746491,-84.836643,51.098326
310239,-0.126085,-0.044307,-0.089914,-40.564702,-84.890363,50.84319
310339,-0.101784,-0.061572,-0.105044,-40.361826,-84.95713,50.580889
310439,-0.089427,-0.064844,-0.11372,-40.11566,-85.028416,50.282273
310539,-0.095592,-0.061583,-0.114118,-39.849073,-85.09826,49.959654
310639,-0.105312,-0.069459,-0.106167,-39.65513,-85.168503,49.704395
310739,-0.114528,-0.086575,-0.089816,-39.621636,-85.240224,49.604887
310839,-0.120583,-0.108648,-0.071181,-39.788388,-85.314804,49.70285
310939,-0.115963,-0.135326,-0.050224,-40.192837,-85.393271,50.041952
311039,-0.09888,-0.163676,-0.035129,-40.816963,-85.478153,50.611223
311139,-0.077864,-0.167869,-0.023318,-41.537457,-85.55978,51.289184
311239,-0.063064,-0.137211,-0.016658,-42.157821,-85.625088,51.875165
311339,-0.063946,-0.098409,-0.020026,-42.578301,-85.674805,52.260141
311439,-0.068584,-0.080631,-0.028466,-42.870476,-85.720096,52.513766
311539,-0.060901,-0.082519,-0.044455,-43.083398,-85.772305,52.692322
311639,-0.032664,-0.093899,-0.062445,-43.242974,-85.836239,52.833602
311739,-0.002698,-0.101994,-0.08485,-43.303741,-85.912287,52.893022
311839,0.020952,-0.128742,-0.104187,-43.388329,-86.007042,52.989907
311939,0.041244,-0.165086,-0.112715,-43.624604,-86.120207,53.250489
312039,0.090629,-0.163272,-0.117395,-43.806941,-86.234364,53.485347
312139,0.152905,-0.092956,-0.124886,-43.482788,-86.322296,53.248388
312239,0.212353,0.019537,-0.135693,-42.344898,-86.366976,52.230195
312339,0.248582,0.105843,-0.147151,-40.56685,-86.377202,50.591401
312439,0.251744,0.128254,-0.165902,-38.518717,-86.380808,48.683821
312539,0.228068,0.148842,-0.183316,-36.24392,-86.376441,46.535534
312639,0.185599,0.242012,-0.200368,-33.408489,-86.327654,43.801031
312739,0.096061,0.418781,-0.210798,-29.847795,-86.185987,40.287999
312839,-0.00865,0.62011,-0.241036,-25.663861,-85.934988,36.089297
312939,-0.081489,0.776662,-0.275885,-21.347918,-85.588917,31.7148
313039,-0.146449,0.889654,-0.285377,-17.423371,-85.161282,27.693338
313139,-0.211285,0.915971,-0.287296,-14.140997,-84.700064,24.276613
313239,-0.267491,0.761132,-0.287651,-11.606959,-84.310933,21.576962
313339,-0.277397,0.508269,-0.278891,-9.691055,-84.053804,19.491425
313439,-0.240694,0.245253,-0.252877,-8.25569,-83.937386,17.909521
313539,-0.166765,-0.013249,-0.199759,-7.287455,-83.960376,16.839825
313639,-0.024585,-0.261778,-0.148869,-6.66141,-84.11978,16.196264
313739,0.15761,-0.425588,-0.1356,-6.06913,-84.371037,15.691787
313839,0.278686,-0.45689,-0.160916,-5.218172,-84.640984,14.997342
313939,0.240021,-0.387543,-0.197533,-4.040418,-84.871818,13.952748
314039,0.061224,-0.2394,-0.189599,-2.865715,-85.015631,12.808664
314139,-0.126734,-0.092396,-0.136049,-2.058392,-85.072217,11.92541
314239,-0.2616,0.019924,-0.091306,-1.58975,-85.062854,11.304564
314339,-0.317983,0.04611,-0.053854,-1.39935,-85.037703,10.930558
314439,-0.340477,0.001366,0.013657,-1.676071,-85.037259,11.012494
314539,-0.3783,-0.063843,0.088718,-2.487529,-85.072611,11.609419
314639,-0.415868,-0.107252,0.151883,-3.771572,-85.129946,12.659024
314739,-0.41737,-0.120529,0.180164,-5.283915,-85.191427,13.936797
314839,-0.36403,-0.100828,0.179968,-6.783905,-85.238867,15.232743
314939,-0.280626,-0.08695,0.167018,-8.160716,-85.276682,16.452959
315039,-0.195408,-0.099244,0.145229,-9.372411,-85.32109,17.556419
315139,-0.140854,-0.108236,0.109982,-10.340488,-85.372307,18.446733
315239,-0.102675,-0.110826,0.079278,-11.094651,-85.427157,19.144313
315339,-0.06391,-0.096061,0.06006,-11.685405,-85.475215,19.70019
315439,-0.042497,-0.058504,0.056612,-12.192886,-85.502189,20.184805
315539,-0.051611,-0.012951,0.059287,-12.657053,-85.502998,20.620715
315639,-0.085423,0.030399,0.059219,-13.068394,-85.479314,20.984199
315739,-0.121739,0.035515,0.068621,-13.553267,-85.451292,21.400579
315839,-0.1846,0.017011,0.08344,-14.203449,-85.431183,21.946671
315939,-0.215818,-0.029627,0.103221,-15.088726,-85.433467,22.710668
316039,-0.205674,-0.082627,0.124878,-16.223976,-85.460557,23.731244
316139,-0.171478,-0.10928,0.14457,-17.546628,-85.497225,24.959415
316239,-0.11794,-0.111937,0.153896,-18.92986,-85.53136,26.279063
316339,-0.049837,-0.11835,0.155513,-20.321749,-85.566128,27.646473
316439,0.023382,-0.146833,0.148192,-21.720497,-85.615032,29.06276
316539,0.085814,-0.174431,0.1344,-23.100266,-85.678897,30.495783
316639,0.124023,-0.206761,0.124283,-24.531856,-85.759338,32.002588
316739,0.130114,-0.239046,0.1128,-26.046003,-85.856372,33.595496
316839,0.127771,-0.254683,0.104896,-27.636454,-85.960225,35.26335
316939,0.120154,-0.26674,0.109883,-29.400599,-86.065224,37.100724
317039,0.1213,-0.254342,0.108011,-31.191255,-86.160579,38.965096
317139,0.135472,-0.238213,0.104144,-32.958485,-86.245277,40.813922
317239,0.159369,-0.22583,0.100479,-34.702453,-86.321424,42.652977
317339,0.179725,-0.202167,0.094579,-36.336681,-86.384915,44.393606
317439,0.202699,-0.147748,0.093088,-37.697379,-86.421063,45.873254
317539,0.222963,-0.089724,0.101266,-38.796007,-86.426149,47.10192
317639,0.227659,-0.055077,0.110562,-39.756035,-86.411073,48.194418
317739,0.22959,-0.039316,0.118681,-40.667854,-86.384942,49.239745
317839,0.231952,-0.040038,0.127373,-41.626078,-86.354739,50.332959
317939,0.242901,-0.036101,0.135163,-42.587437,-86.318681,51.435638
318039,0.242689,-0.012862,0.139201,-43.412603,-86.270186,52.401764
318139,0.21851,0.027437,0.143928,-44.013788,-86.20234,53.1296
318239,0.177203,0.05658,0.146622,-44.45726,-86.121022,53.675701
318339,0.110921,0.060044,0.147385,-44.901308,-86.037718,54.184355
318439,0.030774,0.061817,0.142418,-45.331633,-85.955473,54.633254
318539,-0.029467,0.104386,0.133512,-45.486738,-85.859596,54.771659
318639,-0.057896,0.200598,0.1267,-45.085824,-85.727718,54.336218
318739,-0.03364,0.35999,0.128487,-43.8825,-85.529486,53.109863
318839,0.052432,0.54652,0.153802,-41.989828,-85.240567,51.240994
318939,0.127315,0.715543,0.185128,-39.727108,-84.861271,49.042871
319039,0.170514,0.840565,0.223437,-37.478459,-84.405046,46.882325
319139,0.167403,0.871538,0.250518,-35.588211,-83.918337,45.078534
319239,0.090074,0.780025,0.27105,-34.357832,-83.463143,43.892486
319339,-0.068433,0.560131,0.264685,-33.922539,-83.112604,43.41461
319439,-0.1773,0.284758,0.231337,-34.166112,-82.903616,43.557554
319539,-0.183984,0.017759,0.159986,-34.822384,-82.843952,44.112578
319639,-0.117405,-0.247914,0.083649,-35.855279,-82.932948,45.085551
319739,-0.059028,-0.46442,0.023462,-37.269847,-83.139695,46.476402
319839,-0.036681,-0.602834,-0.032638,-38.971439,-83.424139,48.168423
319939,-0.014666,-0.605072,-0.086137,-40.608963,-83.723352,49.807666
320039,0.063766,-0.508445,-0.128651,-41.837772,-83.992281,51.080147
320139,0.185293,-0.334947,-0.151322,-42.350353,-84.194018,51.702041
320239,0.289816,-0.147418,-0.167908,-42.037221,-84.322389,51.554078
320339,0.35599,-0.022591,-0.177592,-41.147342,-84.40077,50.864703
320439,0.378145,0.052056,-0.200978,-39.832526,-84.453993,49.761214
320539,0.389628,0.10927,-0.223107,-38.173864,-84.486923,48.318966
320639,0.373615,0.174088,-0.224997,-36.268415,-84.486614,46.619605
320739,0.339897,0.239278,-0.209161,-34.243512,-84.445013,44.780749
320839,0.292611,0.249625,-0.182515,-32.374965,-84.384155,43.071597
320939,0.215587,0.217981,-0.170427,-30.742957,-84.330175,41.5556
321039,0.08438,0.136186,-0.18938,-29.350875,-84.318388,40.205056
321139,-0.062972,0.047438,-0.216355,-28.152801,-84.355675,38.964646
321239,-0.171862,-0.01342,-0.227609,-27.104303,-84.424481,37.811946
321339,-0.239412,-0.038524,-0.229155,-26.124679,-84.504552,36.689703
321439,-0.281147,-0.050163,-0.219356,-25.221774,-84.586396,35.62066
321539,-0.312719,-0.041321,-0.210662,-24.333414,-84.659914,34.548202
321639,-0.344995,0.002827,-0.203697,-23.36801,-84.706988,33.37991
321739,-0.370479,0.036552,-0.2003,-22.338715,-84.733544,32.132875
321839,-0.374689,0.059144,-0.19665,-21.27146,-84.745139,30.845351
321939,-0.346224,0.056136,-0.185887,-20.253141,-84.753952,29.623387
322039,-0.302042,0.035234,-0.176124,-19.307115,-84.770177,28.499479
322139,-0.258018,0.010288,-0.166602,-18.436041,-84.796497,27.476212
322239,-0.222799,-0.025646,-0.16261,-17.628149,-84.840295,26.536714
322339,-0.196594,-0.064706,-0.156139,-16.902602,-84.903203,25.69505
322439,-0.187481,-0.099693,-0.153327,-16.233434,-84.98392,24.915327
322539,-0.182721,-0.131295,-0.146039,-15.641029,-85.080108,24.215507
322639,-0.178778,-0.155122,-0.130592,-15.164351,-85.186492,23.634215
322739,-0.17336,-0.165425,-0.101344,-14.876167,-85.293845,23.245289
322839,-0.161559,-0.15457,-0.063031,-14.810101,-85.389388,23.086073
322939,-0.143994,-0.13762,-0.018263,-15.011804,-85.468876,23.205615
323039,-0.108257,-0.132662,0.018345,-15.449364,-85.539968,23.582289
323139,-0.063662,-0.140604,0.041608,-16.058343,-85.611454,24.156505
323239,-0.033897,-0.137714,0.05259,-16.74377,-85.67898,24.824458
323339,-0.015461,-0.104877,0.055542,-17.38651,-85.727352,25.460159
323439,-0.004853,-0.064068,0.060884,-17.979588,-85.751934,26.052134
323539,0.000112,-0.026425,0.057411,-18.458614,-85.756185,26.532589
323639,0.014034,-0.004687,0.036696,-18.724912,-85.752142,26.80773
323739,0.039244,-0.018197,0.00892,-18.807126,-85.76045,26.912766
323839,0.065398,-0.040901,-0.021636,-18.706986,-85.786669,26.849975
323939,0.098599,-0.054544,-0.051625,-18.39786,-85.825711,26.596719
324039,0.14915,-0.063771,-0.069796,-17.940266,-85.872862,26.223667
324139,0.226234,-0.079171,-0.071975,-17.449858,-85.92853,25.862034
324239,0.301008,-0.083763,-0.068176,-16.946033,-85.985787,25.529945
324339,0.342979,-0.051074,-0.070158,-16.314592,-86.025118,25.094077
324439,0.321586,0.017311,-0.087984,-15.390397,-86.02904,24.35249
324539,0.303129,0.070629,-0.101177,-14.260868,-86.004328,23.394474
324639,0.26314,0.101242,-0.107006,-13.064089,-85.961879,22.346039
324739,0.205514,0.173981,-0.109977,-11.779894,-85.877368,21.176773
324839,0.101974,0.298706,-0.116964,-10.37396,-85.721445,19.825758
324939,0.013239,0.451867,-0.127247,-8.864765,-85.477457,18.319805
325039,-0.055705,0.569928,-0.119899,-7.492561,-85.163115,16.911059
325139,-0.089257,0.625558,-0.136815,-6.163751,-84.815761,15.525865
325239,-0.130025,0.623108,-0.203312,-4.637093,-84.470662,13.917721
325339,-0.155789,0.475081,-0.257222,-3.053201,-84.208577,12.236403
325439,-0.152773,0.124498,-0.253151,-1.68624,-84.143221,10.774399
325539,-0.118029,-0.268641,-0.198931,-0.654208,-84.299622,9.669167
325639,-0.041644,-0.528378,-0.16319,0.279326,-84.603051,8.707308
325739,0.079959,-0.638996,-0.152702,1.346781,-84.968407,7.681458
325839,0.156516,-0.592008,-0.158345,2.648535,-85.304793,6.465023
325939,0.135254,-0.415973,-0.148686,3.968823,-85.538333,5.218254
326039,0.043518,-0.169607,-0.081841,4.704451,-85.632126,4.505434
326139,-0.05259,0.073336,-0.003426,4.665367,-85.590491,4.514394
326239,-0.11256,0.186255,0.034482,4.252626,-85.486067,4.863677
326339,-0.129719,0.189807,0.063303,3.642086,-85.380585,5.401573
326439,-0.176649,0.155398,0.109263,2.724013,-85.295784,6.221117
326539,-0.245253,0.105446,0.167029,1.411606,-85.239603,7.396994
326639,-0.302129,0.025907,0.228057,-0.32123,-85.226867,8.962128
326739,-0.307692,-0.081001,0.258374,-2.282984,-85.270877,10.753746
326839,-0.269915,-0.149901,0.246704,-4.210033,-85.349676,12.532107
326939,-0.175698,-0.179987,0.210617,-5.909758,-85.442862,14.13635
327039,-0.055791,-0.195806,0.17411,-7.356908,-85.54391,15.555931
327139,0.039004,-0.191207,0.144248,-8.58723,-85.642089,16.812317
327239,0.100093,-0.182096,0.122189,-9.659295,-85.73515,17.944925
327339,0.115682,-0.166884,0.114725,-10.69053,-85.818796,19.045403
327439,0.094562,-0.152665,0.113068,-11.739952,-85.893133,20.151855
327539,0.050006,-0.150543,0.109735,-12.823087,-85.965171,21.266387
327639,-0.000331,-0.146202,0.10251,-13.907113,-86.034216,22.352785
327739,-0.035078,-0.139333,0.102472,-15.033091,-86.097958,23.461176
327839,-0.062875,-0.13436,0.105962,-16.227914,-86.156847,24.622515
327939,-0.064987,-0.141823,0.115018,-17.554044,-86.216571,25.914154
328039,-0.038792,-0.190263,0.125671,-19.134501,-86.298519,27.475596
328139,-0.001188,-0.229507,0.127946,-20.909093,-86.398125,29.252998
328239,0.062468,-0.261654,0.129397,-22.875454,-86.510756,31.258872
328339,0.118171,-0.299456,0.133612,-25.132133,-86.637533,33.587301
328439,0.16961,-0.319909,0.138403,-27.673188,-86.767628,36.229792
328539,0.206608,-0.338077,0.141247,-30.526649,-86.898706,39.206054
328639,0.216966,-0.348784,0.145889,-33.729669,-87.024672,42.537942
328739,0.208118,-0.351399,0.151778,-37.284898,-87.139253,46.217046
328839,0.186213,-0.333856,0.154153,-41.020517,-87.23302,50.063843
328939,0.170793,-0.307578,0.157979,-44.817052,-87.301647,53.9625
329039,0.157972,-0.289068,0.16458,-48.68224,-87.34767,57.922329
329139,0.139942,-0.287344,0.167536,-52.680008,-87.378968,62.004397
329239,0.133102,-0.285647,0.171602,-56.766734,-87.39447,66.171502
329339,0.129638,-0.263124,0.173746,-60.64692,-87.388955,70.129842
329439,0.130862,-0.196296,0.166672,-63.702933,-87.358235,73.263895
329539,0.129527,-0.127254,0.166299,-65.904934,-87.304298,75.542347
329639,0.13388,-0.099343,0.168938,-67.716473,-87.238982,77.4325
329739,0.152533,-0.0986,0.172351,-69.434967,-87.168938,79.240304
329839,0.18462,-0.094884,0.183741,-71.049636,-87.089482,80.962675
329939,0.211697,-0.098777,0.197961,-72.645205,-87.000575,82.681586
330039,0.21246,-0.085845,0.216427,-74.064436,-86.897084,84.224501
330139,0.157774,-0.065419,0.240037,-75.276575,-86.775583,85.528795
330239,0.055126,-0.057363,0.273576,-76.45428,-86.632849,86.739853
330339,-0.065284,-0.048652,0.298694,-77.57262,-86.47364,87.822499
330439,-0.171534,0.017482,0.299077,-78.079563,-86.305398,88.231702
330539,-0.229432,0.145528,0.2748,-77.472049,-86.135324,87.490822
330639,-0.197851,0.314117,0.237181,-75.499254,-85.962634,85.399373
330739,-0.075241,0.447988,0.190645,-72.522805,-85.788407,82.371637
330839,0.103776,0.524475,0.153414,-69.058233,-85.607926,78.956574
330939,0.240812,0.587444,0.128653,-65.315296,-85.410721,75.340203
331039,0.261749,0.631451,0.136758,-61.63846,-85.1801,71.801146
331139,0.16522,0.616332,0.185712,-58.605963,-84.912841,68.852067
331239,0.010061,0.515701,0.255693,-56.71487,-84.631922,66.958651
331339,-0.094258,0.349012,0.310884,-56.053343,-84.373904,66.239598
331439,-0.136321,0.093175,0.264933,-56.523481,-84.21918,66.633348
331539,-0.128731,-0.149216,0.157778,-57.78357,-84.190929,67.82552
331639,-0.121746,-0.307443,0.081712,-59.576978,-84.243952,69.557714
331739,-0.132429,-0.408593,0.02463,-61.764351,-84.347877,71.679424
331839,-0.118636,-0.45125,-0.032637,-64.100383,-84.483797,73.957987
331939,-0.029604,-0.456118,-0.088726,-66.388333,-84.641025,76.238928
332039,0.134635,-0.361166,-0.149785,-68.018484,-84.801896,77.953189
332139,0.283435,-0.225676,-0.185862,-68.762467,-84.950014,78.862926
332239,0.325866,-0.067466,-0.209027,-68.491673,-85.077046,78.778266
332339,0.343893,0.038156,-0.212906,-67.524477,-85.183321,78.005086
332439,0.352238,0.064133,-0.203909,-66.373471,-85.277741,77.052392
332539,0.352365,0.078902,-0.175736,-65.169132,-85.352299,76.046386
332639,0.345405,0.065464,-0.132833,-64.154123,-85.406341,75.22642
332739,0.3111,0.046761,-0.076188,-63.440879,-85.435031,74.689506
332839,0.25293,0.073898,-0.016672,-62.775388,-85.425811,74.167057
332939,0.158847,0.151085,0.023547,-61.8155,-85.3751,73.295139
333039,0.025278,0.227645,0.021307,-60.477416,-85.30301,71.966895
333139,-0.108022,0.253842,-0.006337,-59.004067,-85.234458,70.42614
333239,-0.208343,0.231997,-0.036113,-57.64819,-85.183911,68.945449
333339,-0.260522,0.189461,-0.055564,-56.518277,-85.153306,67.661434
333439,-0.283104,0.150725,-0.061809,-55.607361,-85.136131,66.58418
333539,-0.294721,0.106614,-0.076004,-54.897182,-85.138734,65.701702
333639,-0.288841,0.07537,-0.090332,-54.297149,-85.1575,64.933177
333739,-0.258821,0.077104,-0.101386,-53.6205,-85.180017,64.105065
333839,-0.212622,0.098369,-0.109522,-52.761268,-85.197963,63.120333
333939,-0.168765,0.113739,-0.110654,-51.782874,-85.209648,62.041277
334039,-0.132659,0.103928,-0.110057,-50.833824,-85.223016,61.012462
334139,-0.108759,0.078609,-0.112039,-49.990267,-85.245131,60.103282
334239,-0.102257,0.040098,-0.122605,-49.289058,-85.285108,59.340724
334339,-0.098724,-0.005661,-0.14235,-48.722776,-85.350102,58.715639
334439,-0.098573,-0.037524,-0.152484,-48.260971,-85.431056,58.195528
334539,-0.106953,-0.057734,-0.156775,-47.874543,-85.521228,57.746283
334639,-0.106223,-0.072975,-0.156892,-47.553764,-85.617055,57.363374
334739,-0.101896,-0.089668,-0.153761,-47.324689,-85.71782,57.074986
334839,-0.086579,-0.097607,-0.137441,-47.206849,-85.814651,56.906996
334939,-0.07504,-0.095485,-0.11481,-47.186471,-85.901031,56.843398
335039,-0.062529,-0.088273,-0.091961,-47.240578,-85.974895,56.861692
335139,-0.035721,-0.07176,-0.081259,-47.240212,-86.037736,56.840798
335239,-0.006856,-0.060419,-0.074861,-47.189239,-86.093384,56.785777
335339,0.013073,-0.038637,-0.080779,-46.955066,-86.142935,56.558597
335439,0.02197,-0.021344,-0.093784,-46.524382,-86.190975,56.139598
335539,0.019133,-0.019434,-0.107108,-45.991492,-86.243493,55.616572
335639,0.019917,-0.008855,-0.122102,-45.28292,-86.297499,54.917979
335739,0.028409,0.018977,-0.138076,-44.271022,-86.345902,53.920355
335839,0.045665,0.047105,-0.146525,-42.991684,-86.384643,52.664715
335939,0.085896,0.0485,-0.151736,-41.61814,-86.422898,51.337843
336039,0.146189,0.031108,-0.145673,-40.328839,-86.464395,50.130064
336139,0.213015,0.030203,-0.130398,-39.08924,-86.498967,49.010514
336239,0.274802,0.07019,-0.117429,-37.65791,-86.509272,47.734403
336339,0.323973,0.125202,-0.090933,-36.088243,-86.483117,46.347949
336439,0.362236,0.161222,-0.066292,-34.518829,-86.429546,44.983688
336539,0.392729,0.18537,-0.060984,-32.897666,-86.360323,43.585011
336639,0.394329,0.218242,-0.076247,-31.066257,-86.276985,41.976464
336739,0.349077,0.307665,-0.090705,-28.854072,-86.149641,39.960129
336839,0.261494,0.472471,-0.111498,-26.075445,-85.938183,37.325274
336939,0.119855,0.685135,-0.155571,-22.705897,-85.616597,34.015612
337039,-0.015704,0.865464,-0.218116,-19.054814,-85.196835,30.343911
337139,-0.080626,0.961676,-0.257809,-15.63582,-84.713946,26.865386
337239,-0.122454,0.952804,-0.283162,-12.695502,-84.223495,23.840927
337339,-0.164,0.880888,-0.311031,-10.173038,-83.763518,21.210135
337439,-0.209633,0.690506,-0.315048,-8.144839,-83.401379,19.048349
337539,-0.279091,0.357878,-0.27135,-6.760918,-83.218294,17.494006
337639,-0.309546,-0.053657,-0.190448,-6.050294,-83.261368,16.599885
337739,-0.23193,-0.376419,-0.132619,-5.720994,-83.484254,16.134668
337839,-0.023111,-0.566384,-0.121393,-5.392198,-83.814683,15.790588
337939,0.224522,-0.648521,-0.147946,-4.769743,-84.193086,15.294114
338039,0.304696,-0.575015,-0.18971,-3.740157,-84.530483,14.434982
338139,0.199923,-0.39224,-0.205111,-2.497816,-84.76202,13.302254
338239,0.025304,-0.216737,-0.181839,-1.372465,-84.890349,12.186849
338339,-0.142045,-0.086318,-0.149527,-0.492113,-84.941905,11.221294
338439,-0.245303,-0.017865,-0.12967,0.215624,-84.953091,10.369679
338539,-0.294607,-0.012187,-0.076233,0.550532,-84.960638,9.863999
338639,-0.352702,-0.046817,0.004957,0.32645,-84.988445,9.886075
338739,-0.417007,-0.14968,0.089491,-0.496346,-85.075201,10.472151
338839,-0.431752,-0.26096,0.140294,-1.718087,-85.224293,11.450035
338939,-0.415829,-0.31426,0.151034,-3.096874,-85.401756,12.594422
339039,-0.319931,-0.308,0.138783,-4.426501,-85.573852,13.744338
339139,-0.184014,-0.287802,0.11589,-5.585999,-85.73356,14.801478
339239,-0.064815,-0.241485,0.078142,-6.420919,-85.867715,15.601438
339339,0.024582,-0.214437,0.041343,-6.93176,-85.988224,16.127711
339439,0.077487,-0.19856,0.017614,-7.227948,-86.101099,16.469113
339539,0.082545,-0.185302,0.002781,-7.396931,-86.207399,16.685863
339639,0.036817,-0.158175,-0.008654,-7.470163,-86.29907,16.780354
339739,-0.025658,-0.120774,-0.014189,-7.488642,-86.36986,16.784083
339839,-0.079614,-0.074207,-0.008292,-7.535708,-86.413714,16.785465
339939,-0.114557,-0.033817,0.016321,-7.778399,-86.432714,16.962786
340039,-0.121423,-0.001353,0.047228,-8.266754,-86.430723,17.382303
340139,-0.118384,0.017058,0.071595,-8.947574,-86.415921,17.99641
340239,-0.087113,0.023605,0.085131,-9.71663,-86.395655,18.716891
340339,-0.054697,-0.002535,0.098953,-10.625254,-86.388058,19.595841
340439,-0.021713,-0.05702,0.111002,-11.718128,-86.408773,20.678336
340539,0.012085,-0.114808,0.110619,-12.918979,-86.460505,21.888375
340639,0.046805,-0.170721,0.103328,-14.197441,-86.542703,23.196011
340739,0.071546,-0.219983,0.093701,-15.561969,-86.651711,24.603929
340839,0.089597,-0.256193,0.08902,-17.070225,-86.779228,26.165993
340939,0.106617,-0.267642,0.084228,-18.68376,-86.911313,27.84305
341039,0.114609,-0.260359,0.080002,-20.3648,-87.037531,29.592075
341139,0.103612,-0.251418,0.07192,-22.076221,-87.157831,31.364996
341239,0.082644,-0.254652,0.067183,-23.913863,-87.278029,33.252053
341339,0.065079,-0.233062,0.060803,-25.739043,-87.385502,35.116362
341439,0.064986,-0.165421,0.061232,-27.317347,-87.455504,36.733345
341539,0.074454,-0.075901,0.073724,-28.555799,-87.474959,38.015509
341639,0.08958,-0.00098,0.09195,-29.527389,-87.450647,39.039225
341739,0.106966,0.053518,0.112997,-30.349285,-87.392478,39.923103
341839,0.127039,0.096829,0.127004,-30.994647,-87.308293,40.641826
341939,0.145148,0.122875,0.140714,-31.564412,-87.206861,41.295311
342039,0.146063,0.130387,0.151873,-32.151897,-87.09803,41.967127
342139,0.113505,0.126998,0.160894,-32.814167,-86.987662,42.695213
342239,0.028654,0.123707,0.172207,-33.592299,-86.874842,43.490712
342339,-0.104748,0.136791,0.177417,-34.358265,-86.753584,44.197544
342439,-0.243529,0.167893,0.172856,-34.937986,-86.618735,44.638233
342539,-0.327972,0.240868,0.153847,-34.98931,-86.455755,44.50112
342639,-0.295461,0.372387,0.13891,-34.261475,-86.235562,43.601875
342739,-0.193284,0.49759,0.132688,-32.962803,-85.95653,42.188881
342839,-0.006987,0.601112,0.130096,-31.311148,-85.625536,40.528464
342939,0.167233,0.678512,0.138434,-29.58157,-85.250278,38.88927
343039,0.256048,0.734414,0.197965,-28.217382,-84.826996,37.667022
343139,0.212093,0.767085,0.265094,-27.335612,-84.367208,36.903242
343239,0.067158,0.789306,0.301366,-26.779385,-83.885833,36.382652
343339,-0.109799,0.710442,0.301187,-26.574512,-83.444717,36.11312
343439,-0.214197,0.425941,0.242388,-26.811411,-83.164636,36.227962
343539,-0.216034,0.05597,0.131723,-27.364045,-83.102349,36.659778
343639,-0.183468,-0.235881,0.036294,-28.139757,-83.213157,37.335019
343739,-0.132985,-0.4439,-0.022453,-29.154968,-83.443624,38.28025
343839,-0.095867,-0.591414,-0.083982,-30.330022,-83.762981,39.407184
343939,-0.070123,-0.655355,-0.141394,-31.527964,-84.128104,40.571215
344039,-0.017672,-0.620683,-0.196743,-32.463161,-84.490852,41.500642
344139,0.083099,-0.506426,-0.222202,-32.939049,-84.805193,42.026224
344239,0.188664,-0.301605,-0.220341,-32.684948,-85.020168,41.879455
344339,0.272793,-0.082483,-0.204593,-31.66396,-85.123856,41.011392
344439,0.322539,0.100345,-0.184909,-30.060993,-85.130057,39.587941
344539,0.347889,0.219563,-0.163015,-28.190967,-85.066788,37.910985
344639,0.343291,0.26486,-0.128378,-26.440906,-84.966859,36.351609
344739,0.299224,0.254028,-0.079794,-25.091294,-84.856818,35.168668
344839,0.238421,0.224754,-0.025741,-24.211606,-84.747143,34.422398
344939,0.160496,0.197035,-0.004132,-23.597886,-84.646194,33.898255
345039,0.039394,0.154638,-0.030237,-23.029024,-84.573087,33.349376
345139,-0.078723,0.078183,-0.072549,-22.482975,-84.54935,32.755368
345239,-0.165875,-0.008811,-0.103727,-22.012975,-84.578069,32.187579
345339,-0.217113,-0.067597,-0.116776,-21.623956,-84.640449,31.671676
345439,-0.252235,-0.105389,-0.12126,-21.302935,-84.723597,31.203914
345539,-0.275641,-0.1273,-0.125418,-21.007456,-84.819031,30.748404
345639,-0.300877,-0.13097,-0.133013,-20.674999,-84.917685,30.241327
345739,-0.314892,-0.110066,-0.149319,-20.186397,-85.007983,29.569526
345839,-0.314968,-0.071617,-0.173077,-19.441986,-85.081469,28.641012
345939,-0.285669,-0.027818,-0.183072,-18.498339,-85.131843,27.529484
346039,-0.232037,0.004234,-0.17808,-17.470368,-85.162189,26.364253
346139,-0.176432,0.003737,-0.1602,-16.5152,-85.188073,25.304119
346239,-0.130959,-0.034966,-0.137008,-15.748162,-85.230204,24.458985
346339,-0.106949,-0.090541,-0.113522,-15.21123,-85.298605,23.858628
346439,-0.105365,-0.130549,-0.087753,-14.905575,-85.38491,23.491301
346539,-0.116491,-0.147491,-0.058643,-14.828672,-85.476181,23.347114
346639,-0.144107,-0.147685,-0.030322,-14.966092,-85.563348,23.402064
346739,-0.178534,-0.145928,3.4e-05,-15.344688,-85.644919,23.679123
346839,-0.201067,-0.143172,0.031216,-15.97331,-85.719888,24.193956
346939,-0.202584,-0.138775,0.053309,-16.77852,-85.788294,24.884959
347039,-0.196637,-0.133785,0.065497,-17.685135,-85.851032,25.681013
347139,-0.191265,-0.121332,0.059975,-18.541187,-85.906967,26.429413
347239,-0.182153,-0.078449,0.048138,-19.209172,-85.941021,26.994475
347339,-0.178083,-0.003114,0.025794,-19.509362,-85.938161,27.193151
347439,-0.173524,0.054123,0.002356,-19.474942,-85.908769,27.059001
347539,-0.156667,0.073413,-0.021461,-19.202888,-85.873393,26.696288
347639,-0.10334,0.08587,-0.052603,-18.642229,-85.836822,26.074836
347739,-0.023941,0.084078,-0.089487,-17.777024,-85.80723,25.193623
347839,0.04159,0.054991,-0.119729,-16.727479,-85.797587,24.16521
347939,0.087438,0.006137,-0.127327,-15.703632,-85.814641,23.188926
348039,0.128482,-0.019631,-0.113963,-14.802842,-85.842689,22.359659
348139,0.183499,0.004639,-0.103889,-13.891398,-85.854844,21.551365
348239,0.236077,0.063258,-0.093076,-12.925446,-85.831893,20.718651
348339,0.241778,0.125968,-0.08109,-11.956954,-85.771292,19.886648
348439,0.205113,0.169268,-0.065992,-11.084815,-85.68356,19.130139
348539,0.162403,0.194203,-0.048475,-10.364259,-85.578968,18.501028
348639,0.121232,0.260243,-0.026404,-9.773745,-85.434166,17.978586
348739,0.073795,0.423241,-0.013047,-9.154073,-85.195397,17.399456
348839,0.039345,0.578414,-0.021921,-8.404831,-84.868912,16.670183
348939,0.001823,0.678269,-0.029754,-7.637767,-84.485615,15.900983
349039,-0.048792,0.737328,-0.055337,-6.818133,-84.069768,15.049259
349139,-0.118901,0.693875,-0.100799,-5.936389,-83.680582,14.094024
349239,-0.213179,0.460503,-0.122018,-5.212652,-83.424594,13.242834
349339,-0.270448,0.055238,-0.12747,-4.710638,-83.399538,12.581565
349439,-0.277535,-0.332471,-0.103841,-4.479861,-83.59463,12.189313
349539,-0.248686,-0.57033,-0.066122,-4.507143,-83.924033,12.073475
349639,-0.130234,-0.666666,-0.047537,-4.608079,-84.307766,12.099969
349739,0.03928,-0.601693,-0.039439,-4.633828,-84.654072,12.148462
349839,0.114828,-0.399123,-0.045116,-4.477278,-84.88494,12.057305
349939,0.088385,-0.162394,-0.031037,-4.298012,-84.979905,11.928131
350039,0.021666,-0.017532,0.005671,-4.32147,-84.99051,11.964082
350139,-0.015385,0.026278,0.033093,-4.52247,-84.974902,12.15694
350239,-0.054466,0.063227,0.034841,-4.736036,-84.938106,12.339938
350339,-0.121497,0.091527,0.070579,-5.197341,-84.883369,12.733114
350439,-0.221358,0.074527,0.148243,-6.207275,-84.833559,13.619728
350539,-0.328031,-0.016639,0.228662,-7.837375,-84.828236,15.06772
350639,-0.400737,-0.134332,0.27174,-9.900122,-84.881607,16.908236
350739,-0.421488,-0.225817,0.272526,-12.141941,-84.980156,18.916376
350839,-0.334244,-0.257455,0.242959,-14.276341,-85.093397,20.86654
350939,-0.159689,-0.250159,0.186019,-16.015878,-85.205352,22.520459
351039,0.020547,-0.222831,0.131317,-17.308374,-85.307526,23.829158
351139,0.14458,-0.196691,0.087079,-18.227774,-85.401031,24.83464
351239,0.192736,-0.184665,0.061078,-18.951318,-85.491541,25.671186
351339,0.175677,-0.186645,0.050539,-19.647323,-85.584256,26.470189
351439,0.116752,-0.201869,0.054594,-20.477878,-85.683504,27.370156
351539,0.056541,-0.21751,0.069313,-21.53413,-85.786927,28.46172
351639,0.020286,-0.217659,0.092475,-22.835094,-85.883703,29.777665
351739,0.006294,-0.201273,0.117781,-24.338965,-85.963677,31.288845
351839,0.033761,-0.188707,0.145983,-26.050741,-86.027188,33.024083
351939,0.069216,-0.192042,0.166498,-27.961354,-86.083184,34.97887
352039,0.115684,-0.205464,0.182459,-30.073297,-86.136703,37.162011
352139,0.157549,-0.23038,0.192666,-32.407311,-86.193602,39.591621
352239,0.194129,-0.260687,0.197742,-34.976284,-86.256324,42.277537
352339,0.219026,-0.290659,0.192308,-37.739313,-86.326424,45.172
352439,0.238758,-0.304407,0.177244,-40.570408,-86.398856,48.145752
352539,0.255522,-0.302609,0.158597,-43.365019,-86.468318,51.092325
352639,0.257145,-0.295386,0.133778,-46.053326,-86.536,53.933091
352739,0.249727,-0.306828,0.113091,-48.799998,-86.608566,56.827839
352839,0.233672,-0.324461,0.100018,-51.727467,-86.68471,59.894238
352939,0.209579,-0.320542,0.095386,-54.740024,-86.752241,63.031795
353039,0.18985,-0.289898,0.102651,-57.656815,-86.797143,66.061923
353139,0.191964,-0.238832,0.118008,-60.265858,-86.811112,68.784942
353239,0.204839,-0.179181,0.133072,-62.409874,-86.794768,71.049594
353339,0.216003,-0.144346,0.150065,-64.27612,-86.75633,73.0425
353439,0.21319,-0.137517,0.160115,-66.07369,-86.707438,74.965086
353539,0.204987,-0.13627,0.165146,-67.825736,-86.652228,76.837459
353639,0.195628,-0.129047,0.164332,-69.453632,-86.592764,78.580201
353739,0.176634,-0.093073,0.164962,-70.713042,-86.52337,79.942999
353839,0.143118,-0.036542,0.175549,-71.474095,-86.436321,80.787365
353939,0.077746,0.007878,0.195343,-71.908844,-86.329999,81.267322
354039,-0.015273,0.028025,0.209033,-72.239243,-86.212512,81.589337
354139,-0.121634,0.039444,0.208866,-72.517171,-86.093104,81.797698
354239,-0.200723,0.104744,0.190301,-72.271435,-85.972599,81.43571
354339,-0.194714,0.244193,0.156071,-70.908264,-85.845195,79.956797
354439,-0.1095,0.417631,0.115826,-68.233973,-85.701077,77.211876
354539,0.056723,0.600003,0.087964,-64.346295,-85.518127,73.344936
354639,0.246886,0.765911,0.077269,-59.630394,-85.274084,68.75531
354739,0.343178,0.82613,0.11158,-55.146664,-84.966012,64.452293
354839,0.32674,0.821802,0.15708,-51.393301,-84.613021,60.871075
354939,0.243422,0.802371,0.193872,-48.37171,-84.232558,57.975012
355039,0.126988,0.674148,0.220073,-46.378003,-83.879056,56.04345
355139,0.028954,0.423407,0.189872,-45.451823,-83.633197,55.128185
355239,-0.002712,0.187945,0.100177,-45.125496,-83.517907,54.797965
355339,0.009749,0.020038,0.00603,-45.064159,-83.508775,54.741565
355439,-0.002361,-0.137366,-0.048426,-45.38186,-83.585458,55.059622
355539,-0.061998,-0.191524,-0.085327,-45.809818,-83.698824,55.454164
355639,-0.110148,-0.17636,-0.118652,-46.101384,-83.819656,55.683654
355739,-0.057996,-0.142104,-0.147202,-46.133929,-83.938624,55.682645
355839,0.059452,-0.121565,-0.159226,-45.972907,-84.054378,55.554688
355939,0.168054,-0.091332,-0.155216,-45.638757,-84.156329,55.315287
356039,0.228183,-0.046773,-0.166891,-45.033859,-84.244857,54.83844
356139,0.278044,-0.0377,-0.171451,-44.328662,-84.330942,54.289597
356239,0.3175,-0.017482,-0.163592,-43.533504,-84.404819,53.673165
356339,0.363293,0.031195,-0.153537,-42.541724,-84.453432,52.885605
356439,0.387501,0.105343,-0.129785,-41.334301,-84.459905,51.895352
356539,0.377372,0.183829,-0.114558,-39.900898,-84.424419,50.672176
356639,0.314241,0.229721,-0.108299,-38.382738,-84.363312,49.327366
356739,0.206939,0.238612,-0.127175,-36.839477,-84.301366,47.895381
356839,0.083302,0.200384,-0.156836,-35.387629,-84.263538,46.483928
356939,-0.025933,0.139532,-0.179947,-34.102183,-84.258612,45.176746
357039,-0.104374,0.100452,-0.185244,-32.959888,-84.271277,43.968271
357139,-0.16334,0.096044,-0.178892,-31.890719,-84.281768,42.799363
357239,-0.215312,0.116514,-0.162629,-30.867555,-84.275223,41.646778
357339,-0.253954,0.118023,-0.148863,-29.933237,-84.261929,40.561229
357439,-0.27915,0.107466,-0.145039,-29.066536,-84.251067,39.529121
357539,-0.287227,0.094949,-0.142111,-28.256711,-84.244133,38.549527
