SampleTimeFine,Gyr_X,Gyr_Y,Gyr_Z,Roll,Pitch,Yaw
287089,-0.05716,0.022574,-0.01793,-19.519583,-77.046799,19.05913
287189,-0.066411,0.026731,-0.025965,-19.473472,-77.041729,18.963396
287289,-0.067426,0.018717,-0.025205,-19.431274,-77.041978,18.878681
287389,-0.066929,0.008645,-0.016006,-19.423226,-77.046315,18.820232
287489,-0.064453,-0.006722,-0.008314,-19.445043,-77.057961,18.792125
287589,-0.066438,-0.015541,-0.002377,-19.488302,-77.071769,18.787136
287689,-0.067818,-0.020712,-0.000734,-19.541692,-77.087778,18.788916
287789,-0.06478,-0.014173,-0.002284,-19.58317,-77.100584,18.773828
287889,-0.05715,0.002557,-0.006685,-19.594345,-77.106065,18.748418
287989,-0.051571,0.028114,-0.009453,-19.579915,-77.10074,18.691329
288089,-0.050561,0.044129,-0.011529,-19.545234,-77.08566,18.613541
288189,-0.053621,0.054286,-0.008317,-19.504588,-77.062012,18.540105
288289,-0.058493,0.054673,-0.000258,-19.48948,-77.039233,18.481487
288389,-0.06709,0.054687,-0.001421,-19.477359,-77.01937,18.436856
288489,-0.060236,0.04886,0.00121,-19.469005,-76.997526,18.382923
288589,-0.050892,0.037727,-0.000833,-19.460812,-76.984231,18.341717
288689,-0.037939,0.040688,-0.00274,-19.439272,-76.969486,18.294334
288789,-0.023514,0.05237,0.000384,-19.409052,-76.951997,18.257031
288889,-0.017538,0.04667,0.008364,-19.39739,-76.93381,18.232077
288989,-0.0131,0.027833,0.01537,-19.415542,-76.924032,18.249313
289089,-0.002895,-0.004081,0.018182,-19.460046,-76.930756,18.294277
289189,0.007353,-0.030905,0.013337,-19.509077,-76.955656,18.363336
289289,0.016471,-0.045419,0.000305,-19.535785,-76.989637,18.419728
289389,0.033769,-0.04522,-0.009045,-19.526007,-77.024437,18.455214
289489,0.055639,-0.031111,-0.015913,-19.477026,-77.053862,18.462322
289589,0.082075,-0.017375,-0.020419,-19.391128,-77.075852,18.444876
289689,0.10577,-0.005688,-0.023966,-19.270106,-77.091554,18.411685
289789,0.112263,0.005608,-0.027734,-19.130225,-77.104112,18.359368
289889,0.107902,0.004487,-0.024528,-18.996173,-77.11775,18.329401
289989,0.09727,-0.015779,-0.018786,-18.901832,-77.143001,18.327894
290089,0.093795,-0.034467,-0.015206,-18.834874,-77.176748,18.341134
290189,0.090937,-0.04773,-0.018118,-18.768558,-77.218061,18.361849
290289,0.087496,-0.042298,-0.021129,-18.690836,-77.257927,18.375083
290389,0.07916,-0.024309,-0.02759,-18.587143,-77.288073,18.359276
290489,0.073975,-0.009948,-0.029385,-18.466205,-77.310798,18.326215
290589,0.072399,-0.007876,-0.02768,-18.35157,-77.333256,18.282453
290689,0.0782,-0.016971,-0.025676,-18.246211,-77.358505,18.247409
290789,0.083386,-0.026615,-0.022406,-18.154471,-77.387141,18.218954
290889,0.087689,-0.038529,-0.017534,-18.081948,-77.418022,18.208472
290989,0.08553,-0.050601,-0.016779,-18.021787,-77.454692,18.210212
291089,0.073894,-0.056168,-0.018273,-17.970311,-77.492072,18.2076
291189,0.059279,-0.052974,-0.020098,-17.921292,-77.527352,18.193069
291289,0.051128,-0.037089,-0.020006,-17.86531,-77.552574,18.162775
291389,0.044787,-0.023119,-0.018436,-17.806371,-77.569435,18.123202
291489,0.043192,-0.011573,-0.015348,-17.746722,-77.579325,18.081912
291589,0.041698,-0.004474,-0.008224,-17.699982,-77.584063,18.052748
291689,0.032349,-0.009169,-0.002638,-17.676101,-77.590379,18.041537
291789,0.029078,-0.020175,-0.002934,-17.66202,-77.602758,18.038422
291889,0.030255,-0.024137,0.001593,-17.661592,-77.616516,18.04995
291989,0.031324,-0.026895,-0.000806,-17.656747,-77.632194,18.057561
292089,0.027221,-0.027703,-0.001206,-17.653874,-77.648384,18.06478
292189,0.016565,-0.036635,-0.000255,-17.666608,-77.669284,18.081716
292289,2.90E-05,-0.044746,2.40E-05,-17.69605,-77.69456,18.106057
292389,-0.013458,-0.056112,0.005135,-17.755273,-77.725137,18.15297
292489,-0.015238,-0.04696,0.008973,-17.818021,-77.750034,18.20243
292589,-0.014906,-0.026513,0.009063,-17.864422,-77.763752,18.235336
292689,-0.02691,-0.017481,0.012078,-17.917989,-77.772009,18.268514
292789,-0.042169,-0.007096,0.01397,-17.976602,-77.774264,18.297887
292889,-0.0521,-0.00875,0.009522,-18.031054,-77.778202,18.317159
292989,-0.052092,-0.020451,0.005263,-18.084396,-77.789266,18.335291
293089,-0.059961,-0.024799,0.004443,-18.143828,-77.802837,18.355035
293189,-0.060797,-0.025209,0.003854,-18.20268,-77.816729,18.373689
293289,-0.0585,-0.02826,0.007625,-18.272346,-77.8316,18.404745
293389,-0.061151,-0.026312,0.008217,-18.343503,-77.845294,18.435758
293489,-0.069427,-0.022455,0.007423,-18.414262,-77.857024,18.461503
293589,-0.081979,-0.025982,0.004804,-18.488666,-77.871138,18.483618
293689,-0.09256,-0.025474,0.004103,-18.567059,-77.885095,18.50361
293789,-0.092235,-0.033842,0.002314,-18.648002,-77.903914,18.526403
293889,-0.082976,-0.045248,0.004163,-18.738294,-77.92857,18.564185
293989,-0.062066,-0.053373,0.00566,-18.827696,-77.957345,18.613297
294089,-0.045596,-0.053448,0.006341,-18.909787,-77.986013,18.664571
294189,-0.034958,-0.041787,0.002037,-18.964885,-78.009146,18.694475
294289,-0.030737,-0.022932,-0.004483,-18.984509,-78.023272,18.690593
294389,-0.031871,-0.006893,-0.014683,-18.964676,-78.030603,18.645726
294489,-0.028136,0.006613,-0.023032,-18.909507,-78.032155,18.56696
294589,-0.019028,0.009026,-0.023886,-18.84489,-78.032544,18.483869
294689,-0.006055,-0.003175,-0.021054,-18.790716,-78.039008,18.41909
294789,0.015776,-0.025257,-0.01927,-18.7478,-78.057111,18.378611
294889,0.036411,-0.037577,-0.019166,-18.703951,-78.08187,18.349275
294989,0.055764,-0.041474,-0.019353,-18.651764,-78.10877,18.32278
295089,0.071522,-0.026512,-0.018079,-18.580701,-78.1273,18.286214
295189,0.075662,-0.01232,-0.016252,-18.499513,-78.137788,18.241736
295289,0.072209,-0.011177,-0.012104,-18.429945,-78.146889,18.207113
295389,0.060175,-0.014516,-0.008878,-18.378425,-78.157217,18.183861
295489,0.045056,-0.026374,-0.006493,-18.351845,-78.173566,18.177225
295589,0.029465,-0.037256,-0.007813,-18.340078,-78.196069,18.176563
295689,0.019215,-0.050513,-0.010217,-18.339333,-78.226224,18.181126
295789,0.013157,-0.052303,-0.014455,-18.332483,-78.258116,18.175914
295889,0.012207,-0.042254,-0.018901,-18.305779,-78.285334,18.149868
295989,0.005807,-0.019972,-0.015558,-18.272099,-78.299826,18.112963
296089,-0.007432,-0.006204,-0.007639,-18.254863,-78.305397,18.085105
296189,-0.015298,-0.000414,-0.004008,-18.246668,-78.307157,18.061899
296289,-0.017656,-0.001849,-0.002135,-18.245979,-78.309373,18.044991
296389,-0.013789,-0.011736,-0.002662,-18.250285,-78.317068,18.035443
296489,-0.002351,-0.026428,-0.00478,-18.25523,-78.333129,18.033256
296589,0.009804,-0.040169,-0.005805,-18.26251,-78.35686,18.040544
296689,0.015653,-0.043008,-0.010733,-18.255924,-78.383011,18.037116
296789,0.012271,-0.03426,-0.007887,-18.251157,-78.403887,18.033581
296889,0.011956,-0.019377,-0.006141,-18.23815,-78.416342,18.021462
296989,0.005058,-0.000957,-0.004919,-18.216213,-78.418558,17.996138
297089,-0.011024,0.019938,-0.006776,-18.180267,-78.409736,17.947102
297189,-0.031309,0.033709,-0.00945,-18.136902,-78.393889,17.878634
297289,-0.0472,0.034075,-0.01063,-18.099367,-78.378042,17.806802
297389,-0.061811,0.031494,-0.007719,-18.080263,-78.363074,17.745253
297489,-0.068425,0.012114,-0.008197,-18.080504,-78.358741,17.699585
297589,-0.063692,0.004261,-0.003411,-18.097504,-78.357834,17.673787
297689,-0.045525,0.018512,0.004173,-18.111811,-78.347811,17.655902
297789,-0.023984,0.043341,0.008594,-18.104044,-78.323477,17.62807
297889,-0.01151,0.061974,0.005685,-18.065559,-78.28951,17.57616
297989,-0.009062,0.057193,0.00123,-18.018315,-78.258935,17.516724
298089,-0.017244,0.035345,-0.005642,-17.976572,-78.241476,17.458111
298189,-0.030888,0.008113,-0.010251,-17.953798,-78.239662,17.41089
298289,-0.040876,0.009576,-0.00831,-17.940607,-78.236701,17.367621
298389,-0.037779,0.040822,-0.009669,-17.895727,-78.216936,17.293803
298489,-0.038272,0.069482,-0.002999,-17.844706,-78.180357,17.213431
298589,-0.035675,0.07922,0.002387,-17.798505,-78.13751,17.139503
298689,-0.02657,0.067463,0.0051,-17.764298,-78.100592,17.083158
298789,-0.015258,0.03859,0.003423,-17.74341,-78.079719,17.047042
298889,-0.00491,0.009051,-0.000107,-17.73195,-78.075578,17.026622
298989,0.003926,-0.004672,-0.004412,-17.71564,-78.079675,17.00642
299089,0.007099,0.012218,-0.007579,-17.675378,-78.0751,16.963595
299189,-0.006579,0.050748,-0.013077,-17.597189,-78.050431,16.873993
299289,-0.026335,0.086938,-0.00858,-17.512829,-78.005188,16.766501
299389,-0.042789,0.096339,-0.000253,-17.452363,-77.953349,16.673779
299489,-0.05446,0.079439,0.007009,-17.431243,-77.909488,16.614431
299589,-0.058993,0.053672,0.008192,-17.43654,-77.879511,16.579423
299689,-0.055389,0.032883,0.004653,-17.447399,-77.861507,16.5522
299789,-0.049125,0.026639,-0.001096,-17.44505,-77.847904,16.515122
299889,-0.046417,0.029673,-0.007581,-17.42232,-77.833752,16.458775
299989,-0.051688,0.041291,-0.015137,-17.374362,-77.814534,16.373529
300089,-0.047489,0.051858,-0.014878,-17.316547,-77.789475,16.280661
300189,-0.032471,0.051289,-0.008716,-17.266448,-77.763658,16.204487
300289,-0.005737,0.051682,-0.00855,-17.20143,-77.737583,16.12872
300389,0.014587,0.041144,-0.008216,-17.134095,-77.717203,16.062497
300489,0.034886,0.017441,-0.009188,-17.071217,-77.709951,16.012743
300589,0.047988,-0.006953,-0.011944,-17.012757,-77.716512,15.975202
300689,0.049021,-0.004875,-0.014479,-16.945686,-77.722346,15.929464
300789,0.030071,0.025577,-0.016916,-16.860027,-77.711875,15.853603
300889,0.008302,0.053417,-0.012572,-16.776792,-77.685391,15.767457
300989,-0.00449,0.0532,-0.007019,-16.715321,-77.658088,15.696075
301089,-0.0144,0.035237,-0.005063,-16.678155,-77.640312,15.643744
301189,-0.012478,0.021573,-0.004727,-16.65106,-77.629978,15.60284
301289,0.000557,0.014603,-0.005604,-16.619557,-77.623611,15.565065
301389,0.023297,0.010273,-0.005974,-16.57738,-77.619676,15.529706
301489,0.036564,0.005229,-0.006655,-16.52969,-77.618617,15.496499
301589,0.037647,0.002704,-0.009263,-16.476754,-77.619358,15.458569
301689,0.028301,0.002771,-0.007424,-16.433732,-77.619752,15.425316
301789,0.01609,0.006376,-0.002053,-16.40848,-77.617286,15.403091
301889,0.001738,0.017279,0.001086,-16.391261,-77.608317,15.380659
301989,-0.015706,0.03133,-0.001309,-16.367716,-77.59201,15.341497
302089,-0.024221,0.042313,-0.00447,-16.333178,-77.570173,15.286063
302189,-0.030424,0.047271,-0.007676,-16.290732,-77.546121,15.218874
302289,-0.034255,0.045756,-0.007583,-16.252018,-77.522882,15.15325
302389,-0.035382,0.035196,-0.006132,-16.225367,-77.505213,15.099318
302489,-0.033856,0.020187,-0.00107,-16.221326,-77.494989,15.069439
302589,-0.026487,-0.000153,0.001228,-16.233447,-77.495585,15.060435
302689,-0.019719,-0.018527,-0.000247,-16.251289,-77.506522,15.061253
302789,-0.018144,-0.028725,-0.005084,-16.263585,-77.52384,15.057302
302889,-0.024613,-0.015642,-0.010665,-16.256187,-77.534852,15.029374
302989,-0.038685,0.004765,-0.017411,-16.22522,-77.535713,14.969042
303089,-0.057701,0.030967,-0.023475,-16.171146,-77.523113,14.873886
303189,-0.0728,0.049265,-0.024938,-16.109126,-77.500653,14.761727
303289,-0.086422,0.045728,-0.024144,-16.05972,-77.479989,14.654494
303389,-0.078709,0.046138,-0.020429,-16.015084,-77.458492,14.556675
303489,-0.054803,0.041661,-0.010873,-15.983799,-77.437935,14.486563
303589,-0.036712,0.023158,-0.006006,-15.967397,-77.426793,14.442319
303689,-0.007765,0.013827,-0.002049,-15.950814,-77.420164,14.414884
303789,0.001912,-0.00896,-0.000241,-15.949226,-77.425798,14.408491
303889,-0.011888,-0.02913,0.000721,-15.972172,-77.442385,14.419132
303989,-0.021945,-0.031758,0.001928,-16.005788,-77.460224,14.434805
304089,-0.016662,-0.010082,0.001191,-16.019207,-77.46624,14.43289
304189,-0.003167,0.012443,-0.001137,-16.003129,-77.46022,14.408681
304289,0.019353,0.016871,-0.003915,-15.96417,-77.4522,14.374253
304389,0.040207,7.20E-05,-0.00011,-15.934596,-77.452832,14.36168
304489,0.051135,-0.037896,0.004702,-15.937523,-77.473623,14.388812
304589,0.059391,-0.080368,0.005482,-15.967895,-77.517685,14.44889
304689,0.066307,-0.099209,0.00572,-16.008704,-77.572074,14.52369
304789,0.070597,-0.096132,0.006021,-16.046076,-77.624703,14.597464
304889,0.070297,-0.069522,0.007038,-16.067308,-77.662506,14.654521
304989,0.059517,-0.044345,0.008106,-16.079321,-77.686272,14.695812
305089,0.049027,-0.037986,0.014277,-16.108397,-77.705552,14.748408
305189,0.03617,-0.044813,0.020852,-16.166605,-77.727533,14.823272
305289,0.028609,-0.061166,0.024203,-16.249949,-77.757955,14.919411
305389,0.032345,-0.081035,0.026024,-16.351028,-77.798974,15.035867
305489,0.038836,-0.100376,0.031633,-16.478001,-77.849663,15.182591
305589,0.047292,-0.122735,0.033408,-16.622909,-77.912266,15.352574
305689,0.047334,-0.130702,0.031927,-16.771793,-77.979388,15.526596
305789,0.041932,-0.123819,0.032229,-16.92094,-78.042585,15.697675
305889,0.039837,-0.112354,0.032771,-17.065238,-78.099312,15.86253
305989,0.032449,-0.101553,0.036003,-17.214954,-78.149489,16.028559
306089,0.027305,-0.099023,0.040442,-17.378496,-78.19743,16.205664
306189,0.024072,-0.104706,0.049091,-17.572685,-78.246872,16.412137
306289,0.021694,-0.115178,0.05716,-17.800007,-78.300468,16.651005
306389,0.022494,-0.128115,0.06345,-18.056749,-78.359798,16.920315
306489,0.02236,-0.132596,0.066252,-18.327601,-78.42081,17.203877
306589,0.028089,-0.129491,0.064349,-18.59021,-78.48021,17.4823
306689,0.036312,-0.121529,0.059856,-18.831592,-78.535865,17.743802
306789,0.042562,-0.113741,0.059365,-19.06328,-78.587171,17.999013
306889,0.046234,-0.112934,0.060069,-19.296186,-78.637697,18.257566
306989,0.042797,-0.113012,0.064666,-19.545737,-78.687167,18.531041
307089,0.036008,-0.115195,0.072764,-19.825508,-78.735998,18.831314
307189,0.035026,-0.119503,0.079824,-20.131762,-78.785461,19.157948
307289,0.029835,-0.121661,0.085245,-20.460664,-78.834647,19.504556
307389,0.02586,-0.124079,0.085327,-20.797482,-78.884718,19.856821
307489,0.026392,-0.131297,0.081282,-21.133602,-78.939077,20.20859
307589,0.022967,-0.127256,0.074064,-21.450869,-78.99239,20.539058
307689,0.020785,-0.12048,0.066624,-21.744594,-79.043322,20.844189
307789,0.020353,-0.113714,0.056575,-22.006081,-79.092514,21.116169
307889,0.020498,-0.111434,0.054598,-22.261836,-79.140684,21.382345
307989,0.023661,-0.113852,0.055076,-22.522177,-79.189798,21.654985
308089,0.023067,-0.114452,0.053569,-22.781775,-79.239321,21.92647
308189,0.017854,-0.115167,0.056277,-23.055171,-79.288371,22.208901
308289,0.004691,-0.107049,0.060525,-23.340702,-79.331923,22.495945
308389,-0.00886,-0.094752,0.064107,-23.63127,-79.367919,22.780159
308489,-0.016556,-0.08662,0.066639,-23.925152,-79.398793,23.063215
308589,-0.018603,-0.084507,0.067319,-24.221108,-79.428127,23.347152
308689,-0.014383,-0.079212,0.065698,-24.504939,-79.45481,23.621186
308789,-0.004775,-0.071894,0.062779,-24.767022,-79.478134,23.878677
308889,0.002683,-0.073385,0.059366,-25.018355,-79.502839,24.129558
308989,0.024832,-0.057542,0.055379,-25.226017,-79.520107,24.348905
309089,0.045242,-0.03881,0.053987,-25.393789,-79.527881,24.53955
309189,0.043513,-0.040312,0.047093,-25.545479,-79.538033,24.712807
309289,0.045029,-0.045662,0.039679,-25.683026,-79.552707,24.872542
309389,0.042753,-0.061706,0.036562,-25.835308,-79.576358,25.045918
309489,0.041368,-0.066043,0.038993,-26.001882,-79.60154,25.233012
309589,0.045648,-0.054983,0.045319,-26.169372,-79.619329,25.423532
309689,0.058812,-0.036526,0.056628,-26.336023,-79.624661,25.620874
309789,0.067678,-0.030515,0.062512,-26.505856,-79.625302,25.826616
309889,0.074018,-0.040046,0.074447,-26.718824,-79.627636,26.079893
309989,0.070532,-0.059785,0.086799,-26.996338,-79.636666,26.396723
310089,0.061169,-0.086261,0.091649,-27.331274,-79.657622,26.766415
310189,0.041082,-0.117235,0.085007,-27.705855,-79.695666,27.164618
310289,0.023364,-0.132932,0.070817,-28.077114,-79.745001,27.549019
310389,0.010288,-0.130455,0.049605,-28.396289,-79.798424,27.872772
310489,0.006386,-0.121284,0.026421,-28.641805,-79.853289,28.119324
310589,0.016463,-0.118511,0.010617,-28.835283,-79.910947,28.318811
310689,0.025936,-0.122746,0.002305,-29.008653,-79.972918,28.503333
310789,0.028308,-0.130542,0.001843,-29.193954,-80.038814,28.701304
310889,0.027352,-0.128628,0.004197,-29.386001,-80.102972,28.905528
310989,0.018568,-0.1137,0.00621,-29.567127,-80.158991,29.09353
311089,0.011306,-0.091869,0.01058,-29.731213,-80.202792,29.260009
311189,0.00737,-0.071848,0.013817,-29.875212,-80.23563,29.403823
311289,0.015653,-0.061851,0.017664,-30.009926,-80.262336,29.543048
311389,0.028167,-0.064203,0.020043,-30.149153,-80.28946,29.694155
311489,0.047557,-0.088215,0.025702,-30.335304,-80.326758,29.904159
311589,0.06992,-0.118703,0.030433,-30.576352,-80.377597,30.182856
311689,0.086814,-0.129989,0.035379,-30.844641,-80.432327,30.498995
311789,0.095399,-0.126802,0.04463,-31.132878,-80.48249,30.840351
311889,0.094793,-0.128724,0.05946,-31.471792,-80.52885,31.232745
311989,0.089288,-0.13334,0.074455,-31.869921,-80.572515,31.681975
312089,0.089917,-0.147663,0.086833,-32.334534,-80.618787,32.198958
312189,0.100422,-0.172467,0.092317,-32.861042,-80.674588,32.784746
312289,0.130825,-0.200163,0.090875,-33.426208,-80.7432,33.427304
312389,0.170328,-0.217672,0.087547,-34.002656,-80.820161,34.104136
312489,0.205052,-0.219159,0.079463,-34.548948,-80.899353,34.770466
312589,0.213075,-0.218881,0.070103,-35.073029,-80.980468,35.418838
312689,0.199696,-0.209542,0.064943,-35.58025,-81.057992,36.042244
312789,0.164741,-0.186761,0.05457,-36.037228,-81.127572,36.594384
312889,0.121155,-0.152816,0.044909,-36.423686,-81.184091,37.049765
312989,0.0734,-0.122961,0.030855,-36.734535,-81.231232,37.400858
313089,0.037751,-0.110684,0.010007,-36.979486,-81.279634,37.664541
313189,0.013987,-0.124071,-0.013837,-37.199849,-81.342215,37.889521
313289,0.008968,-0.157558,-0.034955,-37.439876,-81.427234,38.131441
313389,0.015689,-0.207309,-0.051291,-37.748212,-81.540351,38.446289
313489,0.028553,-0.240395,-0.056584,-38.121143,-81.669976,38.833836
313589,0.04702,-0.248191,-0.054893,-38.520108,-81.80209,39.258324
313689,0.062463,-0.251239,-0.041059,-38.975018,-81.930111,39.748219
313789,0.088484,-0.254784,-0.021448,-39.501672,-82.051962,40.325568
313889,0.115272,-0.267776,-0.000908,-40.130511,-82.17114,41.021505
313989,0.145222,-0.282545,0.018769,-40.866423,-82.288246,41.842724
314089,0.167704,-0.290658,0.032122,-41.679302,-82.40225,42.754457
314189,0.183511,-0.290045,0.034264,-42.514216,-82.513379,43.69738
314289,0.188899,-0.284224,0.03273,-43.349943,-82.620816,44.644057
314389,0.178968,-0.274529,0.023673,-44.157995,-82.726034,45.556913
314489,0.169448,-0.247529,0.012808,-44.874702,-82.823003,46.372027
314589,0.164214,-0.221853,-0.000231,-45.488579,-82.913685,47.080347
314689,0.157853,-0.211645,-0.013634,-46.045395,-83.004871,47.727381
314789,0.152564,-0.226011,-0.025783,-46.631042,-83.105965,48.40029
314889,0.145443,-0.255214,-0.038021,-47.302777,-83.222686,49.15566
314989,0.136151,-0.283185,-0.043982,-48.08731,-83.351545,50.019082
315089,0.123098,-0.303567,-0.045911,-48.982426,-83.487444,50.986093
315189,0.119223,-0.298361,-0.049344,-49.887305,-83.62111,51.96047
315289,0.123484,-0.274071,-0.048107,-50.735126,-83.743624,52.87969
315389,0.133117,-0.260085,-0.046464,-51.559311,-83.858861,53.780514
315489,0.143761,-0.254401,-0.052096,-52.366863,-83.973208,54.670583
315589,0.152414,-0.253533,-0.058247,-53.177637,-84.088689,55.568725
315689,0.164036,-0.255673,-0.071185,-53.982236,-84.209508,56.4672
315789,0.17479,-0.253968,-0.080729,-54.776756,-84.332881,57.361591
315889,0.188937,-0.246333,-0.085023,-55.548809,-84.454512,58.241414
315989,0.190513,-0.23767,-0.089645,-56.297693,-84.574373,59.098742
316089,0.176197,-0.23185,-0.089131,-57.0624,-84.691035,59.963609
316189,0.15252,-0.226084,-0.086653,-57.854618,-84.803584,60.842367
316289,0.126549,-0.220944,-0.086325,-58.671341,-84.913257,61.730683
316389,0.11265,-0.216571,-0.08566,-59.510735,-85.020129,62.633659
316489,0.104616,-0.222457,-0.088605,-60.417246,-85.128903,63.599282
316589,0.09829,-0.238479,-0.093137,-61.45162,-85.242959,64.689474
316689,0.088944,-0.249415,-0.093169,-62.61133,-85.358166,65.899926
316789,0.078025,-0.246072,-0.091493,-63.820448,-85.469545,67.153533
316889,0.054407,-0.230141,-0.091407,-64.997606,-85.574791,68.361376
316989,0.034117,-0.19963,-0.093469,-66.025939,-85.672,69.408184
317089,0.017856,-0.175943,-0.094689,-66.938098,-85.763035,70.32907
317189,-0.002178,-0.146157,-0.101847,-67.662152,-85.850244,71.04978
317289,-0.027425,-0.114361,-0.105807,-68.181284,-85.932096,71.550515
317389,-0.058554,-0.074244,-0.107466,-68.427126,-86.006057,71.759415
317489,-0.086595,-0.031091,-0.112231,-68.347249,-86.07339,71.625757
317589,-0.11472,0.005556,-0.117404,-67.974414,-86.135589,71.182381
317689,-0.142245,0.049783,-0.121158,-67.239568,-86.189794,70.360457
317789,-0.171725,0.095229,-0.121182,-66.136301,-86.232784,69.152472
317889,-0.203191,0.120495,-0.11266,-64.855396,-86.263619,67.748511
317989,-0.212317,0.118631,-0.09633,-63.637007,-86.284435,66.402077
318089,-0.186432,0.098123,-0.079817,-62.618878,-86.300362,65.271311
318189,-0.130069,0.070244,-0.065224,-61.839656,-86.315135,64.412443
318289,-0.062964,0.046082,-0.055281,-61.247748,-86.330785,63.779939
318389,0.010811,0.018175,-0.050811,-60.847005,-86.351537,63.381486
318489,0.079649,-0.011825,-0.04651,-60.658096,-86.378364,63.234952
318589,0.133396,-0.037264,-0.041875,-60.659242,-86.409967,63.309824
318689,0.169553,-0.045813,-0.034968,-60.740386,-86.440487,63.485689
318789,0.197162,-0.050113,-0.028172,-60.873636,-86.468774,63.729658
318889,0.206426,-0.061278,-0.02162,-61.125767,-86.496826,64.098063
318989,0.178481,-0.077568,-0.016598,-61.556673,-86.526702,64.629514
319089,0.114995,-0.093661,-0.014338,-62.177965,-86.559503,65.315204
319189,0.005669,-0.098619,-0.010529,-62.933744,-86.591204,66.072785
319289,-0.119715,-0.088139,-0.007374,-63.69808,-86.618024,66.766859
319389,-0.226493,-0.070969,0.0033,-64.429204,-86.634543,67.366254
319489,-0.295258,-0.051129,0.016956,-65.086798,-86.638754,67.852391
319589,-0.297437,-0.054009,0.025746,-65.808066,-86.638787,68.400896
319689,-0.382888,0.017526,-0.004159,-65.822113,-86.637509,68.191758
319789,-0.312133,0.042534,-0.017596,-65.519649,-86.637368,67.706016
319889,-0.22796,-0.056091,-0.048949,-65.921772,-86.676914,67.97425
319989,-0.141092,-0.114022,-0.057456,-66.780046,-86.734101,68.749139
320089,-0.103145,-0.087301,-0.06326,-67.370639,-86.787841,69.277593
320189,-0.079811,-0.068755,-0.06609,-67.777585,-86.838778,69.635443
320289,-0.040349,-0.067,-0.07338,-68.128633,-86.893083,69.959916
320389,-0.018557,-0.065882,-0.074559,-68.463436,-86.947677,70.280596
320489,-0.005113,-0.064531,-0.073854,-68.791587,-87.001511,70.602314
320589,0.01229,-0.064042,-0.068586,-69.137541,-87.052326,70.951835
320689,0.034195,-0.056641,-0.067582,-69.408682,-87.101004,71.238993
320789,0.056247,-0.059476,-0.072528,-69.687432,-87.152844,71.546388
320889,0.060274,-0.065443,-0.088125,-69.977629,-87.21419,71.86749
320989,0.049301,-0.070865,-0.100594,-70.298336,-87.283246,72.212761
321089,0.02129,-0.090674,-0.109037,-70.849577,-87.360537,72.772655
321189,-0.020827,-0.113497,-0.109532,-71.733577,-87.441982,73.641379
321289,-0.038408,-0.110983,-0.108946,-72.65511,-87.522056,74.537466
321389,-0.027416,-0.089349,-0.106424,-73.356561,-87.59657,75.219477
321489,0.009962,-0.066872,-0.102983,-73.789622,-87.665266,75.654242
321589,0.050394,-0.053859,-0.098675,-74.061326,-87.729411,75.950684
321689,0.085979,-0.055923,-0.092247,-74.38422,-87.790263,76.318767
321789,0.10674,-0.085348,-0.085361,-75.176046,-87.851583,77.168037
321889,0.114304,-0.127321,-0.081653,-76.667141,-87.916034,78.721377
321989,0.121043,-0.179999,-0.081,-79.092254,-87.984466,81.21314
322089,0.128681,-0.243493,-0.080732,-82.740486,-88.053699,84.933009
322189,0.144341,-0.2991,-0.082663,-87.599007,-88.117034,89.872621
322289,0.150465,-0.344442,-0.088025,-93.569329,-88.167371,95.927888
322389,0.154564,-0.35262,-0.099298,-99.985455,-88.202133,102.431289
322489,0.161051,-0.34952,-0.110557,-106.569234,-88.220068,109.10595
322589,0.164503,-0.326378,-0.119565,-112.867647,-88.223878,115.496953
322689,0.173263,-0.280684,-0.123891,-118.413906,-88.220814,121.140376
322789,0.18553,-0.226232,-0.12016,-123.011999,-88.216425,125.842148
322889,0.200823,-0.172166,-0.11059,-126.653723,-88.214783,129.5958
322989,0.206967,-0.121412,-0.090665,-129.321082,-88.215648,132.378084
323089,0.19945,-0.083556,-0.071742,-131.237815,-88.218833,134.405017
323189,0.181522,-0.064325,-0.055294,-132.703432,-88.220552,135.970285
323289,0.160864,-0.046053,-0.042161,-133.771931,-88.222923,137.126344
323389,0.135161,-0.010769,-0.022132,-134.131952,-88.230655,137.558794
323489,0.101876,0.047377,0.003396,-133.400932,-88.250952,136.880554
323589,0.066463,0.121195,0.037296,-131.19562,-88.284847,134.70702
323689,0.041009,0.169846,0.07438,-127.727679,-88.316803,131.255721
323789,0.047719,0.179439,0.105819,-123.632625,-88.330541,127.180883
323889,-0.036644,0.249881,0.131192,-118.078,-88.342476,121.597467
323989,-0.051961,0.307508,0.152219,-111.293122,-88.339802,114.774438
324089,-0.064319,0.328014,0.156196,-104.224292,-88.314772,107.660102
324189,-0.075198,0.369316,0.154134,-96.696764,-88.269054,100.080384
324289,-0.070018,0.460786,0.171474,-88.017093,-88.18411,91.350583
324389,-0.063473,0.585968,0.201822,-78.299347,-88.031034,81.585269
324489,-0.037884,0.73681,0.243064,-68.279684,-87.777123,71.531313
324589,-0.004899,0.879045,0.283262,-59.16706,-87.408773,62.402033
324689,0.0306,0.965963,0.323503,-51.953354,-86.942809,55.191398
324789,0.01982,0.97713,0.352666,-46.820874,-86.424907,50.056052
324889,-0.015274,0.922902,0.363831,-43.389855,-85.903971,46.602977
324989,-0.040092,0.786594,0.351114,-41.325707,-85.435374,44.50433
325089,-0.078771,0.572522,0.305675,-40.347681,-85.072677,43.472105
325189,-0.105897,0.322943,0.225928,-40.140661,-84.847858,43.197813
325289,-0.097967,0.050216,0.151217,-40.68657,-84.769889,43.684026
325389,-0.040244,-0.170798,0.103514,-41.875344,-84.804501,44.848964
325489,-0.007519,-0.311972,0.059761,-43.475361,-84.91303,46.445442
325589,0.021433,-0.368446,0.013722,-45.177086,-85.058997,48.160312
325689,0.05949,-0.362042,-0.01717,-46.782954,-85.210754,49.800475
325789,0.118501,-0.292715,-0.024142,-48.062422,-85.335004,51.146765
325889,0.184739,-0.161605,-0.01977,-48.685052,-85.405586,51.872047
325989,0.249896,0.000775,-0.006503,-48.473985,-85.408676,51.798486
326089,0.313141,0.173805,0.007694,-47.385241,-85.339207,50.880871
326189,0.371802,0.31385,0.012013,-45.62028,-85.210866,49.318465
326289,0.42378,0.390079,0.017045,-43.588187,-85.045198,47.517631
326389,0.456545,0.379361,0.023693,-41.741059,-84.876393,45.920952
326489,0.458662,0.328611,0.036302,-40.26664,-84.720827,44.699369
326589,0.438742,0.272813,0.067517,-39.239628,-84.576064,43.915385
326689,0.396332,0.226447,0.096648,-38.587837,-84.44048,43.483729
326789,0.313166,0.193605,0.081769,-38.058335,-84.324573,43.126947
326889,0.19213,0.157308,0.041138,-37.558612,-84.239095,42.730309
326989,0.10837,0.11407,0.011432,-37.133394,-84.183335,42.360274
327089,0.084938,0.064216,0.000385,-36.84653,-84.153967,42.11581
327189,0.074455,0.012986,-0.009355,-36.695341,-84.151348,42.001703
327289,0.089127,-0.032651,-0.014222,-36.666435,-84.171334,42.018988
327389,0.112064,-0.070475,-0.03096,-36.675983,-84.214415,42.088145
327489,0.134997,-0.095123,-0.048522,-36.676583,-84.27482,42.161518
327589,0.15888,-0.078414,-0.070814,-36.503233,-84.335152,42.073832
327689,0.180704,-0.054492,-0.09487,-36.118629,-84.392554,41.78644
327789,0.181239,-0.032046,-0.118643,-35.535728,-84.447263,41.300138
327889,0.171675,-0.03524,-0.14119,-34.8485,-84.510388,40.703556
327989,0.153573,-0.063611,-0.162716,-34.145565,-84.5932,40.08084
328089,0.134873,-0.101686,-0.176431,-33.49188,-84.697809,39.496911
328189,0.102938,-0.13626,-0.177872,-32.942741,-84.818868,38.999695
328289,0.07288,-0.164852,-0.175522,-32.498387,-84.952579,38.590502
328389,0.047678,-0.182422,-0.163892,-32.173554,-85.090971,38.286903
328489,0.03409,-0.192563,-0.145939,-31.980013,-85.228679,38.10737
328589,0.030377,-0.198359,-0.124,-31.931079,-85.362487,38.070912
328689,0.039067,-0.207051,-0.105031,-32.025326,-85.494723,38.183187
328789,0.043752,-0.215085,-0.097685,-32.202008,-85.628556,38.380916
328889,0.051385,-0.225674,-0.096516,-32.437904,-85.76706,38.64247
328989,0.056125,-0.227148,-0.104097,-32.643358,-85.908499,38.876257
329089,0.051578,-0.197487,-0.11473,-32.660184,-86.038848,38.918361
329189,0.044917,-0.140972,-0.124464,-32.353719,-86.144864,38.632632
329289,0.031748,-0.084089,-0.133807,-31.707208,-86.225898,37.998604
329389,0.021016,-0.033276,-0.132957,-30.814321,-86.281193,37.11159
329489,0.018756,-0.005823,-0.136414,-29.747407,-86.322878,36.048976
329589,0.029373,0.011596,-0.135314,-28.584013,-86.35417,34.895874
329689,0.046282,0.025007,-0.139597,-27.301196,-86.378217,33.632908
329789,0.068908,0.023922,-0.143247,-25.963674,-86.401897,32.328209
329889,0.098347,-0.004604,-0.143006,-24.704224,-86.438404,31.118749
329989,0.145203,-0.054952,-0.138534,-23.619287,-86.498615,30.111183
330089,0.207013,-0.09163,-0.135826,-22.621616,-86.576395,29.226701
330189,0.289874,-0.083636,-0.130689,-21.55128,-86.647837,28.317185
330289,0.38197,-0.046397,-0.114784,-20.404202,-86.695021,27.38385
330389,0.40807,-0.009737,-0.106305,-19.171525,-86.719634,26.3799
330489,0.34784,0.013779,-0.099862,-17.945498,-86.729011,25.348151
330589,0.264376,0.035503,-0.10513,-16.647448,-86.726039,24.196411
330689,0.189678,0.096527,-0.109446,-15.19198,-86.688476,22.844079
330789,0.103752,0.247119,-0.1258,-13.320558,-86.567284,21.02555
330889,0.035922,0.461753,-0.177105,-10.778729,-86.327841,18.495909
330989,-0.034727,0.659552,-0.198343,-8.178412,-85.97177,15.866111
331089,-0.120692,0.819044,-0.209414,-5.850361,-85.518514,13.458509
331189,-0.18217,0.878828,-0.216718,-3.917968,-85.025223,11.410904
331289,-0.211191,0.782927,-0.209356,-2.429535,-84.581868,9.790878
331389,-0.244844,0.520911,-0.20239,-1.264812,-84.285306,8.475707
331489,-0.291735,0.14548,-0.168556,-0.446025,-84.201535,7.480762
331589,-0.322357,-0.235113,-0.115641,0.040004,-84.334726,6.80261
331689,-0.327005,-0.510788,-0.093175,0.433602,-84.625503,6.214806
331789,-0.324006,-0.635474,-0.096443,0.920568,-84.987323,5.535178
331889,-0.320542,-0.62954,-0.103364,1.548055,-85.345083,4.716781
331989,-0.34973,-0.494569,-0.095114,2.174788,-85.624942,3.882647
332089,-0.390141,-0.258402,-0.067983,2.571999,-85.769654,3.255635
332189,-0.394261,-0.016592,-0.048756,2.751942,-85.77626,2.844148
332289,-0.412103,0.160777,-0.030074,2.709357,-85.681869,2.645531
332389,-0.428194,0.249512,-0.011498,2.486168,-85.537264,2.618799
332489,-0.449643,0.245027,0.015417,2.066538,-85.395923,2.776843
332589,-0.473258,0.16222,0.048947,1.434494,-85.302559,3.134525
332689,-0.487659,0.042024,0.080749,0.606294,-85.27809,3.680852
332789,-0.478296,-0.068983,0.098679,-0.336305,-85.316626,4.347399
332889,-0.432219,-0.154168,0.100994,-1.29458,-85.403089,5.056136
332989,-0.34632,-0.201786,0.087447,-2.149218,-85.516179,5.710187
333089,-0.242227,-0.20686,0.066558,-2.827838,-85.632019,6.247391
333189,-0.136182,-0.204676,0.042533,-3.292082,-85.746947,6.630427
333289,-0.055971,-0.196571,0.023103,-3.575513,-85.857733,6.878144
333389,-0.01187,-0.179024,0.004053,-3.684008,-85.959129,6.975728
333489,-0.003312,-0.158303,-0.00279,-3.724592,-86.048937,7.010087
333589,-0.03144,-0.134269,0.003324,-3.821224,-86.124789,7.084421
333689,-0.075031,-0.112327,0.018535,-4.063892,-86.187504,7.280041
333789,-0.113848,-0.107092,0.039572,-4.516016,-86.246268,7.663244
333889,-0.132041,-0.116906,0.059284,-5.17392,-86.309459,8.242178
333989,-0.122678,-0.13628,0.077935,-6.03396,-86.382174,9.028994
334089,-0.107181,-0.155989,0.089681,-7.048914,-86.464535,9.979871
334189,-0.076048,-0.176767,0.102308,-8.239492,-86.556599,11.124499
334289,-0.040111,-0.184713,0.106383,-9.525226,-86.651295,12.384985
334389,-0.001798,-0.189482,0.109511,-10.902358,-86.74662,13.758902
334489,0.030888,-0.191701,0.105697,-12.309002,-86.841697,15.181009
334589,0.058618,-0.194543,0.101949,-13.754684,-86.936854,16.657986
334689,0.083488,-0.217835,0.095162,-15.27401,-87.043818,18.222813
334789,0.095059,-0.249527,0.082247,-16.864596,-87.16803,19.865425
334889,0.094021,-0.280956,0.065669,-18.533021,-87.309894,21.585126
334989,0.09686,-0.308851,0.052272,-20.349502,-87.466819,23.454397
335089,0.096581,-0.313824,0.047935,-22.377475,-87.624372,25.534915
335189,0.084897,-0.29739,0.052211,-24.656385,-87.768866,27.859605
335289,0.06594,-0.257101,0.065333,-27.154607,-87.885294,30.392667
335389,0.057373,-0.198352,0.085761,-29.757323,-87.962154,33.025213
335489,0.044944,-0.127883,0.104214,-32.199559,-87.994667,35.489963
335589,0.048615,-0.058551,0.115464,-34.222635,-87.986994,37.537388
335689,0.052386,-0.022741,0.128493,-36.054504,-87.955832,39.395676
335789,0.054353,-0.021765,0.133429,-37.880112,-87.920442,41.248863
335889,0.040965,-0.003157,0.14081,-39.55441,-87.872075,42.942999
335989,0.003784,0.028005,0.147596,-40.943035,-87.80593,44.329985
336089,-0.042758,0.086197,0.154783,-41.791052,-87.711044,45.149312
336189,-0.11764,0.14014,0.158761,-42.157063,-87.591338,45.443311
336289,-0.202017,0.189548,0.15272,-42.051493,-87.452944,45.216867
336389,-0.288417,0.218174,0.143173,-41.69139,-87.305973,44.685965
336489,-0.373036,0.243638,0.133138,-41.143712,-87.1517,43.91858
336589,-0.379096,0.282848,0.133007,-40.388576,-86.980062,42.939812
336689,-0.278159,0.365733,0.155882,-39.313598,-86.76278,41.698434
336789,-0.085285,0.506501,0.189922,-37.716342,-86.468689,40.044277
336889,0.151544,0.657255,0.221546,-35.70519,-86.09154,38.110824
336989,0.354574,0.727801,0.273684,-33.960144,-85.660224,36.560024
337089,0.439486,0.707094,0.32987,-32.868828,-85.218457,35.71312
337189,0.394146,0.6694,0.369776,-32.304934,-84.781652,35.369201
337289,0.258371,0.634547,0.403308,-32.158325,-84.351334,35.366189
337389,0.115743,0.535195,0.423372,-32.48013,-83.96302,35.751947
337489,-0.002613,0.302012,0.406115,-33.405566,-83.691865,36.676881
337589,-0.060419,-0.016627,0.324762,-34.860358,-83.596058,38.101411
337689,-0.052235,-0.286542,0.224423,-36.673288,-83.654966,39.891027
337789,-0.022453,-0.477372,0.146474,-38.807226,-83.820876,42.020317
337889,0.012754,-0.639958,0.082331,-41.357552,-84.07217,44.587754
337989,0.049606,-0.76328,0.019415,-44.34429,-84.386482,47.613724
338089,0.102927,-0.784808,-0.030623,-47.535933,-84.713153,50.874573
338189,0.213185,-0.686083,-0.071444,-50.40273,-85.003472,53.87112
338289,0.363806,-0.475496,-0.088841,-52.301561,-85.214725,55.981708
338389,0.442115,-0.170241,-0.082848,-52.625189,-85.313111,56.556321
338489,0.449779,0.079692,-0.069323,-51.622709,-85.317723,55.804824
338589,0.404825,0.224333,-0.049227,-49.958734,-85.25958,54.363793
338689,0.356764,0.271565,-0.018461,-48.259893,-85.166941,52.860043
338789,0.323478,0.273889,0.021798,-46.813057,-85.052984,51.58988
338889,0.297032,0.276789,0.057458,-45.590939,-84.920656,50.52985
338989,0.261468,0.299365,0.079556,-44.446885,-84.768375,49.527474
339089,0.185703,0.309481,0.067291,-43.310228,-84.615062,48.488627
339189,0.069412,0.274242,0.018335,-42.225613,-84.493824,47.434827
339289,-0.025582,0.181433,-0.039037,-41.347109,-84.43248,46.533208
339389,-0.072377,0.083323,-0.079629,-40.707703,-84.427686,45.844802
339489,-0.08481,0.011218,-0.099149,-40.262542,-84.460953,45.344414
339589,-0.104136,-0.024813,-0.096544,-39.972266,-84.508732,44.988555
339689,-0.13622,-0.039433,-0.086294,-39.798515,-84.559025,44.731348
339789,-0.164288,-0.016631,-0.071655,-39.617398,-84.593818,44.450652
339889,-0.185188,0.032656,-0.055341,-39.332321,-84.600745,44.053565
339989,-0.185828,0.074653,-0.043548,-38.942635,-84.58451,43.551079
340089,-0.169026,0.090053,-0.046614,-38.474058,-84.562127,42.979037
340189,-0.144815,0.08125,-0.061148,-37.959777,-84.548393,42.375025
340289,-0.113273,0.039166,-0.088042,-37.455648,-84.562652,41.79938
340389,-0.089044,-0.004458,-0.11116,-36.981707,-84.604362,41.268042
340489,-0.071329,-0.035296,-0.132933,-36.494938,-84.667272,40.734079
340589,-0.066119,-0.05008,-0.137389,-36.024764,-84.738099,40.219865
340689,-0.064023,-0.056151,-0.132105,-35.589558,-84.80959,39.742066
340789,-0.049012,-0.060168,-0.119213,-35.215378,-84.878359,39.334278
340889,-0.032516,-0.07368,-0.098678,-34.980516,-84.946488,39.075945
340989,-0.01901,-0.092668,-0.080033,-34.90316,-85.017339,38.983576
341089,0.000266,-0.104247,-0.065337,-34.936989,-85.088792,39.013957
341189,0.031049,-0.103847,-0.061162,-34.975789,-85.158672,39.067074
341289,0.062388,-0.106016,-0.068439,-34.965617,-85.231947,39.0891
341389,0.070044,-0.110724,-0.075612,-34.929127,-85.309776,39.089151
341489,0.060868,-0.115915,-0.080317,-34.891118,-85.391577,39.082433
341589,0.053036,-0.117255,-0.087025,-34.822595,-85.476195,39.040626
341689,0.048496,-0.110026,-0.092581,-34.690575,-85.559213,38.932537
341789,0.050992,-0.107214,-0.102113,-34.481566,-85.643977,38.748689
341889,0.060108,-0.116405,-0.117972,-34.198586,-85.738153,38.49593
341989,0.076387,-0.117179,-0.141706,-33.742354,-85.84017,38.078837
342089,0.09948,-0.116372,-0.164402,-33.093754,-85.948664,37.482204
342189,0.142437,-0.149809,-0.180249,-32.424143,-86.077685,36.889277
342289,0.224671,-0.201039,-0.185406,-31.860174,-86.232678,36.449576
342389,0.322545,-0.21366,-0.185456,-31.255395,-86.393536,36.025291
342489,0.410432,-0.162827,-0.166556,-30.460299,-86.523483,35.460899
342589,0.445651,-0.06727,-0.139297,-29.364013,-86.597579,34.61511
342689,0.420592,0.048759,-0.112151,-27.938075,-86.604724,33.424798
342789,0.358731,0.147755,-0.081384,-26.382264,-86.551489,32.068888
342889,0.261366,0.207098,-0.066366,-24.820542,-86.461663,30.651083
342989,0.16505,0.308356,-0.073748,-22.968768,-86.317941,28.887159
343089,0.114506,0.482975,-0.109572,-20.471459,-86.084706,26.446842
343189,0.11792,0.63198,-0.149942,-17.593686,-85.770936,23.626223
343289,0.11782,0.685656,-0.193,-14.716237,-85.424825,20.80463
343389,0.102607,0.693396,-0.198364,-12.207126,-85.065359,18.342488
343489,0.073251,0.617551,-0.204889,-10.09763,-84.741373,16.263382
343589,0.001235,0.470953,-0.200479,-8.42462,-84.494024,14.580303
343689,-0.058427,0.255198,-0.18336,-7.179921,-84.363937,13.292703
343789,-0.055567,0.00417,-0.148647,-6.343951,-84.372137,12.417345
343889,-0.015588,-0.234363,-0.105642,-5.873849,-84.512665,11.932719
343989,0.071069,-0.408996,-0.088318,-5.537419,-84.751463,11.632362
344089,0.158664,-0.482419,-0.108723,-5.02869,-85.033033,11.209488
344189,0.185797,-0.423066,-0.146788,-4.152,-85.28199,10.433043
344289,0.12425,-0.310758,-0.175891,-2.963392,-85.466546,9.308457
344389,-0.000398,-0.146906,-0.16767,-1.773592,-85.555186,8.111187
344489,-0.106927,0.019612,-0.116802,-0.95935,-85.546101,7.229407
344589,-0.19356,0.139353,-0.058761,-0.615571,-85.467282,6.769661
344689,-0.261688,0.1719,-0.017294,-0.616504,-85.369472,6.61649
344789,-0.295467,0.115,0.029087,-0.967095,-85.303951,6.794699
344889,-0.307778,0.005325,0.089572,-1.75538,-85.300309,7.405022
344989,-0.322795,-0.093135,0.136091,-2.908503,-85.351125,8.372772
345089,-0.310284,-0.176273,0.160597,-4.295191,-85.446861,9.581964
345189,-0.268047,-0.206695,0.157585,-5.712537,-85.557722,10.846031
345289,-0.182406,-0.201269,0.13733,-6.991132,-85.664422,12.019979
345389,-0.085286,-0.186144,0.108561,-8.037692,-85.762844,13.016884
345489,-0.002112,-0.172823,0.080725,-8.850297,-85.854838,13.826858
345589,0.046901,-0.164562,0.064112,-9.527546,-85.942904,14.529178
345689,0.063078,-0.154911,0.057293,-10.156306,-86.025612,15.192088
345789,0.04763,-0.127922,0.057278,-10.77853,-86.092603,15.839492
345889,0.008809,-0.09945,0.062784,-11.442908,-86.142474,16.506783
345989,-0.056264,-0.067889,0.063254,-12.108982,-86.17406,17.138345
346089,-0.128519,-0.040706,0.072292,-12.85119,-86.188798,17.804673
346189,-0.19575,-0.038468,0.082528,-13.718489,-86.200315,18.557731
346289,-0.241966,-0.044011,0.093214,-14.718524,-86.212591,19.417252
346389,-0.257953,-0.059578,0.101635,-15.840533,-86.231144,20.389807
346489,-0.234425,-0.064187,0.11409,-17.074856,-86.248887,21.488404
346589,-0.189136,-0.057203,0.119502,-18.319667,-86.260311,22.623497
346689,-0.128236,-0.060148,0.118569,-19.537277,-86.271909,23.766289
346789,-0.079529,-0.097322,0.113055,-20.804682,-86.302972,24.986926
346889,-0.03759,-0.159174,0.106594,-22.224042,-86.366502,26.38385
346989,0.006747,-0.233012,0.103987,-23.919951,-86.467093,28.083197
347089,0.032187,-0.292754,0.102407,-25.934763,-86.595624,30.116426
347189,0.051039,-0.313843,0.100975,-28.181293,-86.730632,32.392298
347289,0.063304,-0.293701,0.095127,-30.451706,-86.85189,34.698821
347389,0.063421,-0.26111,0.082791,-32.598428,-86.955855,36.881269
347489,0.050925,-0.246702,0.069635,-34.689819,-87.052691,39.000914
347589,0.056505,-0.23802,0.059518,-36.764663,-87.14478,41.106997
347689,0.07992,-0.221015,0.058461,-38.825623,-87.22563,43.212443
347789,0.112139,-0.181254,0.061371,-40.700938,-87.284293,45.150384
347889,0.143575,-0.134463,0.065105,-42.285334,-87.31862,46.81504
347989,0.149103,-0.100309,0.07451,-43.698976,-87.332891,48.311898
348089,0.144924,-0.080832,0.08444,-45.045853,-87.333514,49.739514
348189,0.131969,-0.063232,0.098091,-46.358958,-87.319951,51.125901
348289,0.123444,-0.045197,0.117531,-47.659448,-87.28972,52.494794
348389,0.104657,-0.028272,0.140384,-48.966978,-87.241803,53.859999
348489,0.068485,-0.022871,0.16837,-50.408295,-87.178107,55.338454
348589,0.018122,-0.038105,0.191445,-52.110244,-87.107613,57.049044
348689,-0.041518,-0.057033,0.208198,-54.041504,-87.033298,58.955112
348789,-0.109042,-0.049879,0.216654,-55.902323,-86.94949,60.752003
348889,-0.150752,0.010052,0.208362,-57.11396,-86.848212,61.874945
348989,-0.141741,0.148977,0.192789,-56.987959,-86.710571,61.663397
349089,-0.053633,0.326303,0.189615,-55.411834,-86.517742,60.049709
349189,0.055568,0.502775,0.199851,-52.745594,-86.257393,57.406044
349289,0.158084,0.621355,0.224418,-49.761295,-85.935604,54.501606
349389,0.205456,0.667302,0.274176,-47.188807,-85.565817,52.036135
349489,0.211862,0.649972,0.313447,-45.275984,-85.179811,50.234962
349589,0.170338,0.584131,0.335357,-44.049787,-84.808007,49.098199
349689,0.104256,0.436473,0.332623,-43.606269,-84.496939,48.708918
349789,0.065964,0.234692,0.294594,-43.861808,-84.284425,48.999854
349889,0.062633,0.029298,0.2104,-44.564585,-84.189684,49.738457
349989,0.087217,-0.13568,0.137511,-45.601228,-84.19016,50.826861
350089,0.115383,-0.264788,0.091061,-46.975038,-84.258692,52.270293
350189,0.107258,-0.330636,0.056284,-48.538689,-84.36361,53.899593
350289,0.087512,-0.322466,0.015661,-49.981682,-84.478842,55.395979
350389,0.142143,-0.302276,-0.019506,-51.226304,-84.598859,56.72424
350489,0.221755,-0.21108,-0.039311,-51.961809,-84.693097,57.586746
350589,0.302794,-0.040786,-0.059395,-51.760581,-84.735747,57.555072
350689,0.341419,0.116893,-0.0771,-50.699182,-84.729696,56.681822
350789,0.368631,0.205794,-0.093746,-49.139739,-84.69631,55.324049
350889,0.378509,0.227652,-0.107064,-47.439937,-84.656743,53.830923
350989,0.373803,0.227666,-0.111776,-45.747503,-84.61505,52.342396
351089,0.349243,0.227379,-0.103472,-44.131757,-84.566118,50.916647
351189,0.320718,0.251253,-0.09348,-42.507902,-84.499533,49.466183
351289,0.289287,0.282924,-0.089928,-40.833631,-84.414101,47.946769
351389,0.240425,0.297807,-0.099364,-39.139957,-84.321343,46.379478
351489,0.151092,0.285196,-0.126589,-37.471774,-84.239464,44.786113
351589,0.040224,0.240901,-0.149643,-35.954673,-84.181454,43.280556
351689,-0.043487,0.166834,-0.15426,-34.729638,-84.155978,42.020266
351789,-0.068842,0.090494,-0.129597,-33.881512,-84.156353,41.124235
351889,-0.085796,0.050794,-0.099517,-33.305909,-84.165,40.492407
351989,-0.095128,0.040455,-0.07852,-32.864495,-84.171465,39.990118
352089,-0.089582,0.046381,-0.075559,-32.415142,-84.17375,39.483066
352189,-0.082706,0.046627,-0.088089,-31.901057,-84.179294,38.914931
352289,-0.062645,0.05554,-0.097934,-31.301171,-84.182875,38.27213
352389,-0.040425,0.072428,-0.110285,-30.579728,-84.181037,37.519955
352489,-0.017314,0.09051,-0.121013,-29.742912,-84.172288,36.665121
352589,0.011428,0.079926,-0.135722,-28.848773,-84.17164,35.769219
352689,0.028511,0.046629,-0.147677,-27.973662,-84.189623,34.902298
352789,0.020352,-0.009997,-0.157493,-27.194852,-84.237696,34.127526
352889,-0.004409,-0.070513,-0.16324,-26.542718,-84.317205,33.465896
352989,-0.024957,-0.116518,-0.157101,-26.033982,-84.418113,32.936638
353089,-0.041579,-0.141134,-0.143697,-25.651567,-84.527956,32.524829
353189,-0.054638,-0.14085,-0.121285,-25.383377,-84.631886,32.220329
353289,-0.065492,-0.133751,-0.09953,-25.213835,-84.726694,32.008726
353389,-0.080739,-0.129617,-0.077166,-25.16307,-84.813859,31.907672
353489,-0.092065,-0.127309,-0.063429,-25.189834,-84.896467,31.877978
353589,-0.09936,-0.115607,-0.055946,-25.232464,-84.971177,31.860035
353689,-0.103042,-0.088698,-0.055533,-25.204437,-85.031831,31.769064
353789,-0.102443,-0.05975,-0.061978,-25.053946,-85.079019,31.555532
353889,-0.102463,-0.053347,-0.06963,-24.835243,-85.124664,31.273551
353989,-0.100236,-0.07352,-0.073854,-24.64149,-85.18173,31.017919
354089,-0.093016,-0.119411,-0.078699,-24.538867,-85.263799,30.857925
354189,-0.065969,-0.17231,-0.08226,-24.547783,-85.37427,30.825428
354289,-0.024276,-0.229504,-0.080658,-24.716,-85.514145,30.976722
354389,0.016807,-0.263194,-0.070003,-25.050971,-85.668903,31.31886
354489,0.069069,-0.285176,-0.049188,-25.602441,-85.82973,31.908071
354589,0.117687,-0.280995,-0.032327,-26.279691,-85.983695,32.65122
354689,0.174598,-0.207139,-0.029909,-26.716439,-86.098638,33.185886
354789,0.23216,-0.093471,-0.036835,-26.653374,-86.157042,33.252626
354889,0.274899,0.012222,-0.041175,-26.127815,-86.162314,32.880396
354989,0.298229,0.06158,-0.053974,-25.307761,-86.144982,32.22642
355089,0.301689,0.093618,-0.067429,-24.276756,-86.113493,31.362985
355189,0.275517,0.12797,-0.085643,-23.023086,-86.066989,30.261284
355289,0.232188,0.240834,-0.120002,-21.220903,-85.965987,28.58473
355389,0.209138,0.411329,-0.161195,-18.773383,-85.776974,26.247588
355489,0.19387,0.534197,-0.197341,-16.032613,-85.51953,23.606875
355589,0.123092,0.572464,-0.214881,-13.448757,-85.234418,21.081893
355689,0.044518,0.473817,-0.24051,-11.161592,-84.999305,18.808524
355789,-0.031013,0.300475,-0.257174,-9.194218,-84.85666,16.812088
355889,-0.058153,0.040483,-0.229422,-7.737278,-84.853855,15.31231
355989,-0.066101,-0.289929,-0.179829,-6.849987,-85.032507,14.380039
356089,-0.076833,-0.505955,-0.140343,-6.331913,-85.330517,13.812447
356189,-0.051498,-0.641627,-0.123023,-5.959141,-85.704388,13.405413
356289,-0.069108,-0.659961,-0.145155,-5.352539,-86.089691,12.753999
356389,-0.119643,-0.550756,-0.174144,-4.294719,-86.413339,11.621623
356489,-0.217946,-0.440243,-0.194878,-2.817898,-86.672819,10.01339
356589,-0.313897,-0.271794,-0.15595,-1.510076,-86.832565,8.519689
356689,-0.368077,-0.087563,-0.086329,-0.819976,-86.884453,7.613695
356789,-0.427406,0.045485,-0.032708,-0.696911,-86.85936,7.241546
356889,-0.468014,0.069979,0.009128,-1.030345,-86.819919,7.303276
356989,-0.497198,0.02133,0.052408,-1.830893,-86.807703,7.816103
357089,-0.502453,-0.069801,0.09031,-3.064336,-86.846236,8.759481
357189,-0.475192,-0.174223,0.128816,-4.802058,-86.941593,10.223479
357289,-0.416616,-0.233197,0.153721,-6.95867,-87.066369,12.140417
357389,-0.358037,-0.250696,0.161992,-9.387118,-87.196299,14.362933
357489,-0.280872,-0.261631,0.155871,-11.945921,-87.328082,16.759976
357589,-0.215528,-0.270221,0.14609,-14.623577,-87.46058,19.313217
357689,-0.172636,-0.277094,0.137015,-17.467296,-87.59256,22.057009
357789,-0.138823,-0.262529,0.135319,-20.510525,-87.710714,25.019607
357889,-0.129346,-0.226903,0.13375,-23.628025,-87.80359,28.06173
357989,-0.133211,-0.198769,0.129282,-26.750063,-87.876347,31.105988
358089,-0.151391,-0.169101,0.121936,-29.754466,-87.929882,34.021957
358189,-0.181354,-0.135144,0.109117,-32.453341,-87.965173,36.614915
358289,-0.210239,-0.120539,0.10113,-35.011694,-87.991751,39.05063
358389,-0.237075,-0.136029,0.094072,-37.711242,-88.023908,41.612181
358489,-0.246646,-0.158957,0.087819,-40.668603,-88.064083,44.426143
358589,-0.237062,-0.179727,0.095701,-44.08169,-88.10461,47.701512
358689,-0.212287,-0.199977,0.10057,-47.936472,-88.144172,51.432941
358789,-0.17955,-0.200628,0.100084,-51.923263,-88.175739,55.315141
358889,-0.14253,-0.192514,0.101865,-55.903252,-88.195,59.211706
358989,-0.097377,-0.185935,0.10075,-59.808601,-88.20426,63.059449
359089,-0.061936,-0.173895,0.100621,-63.51761,-88.202256,66.731065
359189,-0.037515,-0.162112,0.098059,-66.974028,-88.191566,70.163972
359289,-0.034807,-0.158248,0.098052,-70.310682,-88.173692,73.478629
359389,-0.052872,-0.170612,0.102992,-73.817257,-88.149065,76.952965
359489,-0.079586,-0.188499,0.102874,-77.538977,-88.120063,80.627286
359589,-0.098047,-0.211047,0.105755,-81.533379,-88.083802,84.563906
359689,-0.101597,-0.228883,0.11078,-85.668845,-88.036667,88.639718
359789,-0.092969,-0.210889,0.120313,-89.297505,-87.974396,92.213488
359889,-0.062691,-0.15175,0.130815,-91.75099,-87.899924,94.628827
359989,-0.02301,-0.090897,0.146658,-93.083202,-87.815033,95.944985
360089,0.009636,-0.031057,0.162545,-93.420482,-87.722295,96.284259
360189,0.040588,0.00977,0.172805,-93.141724,-87.625019,96.024762
360289,0.080902,0.017599,0.18472,-92.749963,-87.521093,95.675268
360389,0.128285,0.00573,0.195954,-92.505597,-87.410344,95.500466
360489,0.161438,0.007812,0.212932,-92.226261,-87.28989,95.309658
360589,0.142877,0.041139,0.237916,-91.582975,-87.155696,94.743806
360689,0.076997,0.105491,0.264367,-90.320688,-87.006522,93.520277
360789,-0.043482,0.17727,0.287146,-88.501857,-86.842249,91.67008
360889,-0.170031,0.239537,0.293969,-86.327986,-86.669107,89.391315
360989,-0.243162,0.303234,0.294803,-83.826496,-86.487245,86.741923
361089,-0.202432,0.38907,0.291861,-80.80498,-86.293062,83.59429
361189,-0.049849,0.48126,0.292237,-77.25926,-86.077562,80.008162
361289,0.175585,0.561378,0.28167,-73.340063,-85.84117,76.176148
361389,0.390761,0.631731,0.291552,-69.268562,-85.568222,72.313833
361489,0.509215,0.627443,0.323052,-65.722502,-85.260941,69.045263
361589,0.495403,0.551809,0.351531,-63.128151,-84.944139,66.722524
361689,0.360929,0.399548,0.387503,-61.822506,-84.642851,65.615398
361789,0.221088,0.191968,0.426527,-61.88947,-84.376894,65.806229
361889,0.163957,-0.077164,0.407413,-63.265623,-84.191458,67.279976
361989,0.165265,-0.341766,0.320622,-65.673703,-84.111495,69.792147
362089,0.166211,-0.515597,0.224182,-68.706754,-84.109045,72.933326
362189,0.151879,-0.604465,0.151572,-72.081607,-84.144883,76.409753
362289,0.145135,-0.640947,0.087795,-75.599591,-84.200204,80.025883
362389,0.172707,-0.525463,0.007713,-78.423503,-84.264967,82.959909
362489,0.253817,-0.280645,-0.055089,-79.808139,-84.327691,84.493884
362589,0.337803,0.004197,-0.09891,-79.49653,-84.38436,84.371557
362689,0.346729,0.208171,-0.134458,-77.957242,-84.437957,83.020844
362789,0.31023,0.312751,-0.152204,-75.783949,-84.483557,81.012261
362889,0.280245,0.351903,-0.159522,-73.359273,-84.519417,78.734013
362989,0.285834,0.317395,-0.152814,-71.113497,-84.548726,76.638818
363089,0.317064,0.219921,-0.142564,-69.401487,-84.584469,75.097871
363189,0.345644,0.138632,-0.143138,-68.11036,-84.633569,73.996213
363289,0.342515,0.128791,-0.16113,-66.811775,-84.692013,72.885336
363389,0.286284,0.168725,-0.177632,-65.250214,-84.747217,71.478086
363489,0.186114,0.181058,-0.188885,-63.614864,-84.801564,69.939212
363589,0.084553,0.164721,-0.195045,-62.079199,-84.859432,68.442124
363689,0.001616,0.14685,-0.188151,-60.6799,-84.915267,67.034363
363789,-0.058844,0.127659,-0.171729,-59.446979,-84.965538,65.758968
363889,-0.123097,0.110283,-0.150898,-58.395263,-85.008469,64.628618
363989,-0.174021,0.096265,-0.131636,-57.501046,-85.044617,63.627159
364089,-0.199793,0.099509,-0.118515,-56.638093,-85.072098,62.642328
364189,-0.200701,0.120766,-0.109643,-55.681844,-85.087213,61.563389
364289,-0.188352,0.135423,-0.104173,-54.653917,-85.093345,60.419647
364389,-0.181341,0.131832,-0.103889,-53.640095,-85.098798,59.29412
364489,-0.185232,0.110832,-0.101776,-52.746751,-85.108885,58.287297
364589,-0.183597,0.07925,-0.113821,-51.965675,-85.134229,57.39412
364689,-0.174214,0.03713,-0.128045,-51.332713,-85.179998,56.655031
364789,-0.155216,0.01414,-0.147288,-50.714039,-85.241937,55.941264
364889,-0.134903,0.008806,-0.16488,-50.015732,-85.312896,55.159342
364989,-0.122799,0.010577,-0.177728,-49.218703,-85.387954,54.28542
365089,-0.114647,0.006742,-0.183737,-48.381376,-85.466024,53.375865
365189,-0.10636,-0.005475,-0.176573,-47.610705,-85.544693,52.53805
365289,-0.094287,-0.030192,-0.161919,-47.014425,-85.62599,51.882196
365389,-0.087857,-0.058111,-0.14485,-46.635166,-85.710656,51.447776
365489,-0.068723,-0.068436,-0.127313,-46.381064,-85.791908,51.149923
365589,-0.048266,-0.070499,-0.111884,-46.200942,-85.867491,50.938051
365689,-0.03782,-0.06175,-0.104574,-45.99771,-85.936519,50.709047
365789,-0.033134,-0.06176,-0.101286,-45.803189,-86.004132,50.491502
365889,-0.038926,-0.061873,-0.101471,-45.604495,-86.071806,50.266477
365989,-0.047117,-0.063679,-0.100225,-45.421429,-86.139635,50.05244
366089,-0.030947,-0.066221,-0.110971,-45.171962,-86.212803,49.781164
366189,0.017369,-0.077747,-0.132386,-44.821935,-86.299215,49.43689
366289,0.09662,-0.102426,-0.150543,-44.44872,-86.402847,49.114934
366389,0.213087,-0.136239,-0.160207,-44.143512,-86.524081,48.928033
366489,0.325937,-0.1537,-0.161091,-43.867126,-86.652793,48.834835
366589,0.406678,-0.117957,-0.139541,-43.437227,-86.758114,48.63426
366689,0.409457,-0.020179,-0.117299,-42.46425,-86.813582,47.891397
366789,0.350408,0.093552,-0.108056,-40.788817,-86.815828,46.411156
366889,0.282434,0.184419,-0.099251,-38.636607,-86.772026,44.41437
366989,0.239224,0.244422,-0.09483,-36.246746,-86.694969,42.154633
367089,0.258563,0.359541,-0.099767,-33.30199,-86.559398,39.349879
367189,0.29643,0.495925,-0.121254,-29.768172,-86.354503,35.976143
367289,0.322355,0.566327,-0.162401,-26.020381,-86.112135,32.401985
367389,0.331256,0.547562,-0.19472,-22.52956,-85.87287,29.089499
367489,0.292948,0.39665,-0.229748,-19.574947,-85.708941,26.291813
367589,0.180078,0.237565,-0.252969,-17.08248,-85.6262,23.892293
367689,0.098979,0.095192,-0.210951,-15.304694,-85.608424,22.162798
367789,0.046745,-0.12953,-0.151584,-14.415124,-85.703331,21.294165
367889,0.022971,-0.304413,-0.069464,-14.460584,-85.883074,21.349587
367989,0.087428,-0.420655,-0.035632,-14.995601,-86.122302,21.932746
368089,0.168594,-0.367306,-0.035651,-15.427388,-86.331701,22.458862
368189,0.269414,-0.312256,-0.074128,-15.366806,-86.516439,22.549362
368289,0.223234,-0.289457,-0.097382,-15.052466,-86.692093,22.359084
368389,0.058824,-0.215677,-0.088221,-14.70283,-86.825478,22.039088
368489,-0.107685,-0.113063,-0.059176,-14.44892,-86.897683,21.719416
368589,-0.235638,-0.025588,-0.028761,-14.34096,-86.916963,21.472471
368689,-0.324176,0.0065,-0.003471,-14.458585,-86.914845,21.400616
368789,-0.386505,0.017465,0.044272,-15.071807,-86.899716,21.789308
368889,-0.443544,0.005505,0.101832,-16.329808,-86.881928,22.79101
368989,-0.488426,-0.036461,0.15769,-18.29201,-86.876061,24.472229
369089,-0.507642,-0.10046,0.188094,-20.790879,-86.895375,26.679894
369189,-0.4743,-0.167279,0.195435,-23.650643,-86.942924,29.26806
369289,-0.401209,-0.234647,0.185148,-26.776758,-87.020593,32.164751
369389,-0.272306,-0.25053,0.165265,-29.874729,-87.103288,35.107015
369489,-0.142226,-0.255541,0.143349,-32.882906,-87.186824,38.033784
369589,-0.057505,-0.250934,0.129561,-35.848182,-87.264932,40.965992
369689,-0.029543,-0.242871,0.124434,-38.850207,-87.333658,43.950836
369789,-0.058701,-0.225499,0.117291,-41.805301,-87.390045,46.8718
369889,-0.123787,-0.201516,0.102004,-44.563895,-87.435636,49.558584
369989,-0.202331,-0.158486,0.083677,-46.888676,-87.466112,51.765967
370089,-0.259846,-0.115367,0.070024,-48.756062,-87.482188,53.482459
370189,-0.298768,-0.082305,0.068403,-50.320283,-87.484408,54.87314
370289,-0.321743,-0.060973,0.071486,-51.706001,-87.475994,56.071961
370389,-0.312544,-0.04653,0.078269,-52.98099,-87.458227,57.165225
370489,-0.274308,-0.048702,0.083667,-54.280226,-87.437627,58.304704
370589,-0.22099,-0.080607,0.091634,-55.921075,-87.422446,59.816737
370689,-0.154107,-0.128197,0.091944,-58.016334,-87.419777,61.822011
370789,-0.081392,-0.196897,0.095947,-60.848811,-87.431276,64.60695
370889,-0.007289,-0.265427,0.084821,-64.386443,-87.459535,68.140201
370989,0.055274,-0.31678,0.062207,-68.467052,-87.500924,72.252738
371089,0.119087,-0.335428,0.050109,-72.815621,-87.538999,76.669956
371189,0.158292,-0.325574,0.047969,-77.116273,-87.562266,81.061588
371289,0.184098,-0.292194,0.034712,-80.986466,-87.575927,85.037098
371389,0.173237,-0.240209,0.02516,-84.174691,-87.580767,88.323758
371489,0.147337,-0.193089,0.034715,-86.750064,-87.57103,90.982152
371589,0.11748,-0.137338,0.047692,-88.571948,-87.548264,92.869264
371689,0.105969,-0.06364,0.064185,-89.390286,-87.513461,93.745327
371789,0.09256,-0.021131,0.084693,-89.64107,-87.466356,94.045623
371889,0.082759,-0.011954,0.107509,-89.771588,-87.406108,94.219925
371989,0.090488,-0.018513,0.115825,-89.971747,-87.341082,94.468382
372089,0.126165,-0.021908,0.119876,-90.181568,-87.273694,94.746988
372189,0.159023,-0.010734,0.122646,-90.229517,-87.204715,94.882397
372289,0.173325,0.016704,0.129592,-89.950614,-87.131795,94.698764
372389,0.136354,0.055044,0.138042,-89.277563,-87.053818,94.099245
372489,0.034724,0.093216,0.164777,-88.289593,-86.959636,93.126006
372589,-0.114109,0.140306,0.190699,-86.967261,-86.848503,91.732391
372689,-0.246678,0.223457,0.207153,-84.994994,-86.722518,89.61154
372789,-0.295998,0.346663,0.216763,-82.042619,-86.578091,86.480264
372889,-0.240383,0.507036,0.209849,-77.861038,-86.410386,82.148855
372989,-0.102584,0.682754,0.199353,-72.518411,-86.201252,76.732192
373089,0.068265,0.847219,0.192894,-66.434208,-85.9287,70.668833
373189,0.168121,0.929271,0.223229,-60.683406,-85.578158,64.994862
373289,0.163431,0.941079,0.260962,-55.8916,-85.168628,60.277465
373389,0.136556,0.924659,0.289875,-52.07101,-84.723918,56.516687
373489,0.079172,0.815042,0.328744,-49.502071,-84.284017,53.977667
373589,0.032062,0.580482,0.328448,-48.255466,-83.924874,52.739124
373689,0.04984,0.266789,0.281195,-48.165884,-83.704272,52.673961
373789,0.119418,-0.026048,0.197454,-48.873772,-83.63081,53.451245
373889,0.205528,-0.242571,0.112238,-50.082055,-83.673667,54.781667
373989,0.231621,-0.3557,0.053852,-51.565063,-83.77996,56.40331
374089,0.179928,-0.328331,0.013158,-52.882975,-83.89072,57.828769
374189,0.15881,-0.230651,-0.01425,-53.745307,-83.977702,58.783662
374289,0.159106,-0.131739,-0.021778,-54.167664,-84.033682,59.296228
374389,0.179076,-0.030643,-0.010617,-54.169713,-84.050363,59.397699
374489,0.221729,0.028235,0.000625,-53.921584,-84.042038,59.272229
374589,0.291093,0.040129,-0.002046,-53.573148,-84.030844,59.085883
374689,0.360132,0.05341,-0.01792,-53.076055,-84.022253,58.789849
374789,0.408561,0.104985,-0.037172,-52.264972,-84.004164,58.205992
374889,0.456188,0.190675,-0.057933,-50.997265,-83.963828,57.190376
374989,0.471703,0.274936,-0.087845,-49.287212,-83.902965,55.738739
375089,0.461437,0.341999,-0.132952,-47.191368,-83.83074,53.892958
375189,0.40495,0.377379,-0.191375,-44.828115,-83.760916,51.745354
375289,0.309328,0.374353,-0.243897,-42.382412,-83.703441,49.459396
375389,0.187208,0.34182,-0.274986,-40.038208,-83.66136,47.204916
375489,0.075723,0.295073,-0.27608,-37.934053,-83.630905,45.127527
375589,-0.014374,0.23466,-0.250851,-36.189748,-83.611661,43.360184
375689,-0.070385,0.144776,-0.21316,-34.909235,-83.616585,42.027218
375789,-0.107209,0.063184,-0.17552,-34.042105,-83.645055,41.089027
375889,-0.132542,0.008631,-0.154095,-33.429184,-83.691346,40.392089
375989,-0.154511,0.000158,-0.133088,-32.935467,-83.734357,39.802495
376089,-0.169274,0.01149,-0.117388,-32.480556,-83.766499,39.243494
376189,-0.183671,0.028783,-0.09798,-32.067189,-83.783855,38.71803
376289,-0.19942,0.038691,-0.093753,-31.651895,-83.794693,38.181576
376389,-0.208727,0.042635,-0.101464,-31.1947,-83.80546,37.597627
376489,-0.2049,0.030443,-0.123889,-30.664278,-83.828276,36.942248
376589,-0.188108,0.00911,-0.150924,-30.052051,-83.868761,36.214304
376689,-0.162052,-0.009001,-0.177679,-29.338314,-83.924945,35.399355
376789,-0.141627,-0.043429,-0.187883,-28.639559,-84.000141,34.611348
376889,-0.131369,-0.088188,-0.180226,-28.069617,-84.094891,33.958901
376989,-0.120458,-0.138486,-0.153596,-27.73795,-84.207423,33.552405
377089,-0.104899,-0.185969,-0.119402,-27.68414,-84.334777,33.434235
377189,-0.083837,-0.223815,-0.087431,-27.885765,-84.472778,33.584901
377289,-0.070274,-0.222041,-0.060133,-28.229582,-84.60244,33.886206
377389,-0.065378,-0.179379,-0.039966,-28.569831,-84.704919,34.186709
377489,-0.075189,-0.121964,-0.029615,-28.811277,-84.775538,34.382319
377589,-0.087332,-0.0799,-0.030747,-28.930254,-84.825299,34.447956
377689,-0.107146,-0.064238,-0.047057,-28.922843,-84.871715,34.375294
377789,-0.104757,-0.071513,-0.073052,-28.789027,-84.928955,34.177107
377889,-0.077959,-0.119549,-0.10061,-28.628165,-85.017869,33.967213
377989,-0.038857,-0.203575,-0.119552,-28.595723,-85.154206,33.908751
378089,-0.003909,-0.286041,-0.124916,-28.783867,-85.333465,34.091768
378189,0.044418,-0.339082,-0.115913,-29.205108,-85.536715,34.536383
378289,0.1024,-0.336949,-0.100172,-29.730766,-85.734153,35.118957
378389,0.149758,-0.252576,-0.0893,-30.017982,-85.886237,35.48957
378489,0.181965,-0.114131,-0.088523,-29.748272,-85.969305,35.320331
378589,0.206735,0.023458,-0.096886,-28.842228,-85.985824,34.527448
378689,0.23492,0.068429,-0.101101,-27.71076,-85.979783,33.524793
378789,0.260301,-0.006585,-0.113784,-26.751454,-86.013986,32.709314
378889,0.239753,-0.081489,-0.129523,-25.943504,-86.089751,32.033776
378989,0.1895,-0.023876,-0.160451,-24.688813,-86.142394,30.881615
379089,0.180957,0.167277,-0.237445,-22.169674,-86.109471,28.45717
379189,0.129731,0.39713,-0.300245,-18.616138,-85.956954,24.966103
379289,0.045843,0.564246,-0.340777,-14.740411,-85.703995,21.102881
379389,-0.037577,0.555352,-0.376672,-11.114351,-85.44281,17.440815
379489,-0.127902,0.378515,-0.344243,-8.335225,-85.263087,14.575443
379589,-0.205604,0.025154,-0.267073,-6.588472,-85.269448,12.700966
379689,-0.215475,-0.324141,-0.189809,-5.610839,-85.466474,11.592734
379789,-0.140331,-0.520988,-0.156054,-4.874031,-85.772716,10.769583
379889,-0.00914,-0.671099,-0.175881,-3.856271,-86.164612,9.740475
379989,0.047268,-0.689887,-0.213071,-2.225025,-86.566645,8.129466
380089,-0.0112,-0.642809,-0.243449,0.125602,-86.938273,5.764985
380189,-0.120703,-0.467875,-0.209102,2.540718,-87.204242,3.273793
380289,-0.206204,-0.188043,-0.115594,3.953021,-87.308711,1.737911
380389,-0.274463,0.071974,-0.038988,4.227642,-87.266608,1.301877
380489,-0.324347,0.226575,0.022489,3.61958,-87.138609,1.720943
380589,-0.350721,0.27704,0.102757,2.138884,-86.983696,2.998731
380689,-0.396193,0.230718,0.174458,0.027861,-86.854127,4.88186
380789,-0.440823,0.127576,0.235741,-2.60556,-86.77879,7.262799
380889,-0.439824,-0.017589,0.270548,-5.601525,-86.778615,10.00755
380989,-0.399277,-0.16098,0.267974,-8.760213,-86.851892,12.938469
381089,-0.28667,-0.261819,0.241147,-11.930594,-86.975692,15.945451
381189,-0.14034,-0.306234,0.1977,-14.923872,-87.12115,18.85868
381289,-0.004047,-0.298455,0.165505,-17.746442,-87.259719,21.678813
381389,0.102834,-0.281326,0.146824,-20.50262,-87.385629,24.493465
381489,0.150259,-0.258199,0.147124,-23.387178,-87.492562,27.463542
381589,0.14293,-0.244877,0.152184,-26.507746,-87.584255,30.665387
381689,0.084277,-0.230683,0.148523,-29.756172,-87.661986,33.961324
381789,0.022455,-0.212493,0.140625,-33.013558,-87.725294,37.230568
381889,-0.024795,-0.197131,0.138883,-36.317517,-87.774301,40.519161
381989,-0.06354,-0.188733,0.138431,-39.694204,-87.812071,43.858194
382089,-0.084832,-0.174958,0.14061,-43.069772,-87.835456,47.183813
382189,-0.084552,-0.178569,0.145628,-46.599039,-87.850633,50.663351
382289,-0.063859,-0.199736,0.155223,-50.496436,-87.861204,54.523111
382389,-0.03986,-0.222759,0.16402,-54.767067,-87.865462,58.770108
382489,-0.016442,-0.234059,0.164553,-59.170569,-87.861,63.163499
382589,0.021608,-0.223702,0.166058,-63.377825,-87.840634,67.38236
382689,0.070308,-0.214476,0.161649,-67.303919,-87.809186,71.347852
382789,0.104463,-0.204942,0.151731,-70.901244,-87.771291,75.004003
382889,0.117363,-0.195383,0.152127,-74.225228,-87.723099,78.394104
382989,0.094936,-0.194562,0.156259,-77.413419,-87.665005,81.635555
383089,0.067577,-0.174138,0.156606,-80.177356,-87.59776,84.436831
383189,0.020693,-0.155378,0.155837,-82.562214,-87.52422,86.83192
383289,-0.031349,-0.152011,0.153521,-84.788881,-87.447759,89.038928
383389,-0.077796,-0.169445,0.15368,-87.126757,-87.368127,91.33073
383489,-0.110565,-0.147077,0.158439,-89.074406,-87.28154,93.213215
383589,-0.109677,-0.070443,0.165652,-90.005968,-87.188303,94.079068
383689,-0.086605,0.008378,0.172478,-89.97667,-87.090828,93.996163
383789,-0.065484,0.050981,0.175883,-89.474563,-86.991269,93.451927
383889,-0.035334,0.048351,0.174986,-89.016454,-86.892012,92.968999
383989,-0.01097,0.029611,0.176364,-88.765499,-86.792019,92.707476
384089,0.003016,0.038452,0.188485,-88.437688,-86.684888,92.376971
384189,-0.002142,0.076919,0.210736,-87.773283,-86.56413,91.706282
384289,-0.035569,0.13343,0.231458,-86.66413,-86.429348,90.570723
384389,-0.098662,0.181541,0.245198,-85.258379,-86.283288,89.101545
384489,-0.196722,0.217396,0.249987,-83.719249,-86.130186,87.442104
384589,-0.282381,0.262002,0.243357,-81.983588,-85.974614,85.536125
384689,-0.315545,0.344432,0.231472,-79.751469,-85.813827,83.112948
384789,-0.257142,0.459799,0.205338,-76.771175,-85.646518,79.97253
384889,-0.128313,0.588903,0.189591,-73.026294,-85.455183,76.1385
384989,0.042343,0.703424,0.192169,-68.776385,-85.220654,71.894762
385089,0.187288,0.762106,0.221624,-64.598803,-84.932572,67.805409
385189,0.256747,0.764635,0.258102,-60.938161,-84.601935,64.273232
385289,0.274741,0.659711,0.291144,-58.300962,-84.268232,61.777837
385389,0.266195,0.444143,0.319409,-57.012269,-83.978887,60.631848
385489,0.227508,0.17789,0.316608,-57.00758,-83.772662,60.754458
385589,0.203788,-0.063487,0.275538,-57.94268,-83.660542,61.808919
385689,0.209736,-0.238808,0.1861,-59.37432,-83.642092,63.366553
385789,0.198057,-0.347222,0.105739,-61.09115,-83.689741,65.204352
385889,0.149136,-0.368825,0.04293,-62.812374,-83.768876,67.018146
385989,0.139086,-0.362948,-0.020211,-64.410431,-83.873156,68.701946
386089,0.179038,-0.233487,-0.070513,-65.288553,-83.968051,69.684452
386189,0.260109,0.022321,-0.117458,-64.764075,-84.02512,69.303198
386289,0.34833,0.307951,-0.166192,-62.653201,-84.033798,67.377752
386389,0.400957,0.515493,-0.203255,-59.424823,-83.994122,64.358953
386489,0.419407,0.603226,-0.237055,-55.741835,-83.924925,60.893343
386589,0.440577,0.53687,-0.254837,-52.361982,-83.86398,57.744368
386689,0.414992,0.371103,-0.271463,-49.680337,-83.852596,55.282653
386789,0.34612,0.214751,-0.284456,-47.619212,-83.895121,53.405379
386889,0.272201,0.144932,-0.289642,-45.825989,-83.96049,51.755085
386989,0.209139,0.151456,-0.289797,-44.007592,-84.017757,50.043304
387089,0.138762,0.160864,-0.287857,-42.170367,-84.064597,48.272185
387189,0.071186,0.145207,-0.270342,-40.475459,-84.105868,46.60534
387289,0.011197,0.121144,-0.242384,-38.998686,-84.142737,45.123337
387389,-0.033052,0.077434,-0.216538,-37.794738,-84.186476,43.890197
387489,-0.086522,0.022028,-0.197263,-36.879363,-84.246429,42.916432
387589,-0.1394,-0.021686,-0.184806,-36.18073,-84.320866,42.130167
387689,-0.178149,-0.035368,-0.18099,-35.549416,-84.399454,41.389357
387789,-0.19944,-0.018108,-0.182169,-34.846945,-84.469493,40.564907
387889,-0.218652,0.004089,-0.177146,-34.086708,-84.526386,39.671468
387989,-0.248534,-0.007702,-0.163131,-33.436425,-84.583372,38.871376
388089,-0.288158,-0.038972,-0.146253,-32.983927,-84.649317,38.24723
388189,-0.318187,-0.069037,-0.13351,-32.702198,-84.725394,37.777389
388289,-0.317936,-0.087415,-0.127701,-32.502243,-84.808361,37.389872
388389,-0.300222,-0.101855,-0.128121,-32.32961,-84.898319,37.040038
388489,-0.276035,-0.110608,-0.132851,-32.137784,-84.993858,36.68491
388589,-0.248285,-0.105825,-0.132511,-31.904398,-85.086843,36.304089
388689,-0.217708,-0.089024,-0.123742,-31.632535,-85.168841,35.902306
388789,-0.179454,-0.077812,-0.105988,-31.391379,-85.239878,35.553401
388889,-0.141499,-0.073661,-0.089195,-31.204825,-85.303759,35.281168
388989,-0.112816,-0.071787,-0.074534,-31.077469,-85.362301,35.084873
389089,-0.095312,-0.053168,-0.062339,-30.942374,-85.408046,34.890917
389189,-0.085947,-0.015778,-0.04358,-30.777046,-85.42983,34.67205
389289,-0.092066,0.034584,-0.021056,-30.568834,-85.42014,34.40667
389389,-0.106313,0.074225,-0.008011,-30.307566,-85.386981,34.079881
389489,-0.120269,0.080687,-2.50E-05,-30.084389,-85.348199,33.783282
389589,-0.103942,0.053135,0.003596,-29.974163,-85.321969,33.609395
389689,-0.044198,0.014449,0.004248,-29.969876,-85.314731,33.576158
389789,0.047501,-0.013342,-0.003958,-29.960538,-85.323627,33.590592
389889,0.151388,-0.036018,-0.015817,-29.89908,-85.347164,33.612482
389989,0.23489,-0.074154,-0.021508,-29.889493,-85.391262,33.734447
390089,0.301165,-0.107401,-0.014469,-30.006373,-85.449832,34.021411
390189,0.341362,-0.116696,0.003446,-30.252547,-85.507772,34.461192
390289,0.351268,-0.056578,0.021139,-30.389372,-85.53073,34.796991
390389,0.335238,0.059292,0.027908,-30.150892,-85.494403,34.74714
390489,0.322272,0.159851,0.022853,-29.531812,-85.409494,34.308037
390589,0.300856,0.226839,0.010274,-28.64111,-85.294074,33.58404
390689,0.266341,0.299272,-0.005518,-27.485715,-85.145235,32.574424
390789,0.213558,0.427554,-0.042967,-25.837499,-84.938298,31.039478
390889,0.195965,0.553109,-0.077882,-23.811195,-84.670293,29.114168
390989,0.163451,0.581188,-0.113147,-21.741696,-84.389216,27.125859
391089,0.118024,0.560171,-0.108069,-19.959323,-84.112166,25.398994
391189,0.07192,0.510805,-0.066601,-18.653766,-83.849427,24.124179
391289,-0.031717,0.419593,-0.061999,-17.675997,-83.632949,23.118804
391389,-0.177794,0.289501,-0.062316,-17.033154,-83.486183,22.365902
391489,-0.234032,0.098205,-0.019222,-16.927759,-83.436526,22.121397
391589,-0.252416,-0.148607,-0.001347,-17.28087,-83.519108,22.327791
391689,-0.242679,-0.248632,-0.005176,-17.772313,-83.656853,22.678932
391789,-0.145944,-0.369813,-0.033613,-18.283806,-83.865339,23.105834
391889,-0.046784,-0.493818,-0.068847,-18.80656,-84.147198,23.600927
391989,-0.056215,-0.468282,-0.110305,-19.106787,-84.422569,23.866631
392089,-0.099078,-0.362159,-0.117927,-19.201708,-84.64185,23.901249
392189,-0.179488,-0.238294,-0.087341,-19.273245,-84.788353,23.866067
392289,-0.260458,-0.133749,-0.055233,-19.365477,-84.872256,23.80507
392389,-0.35062,-0.055933,-0.024675,-19.529408,-84.90831,23.764195
392489,-0.427752,-0.040681,0.026369,-20.01594,-84.926277,24.00284
392589,-0.507294,-0.078,0.090627,-21.025862,-84.951094,24.721191
392689,-0.57044,-0.137188,0.147326,-22.569199,-84.993926,25.938694
392789,-0.582306,-0.166421,0.17865,-24.410048,-85.041801,27.44796
392889,-0.509718,-0.156595,0.177624,-26.205552,-85.080654,28.953381
392989,-0.364921,-0.152708,0.151782,-27.777235,-85.120417,30.317356
393089,-0.203516,-0.157235,0.110686,-29.051029,-85.170757,31.475099
393189,-0.080203,-0.168007,0.065109,-30.045464,-85.237392,32.423308
393289,-0.01961,-0.181005,0.033897,-30.891931,-85.318228,33.25778
393389,-0.002081,-0.194568,0.016065,-31.700296,-85.410007,34.063997
393489,-0.009518,-0.200178,0.009978,-32.530231,-85.505419,34.887465
393589,-0.039628,-0.180054,0.011469,-33.340094,-85.589745,35.673384
393689,-0.039957,-0.149872,0.025848,-34.142859,-85.654247,36.451905
393789,-0.07119,-0.107206,0.044395,-34.916843,-85.691759,37.183556
393889,-0.087226,-0.070369,0.062378,-35.660588,-85.705354,37.875644
393989,-0.082986,-0.079637,0.08244,-36.571955,-85.71571,38.738258
394089,-0.058953,-0.100763,0.098834,-37.672072,-85.728911,39.803952
394189,-0.014601,-0.122253,0.10777,-38.910454,-85.746977,41.033767
394289,0.047882,-0.171049,0.118441,-40.430602,-85.780454,42.581984
394389,0.115112,-0.230025,0.126692,-42.293906,-85.832782,44.512821
394489,0.170332,-0.272677,0.124287,-44.395341,-85.898916,46.713984
394589,0.222722,-0.292779,0.114985,-46.600517,-85.97092,49.049042
394689,0.258381,-0.288734,0.09902,-48.751593,-86.041784,51.350126
394789,0.279937,-0.263429,0.0768,-50.684192,-86.10723,53.444387
394889,0.277138,-0.225631,0.056323,-52.321279,-86.16388,55.240677
394989,0.255789,-0.193267,0.040806,-53.714458,-86.213258,56.780115
395089,0.215141,-0.143628,0.029016,-54.753275,-86.249313,57.940976
395189,0.1673,-0.077318,0.029416,-55.360656,-86.262321,58.641947
395289,0.119834,-0.001813,0.042895,-55.518622,-86.244123,58.865266
395389,0.089807,0.06983,0.057879,-55.254323,-86.195558,58.648148
395489,0.082294,0.112693,0.072004,-54.771506,-86.126188,58.207677
395589,0.092874,0.111252,0.078698,-54.340918,-86.053941,57.825582
395689,0.114832,0.084993,0.080218,-54.093132,-85.989632,57.6393
395789,0.118839,0.059204,0.088824,-54.058402,-85.929968,57.668885
395889,0.100436,0.030066,0.101384,-54.28006,-85.874238,57.94494
395989,0.045042,0.000369,0.111719,-54.763342,-85.823443,58.451495
396089,-0.054026,-0.020197,0.112177,-55.424204,-85.77882,59.079197
396189,-0.160589,-0.005709,0.099458,-55.985078,-85.735069,59.5454
396289,-0.220956,0.05784,0.078346,-56.079084,-85.680831,59.508702
396389,-0.204694,0.159652,0.069153,-55.495483,-85.598155,58.801708
396489,-0.123007,0.271728,0.070742,-54.231798,-85.476922,57.459369
396589,0.003705,0.376435,0.084143,-52.437268,-85.31094,55.657031
396689,0.130305,0.478501,0.125328,-50.343014,-85.085169,53.626243
396789,0.225146,0.576863,0.208664,-48.264272,-84.780359,51.664868
396889,0.291058,0.620852,0.318981,-46.632135,-84.40647,50.189072
396989,0.281229,0.654741,0.381335,-45.309013,-83.989923,49.01731
397089,0.22529,0.686535,0.399103,-44.13126,-83.550777,47.958677
397189,0.196773,0.627457,0.404626,-43.323799,-83.132,47.255533
397289,0.161674,0.385446,0.362999,-43.230648,-82.829931,47.251292
397389,0.118459,0.117368,0.253602,-43.62882,-82.682542,47.717322
397489,0.078539,-0.072072,0.108335,-44.154416,-82.670654,48.288792
397589,0.04069,-0.11431,-0.026048,-44.404491,-82.729394,48.56054
397689,0.007107,-0.130591,-0.085716,-44.537366,-82.818647,48.694687
397789,0.036942,-0.247249,-0.109215,-44.959657,-82.964775,49.137694
397889,0.085755,-0.305547,-0.081285,-45.662518,-83.122463,49.891431
397989,0.173853,-0.246947,-0.029063,-46.317577,-83.234189,50.647716
398089,0.266854,-0.089796,0.029784,-46.579904,-83.258694,51.06215
398189,0.337535,0.023351,0.070827,-46.541299,-83.221434,51.214397
398289,0.377337,0.037257,0.078618,-46.456795,-83.17546,51.343443
398389,0.375867,0.003754,0.064634,-46.442853,-83.14853,51.542734
398489,0.342256,-0.000314,0.040733,-46.383225,-83.133148,51.67661
398589,0.285495,0.061293,0.005283,-46.028389,-83.108071,51.480348
398689,0.248201,0.158166,-0.047295,-45.196939,-83.065475,50.782386
398789,0.218045,0.235781,-0.110548,-43.926609,-83.015114,49.624747
398889,0.171076,0.261003,-0.173074,-42.407648,-82.975346,48.189319
398989,0.102486,0.213212,-0.22846,-40.896485,-82.972536,46.722034
399089,0.017049,0.102945,-0.269592,-39.615601,-83.028817,45.437487
399189,-0.065168,-0.013845,-0.284209,-38.652048,-83.139219,44.425353
399289,-0.127097,-0.113372,-0.288321,-37.972601,-83.294067,43.663875
399389,-0.165695,-0.179099,-0.282818,-37.502777,-83.475853,43.091432
399489,-0.18391,-0.203106,-0.27847,-37.106219,-83.666558,42.582448
399589,-0.180264,-0.188395,-0.272612,-36.657926,-83.848071,42.023733
399689,-0.175916,-0.144703,-0.248499,-36.142462,-84.000706,41.400185
399789,-0.183084,-0.09908,-0.200671,-35.670526,-84.11551,40.816458
399889,-0.203084,-0.052635,-0.155898,-35.245076,-84.193268,40.268073
399989,-0.22911,-0.033747,-0.125508,-34.90238,-84.251778,39.787966
400089,-0.259489,-0.047274,-0.114303,-34.665979,-84.312739,39.39726
400189,-0.281944,-0.067303,-0.113716,-34.504391,-84.382814,39.068855
400289,-0.274868,-0.094349,-0.116897,-34.406993,-84.466619,38.80907
400389,-0.245919,-0.109217,-0.135784,-34.243677,-84.563496,38.499772
400489,-0.210136,-0.10564,-0.160205,-33.914589,-84.666379,38.044627
400589,-0.173625,-0.087934,-0.171077,-33.431275,-84.763953,37.455706
400689,-0.122946,-0.081183,-0.166491,-32.899662,-84.856351,36.847571
400789,-0.056495,-0.10794,-0.149607,-32.494426,-84.955952,36.404672
400889,0.01028,-0.140625,-0.137423,-32.217295,-85.06738,36.128886
400989,0.066031,-0.139566,-0.132701,-31.918625,-85.176717,35.863626
401089,0.113581,-0.106819,-0.130502,-31.473545,-85.26926,35.478857
401189,0.150483,-0.05895,-0.132751,-30.803692,-85.33866,34.889844
401289,0.169592,-0.008239,-0.137408,-29.894587,-85.383648,34.071843
401389,0.176436,0.045215,-0.14766,-28.716088,-85.403577,32.987562
401489,0.18648,0.09465,-0.160366,-27.279269,-85.399906,31.649924
401589,0.195848,0.132019,-0.172998,-25.643924,-85.377405,30.118486
401689,0.217936,0.159666,-0.187128,-23.8425,-85.340211,28.433062
401789,0.246818,0.149455,-0.193694,-22.038144,-85.305591,26.761224
401889,0.28457,0.074427,-0.187372,-20.462405,-85.305715,25.340448
401989,0.331862,-0.005307,-0.166279,-19.183021,-85.341815,24.244266
402089,0.383524,-0.039523,-0.13791,-18.122818,-85.389453,23.397785
402189,0.440048,-0.009714,-0.11332,-17.115841,-85.415295,22.637279
402289,0.463466,0.05006,-0.095139,-16.091264,-85.404241,21.872622
402389,0.474535,0.106373,-0.089847,-14.996766,-85.360138,21.044176
402489,0.468672,0.136348,-0.113074,-13.716071,-85.301295,20.025489
402589,0.406972,0.164979,-0.123474,-12.386628,-85.225917,18.922304
402689,0.294992,0.26661,-0.126211,-11.008715,-85.091675,17.705878
402789,0.1955,0.455895,-0.136666,-9.485858,-84.849193,16.286334
402889,0.150662,0.602165,-0.12118,-8.088468,-84.519432,14.966318
402989,0.084195,0.642079,-0.075892,-7.10772,-84.161125,14.025913
403089,-0.033554,0.575664,-0.031963,-6.573895,-83.836442,13.466442
403189,-0.177978,0.431,-0.063585,-6.093583,-83.595678,12.877219
403289,-0.294796,0.178163,-0.113929,-5.590433,-83.501473,12.197429
403389,-0.340178,-0.159528,-0.116633,-5.267408,-83.599539,11.672724
403489,-0.304852,-0.446676,-0.101414,-5.119955,-83.860467,11.345159
403589,-0.244777,-0.566836,-0.12229,-4.855994,-84.190923,10.935184
403689,-0.173863,-0.524446,-0.16236,-4.25207,-84.498679,10.224583
403789,-0.147493,-0.439107,-0.207449,-3.240936,-84.758324,9.120437
403889,-0.186359,-0.307762,-0.194697,-2.194312,-84.940546,7.958659
403989,-0.253808,-0.089828,-0.12506,-1.534989,-84.995079,7.14709
404089,-0.323238,0.110102,-0.062139,-1.288124,-84.933641,6.70964
404189,-0.388118,0.214273,-0.014894,-1.373425,-84.811858,6.568309
404289,-0.450262,0.241235,0.055816,-1.925852,-84.673552,6.860308
404389,-0.53372,0.182649,0.133677,-2.98742,-84.566524,7.615753
404489,-0.606887,0.041307,0.205667,-4.543008,-84.536028,8.825463
404589,-0.666384,-0.102986,0.251288,-6.48079,-84.581849,10.384864
404689,-0.699515,-0.188293,0.256686,-8.574027,-84.67051,12.08118
404789,-0.650126,-0.235767,0.227217,-10.573218,-84.783079,13.711192
404889,-0.528675,-0.258623,0.18625,-12.354483,-84.908147,15.191947
404989,-0.398329,-0.254374,0.145142,-13.871051,-85.032304,16.481655
405089,-0.278893,-0.22631,0.108898,-15.103499,-85.143333,17.554634
405189,-0.184947,-0.179967,0.080085,-16.055578,-85.23144,18.400095
405289,-0.125944,-0.132953,0.059373,-16.773473,-85.296012,19.04438
405389,-0.113292,-0.079664,0.042859,-17.27988,-85.333583,19.483671
405489,-0.1247,-0.050882,0.036793,-17.697621,-85.356176,19.827401
405589,-0.173113,-0.017142,0.03529,-18.062613,-85.36044,20.090349
405689,-0.214433,-0.000127,0.032637,-18.396118,-85.355788,20.297937
405789,-0.23448,-0.010701,0.042376,-18.82943,-85.354981,20.594131
405889,-0.232295,-0.039372,0.052953,-19.39863,-85.367499,21.027916
405989,-0.201995,-0.064971,0.07416,-20.156701,-85.389295,21.668601
406089,-0.158813,-0.059207,0.088544,-20.977704,-85.404384,22.397231
406189,-0.091482,-0.023623,0.093746,-21.705598,-85.398599,23.071153
406289,-0.026027,0.021626,0.094227,-22.275396,-85.368051,23.62411
406389,0.039491,0.057434,0.09827,-22.729307,-85.317258,24.098494
406489,0.080943,0.082113,0.099329,-23.089264,-85.252927,24.502472
406589,0.108475,0.085979,0.095097,-23.386331,-85.187325,24.859195
406689,0.119122,0.065472,0.088702,-23.684481,-85.133804,25.22314
406789,0.098198,0.015798,0.083691,-24.091852,-85.10728,25.68467
406889,0.078755,-0.052158,0.083867,-24.695664,-85.115828,26.332156
406989,0.057931,-0.119172,0.083536,-25.505247,-85.158541,27.174132
407089,0.053295,-0.134996,0.092299,-26.43346,-85.206109,28.13242
407189,0.038696,-0.093461,0.11516,-27.396652,-85.225181,29.117357
407289,0.020828,-0.021777,0.144329,-28.320082,-85.198764,30.052121
407389,0.012626,0.037143,0.169296,-29.19059,-85.13464,30.929114
407489,0.02031,0.051749,0.185685,-30.079269,-85.057467,31.828848
407589,0.036035,0.028941,0.200736,-31.092134,-84.985887,32.862373
407689,0.053957,-0.012118,0.209527,-32.254594,-84.929992,34.056477
407789,0.066885,-0.051615,0.219797,-33.577646,-84.887633,35.419329
407889,0.050343,-0.079731,0.229037,-35.037801,-84.852672,36.910388
407989,-0.007515,-0.086398,0.234996,-36.565252,-84.815351,38.435786
408089,-0.094608,-0.07285,0.233114,-38.057689,-84.768912,39.875972
408189,-0.178172,-0.022522,0.211611,-39.270121,-84.70459,40.98695
408289,-0.216076,0.083095,0.182577,-39.926,-84.602594,41.517214
408389,-0.182065,0.240466,0.166449,-39.866701,-84.437085,41.348657
408489,-0.070219,0.421347,0.176342,-39.142396,-84.187877,40.576123
408589,0.070665,0.582001,0.204668,-37.987164,-83.855322,39.451079
408689,0.19797,0.658341,0.248393,-36.823562,-83.470477,38.390285
408789,0.237669,0.64561,0.266048,-35.864819,-83.083404,37.557905
408889,0.148667,0.543925,0.264192,-35.30717,-82.743085,37.077726
408989,0.041106,0.315743,0.272292,-35.453797,-82.506486,37.245292
409089,-0.029109,0.004715,0.258818,-36.363524,-82.418593,38.142118
409189,-0.038166,-0.225,0.218944,-37.721536,-82.447246,39.486002
409289,-0.001414,-0.369442,0.16209,-39.27395,-82.556481,41.046994
409389,0.013191,-0.466891,0.10179,-40.944809,-82.724937,42.735353
409489,-0.036092,-0.447743,0.026354,-42.407303,-82.907977,44.184569
409589,-0.020907,-0.475302,-0.039765,-43.801838,-83.123863,45.573476
409689,0.115824,-0.541725,-0.063891,-45.355028,-83.372136,47.20041
409789,0.279288,-0.458892,-0.062775,-46.630489,-83.582146,48.64139
409889,0.412998,-0.217093,-0.055115,-47.013901,-83.691722,49.261502
409989,0.479885,0.045092,-0.062082,-46.348432,-83.70129,48.864897
410089,0.469691,0.213941,-0.075102,-45.017446,-83.647836,47.792844
410189,0.434299,0.262535,-0.078502,-43.543597,-83.572929,46.556518
410289,0.392745,0.227514,-0.059953,-42.312847,-83.502257,45.540704
410389,0.331146,0.173829,-0.034693,-41.412749,-83.442739,44.822009
410489,0.265323,0.144473,-0.023369,-40.701772,-83.390526,44.25559
410589,0.163833,0.107087,-0.056553,-40.052185,-83.366216,43.692312
410689,0.02351,0.014193,-0.107908,-39.583416,-83.40103,43.230058
410789,-0.108496,-0.085791,-0.161314,-39.294532,-83.499199,42.872733
410889,-0.208724,-0.137167,-0.19618,-39.080282,-83.632647,42.532757
410989,-0.272775,-0.159502,-0.219451,-38.869384,-83.784297,42.159291
411089,-0.293762,-0.183291,-0.236615,-38.663603,-83.952584,41.778978
411189,-0.292161,-0.206048,-0.24949,-38.462531,-84.135515,41.404442
411289,-0.276489,-0.211744,-0.261464,-38.199831,-84.325093,40.977129
411389,-0.250736,-0.196242,-0.266214,-37.819363,-84.509092,40.446477
411489,-0.227051,-0.15494,-0.256705,-37.286325,-84.670578,39.776392
411589,-0.202863,-0.112432,-0.233065,-36.661552,-84.803797,39.028302
411689,-0.196794,-0.094999,-0.196382,-36.122787,-84.915788,38.370238
411789,-0.201871,-0.102872,-0.162026,-35.77416,-85.019403,37.900268
411889,-0.221426,-0.137931,-0.12951,-35.734232,-85.128287,37.728994
411989,-0.241693,-0.16872,-0.102165,-35.977785,-85.242311,37.830599
412089,-0.252425,-0.186287,-0.081936,-36.424485,-85.357553,38.12987
412189,-0.24785,-0.203656,-0.066508,-37.052355,-85.475237,38.613494
412289,-0.231747,-0.219521,-0.059317,-37.815039,-85.597145,39.241547
412389,-0.217326,-0.220405,-0.053366,-38.648728,-85.716633,39.949022
412489,-0.198884,-0.20338,-0.046792,-39.470742,-85.825368,40.655314
412589,-0.172531,-0.178183,-0.043353,-40.208461,-85.921015,41.292173
412689,-0.13459,-0.145626,-0.043299,-40.782658,-86.001901,41.786861
412789,-0.095405,-0.128728,-0.047786,-41.234861,-86.07683,42.18176
412889,-0.045184,-0.137435,-0.05043,-41.707039,-86.156254,42.625519
412989,-0.008934,-0.11648,-0.055891,-42.020081,-86.228596,42.930598
413089,0.021536,-0.05854,-0.051536,-42.012564,-86.27453,42.931932
413189,0.045723,-0.010157,-0.04858,-41.723734,-86.298675,42.665269
413289,0.071204,0.010704,-0.049865,-41.285238,-86.314233,42.26328
413389,0.09646,0.017476,-0.058421,-40.731291,-86.329843,41.760121
413489,0.125494,0.015003,-0.076268,-40.047962,-86.352798,41.144008
413589,0.166704,-0.000528,-0.094849,-39.291885,-86.388893,40.478694
413689,0.245342,-0.031069,-0.104455,-38.582549,-86.441504,39.90542
413789,0.35142,-0.057743,-0.107823,-37.921912,-86.506866,39.441909
413889,0.450801,-0.036329,-0.110396,-37.039437,-86.562981,38.813284
413989,0.510253,0.039349,-0.101856,-35.735071,-86.580529,37.796219
414089,0.515387,0.146494,-0.088306,-33.945978,-86.541577,36.29654
414189,0.466816,0.19423,-0.063336,-32.181127,-86.46909,34.79322
414289,0.4011,0.240818,-0.030333,-30.562256,-86.361251,33.398317
414389,0.364948,0.326432,-0.004617,-28.884906,-86.201003,31.923837
414489,0.364632,0.477158,-0.016909,-26.68298,-85.964445,29.92299
414589,0.393841,0.549146,-0.056525,-24.195559,-85.694975,27.652004
414689,0.375449,0.458128,-0.102529,-21.940762,-85.47724,25.602998
414789,0.302395,0.359731,-0.158831,-19.792151,-85.317816,23.617962
414889,0.1957,0.288225,-0.22567,-17.55766,-85.203537,21.484999
414989,0.052082,0.209072,-0.303547,-15.146054,-85.138338,19.09141
415089,-0.043132,0.10171,-0.256917,-13.321243,-85.11885,17.231829
415189,-0.057681,-0.066127,-0.175594,-12.289899,-85.178921,16.160244
415289,0.003964,-0.305073,-0.083318,-12.163453,-85.360708,16.032268
415389,0.035755,-0.470061,-0.043074,-12.560334,-85.629952,16.447501
415489,0.044994,-0.305258,-0.064476,-12.551136,-85.809601,16.460618
415589,0.062264,-0.140639,-0.117418,-11.831852,-85.903479,15.771616
415689,-0.024419,-0.053753,-0.15659,-10.682556,-85.952094,14.601718
415789,-0.181433,0.012293,-0.14416,-9.606395,-85.960586,13.414947
415889,-0.316217,0.031939,-0.099313,-8.938615,-85.952569,12.560125
415989,-0.434801,0.003491,-0.047476,-8.790458,-85.95567,12.15809
416089,-0.512396,-0.027856,0.013906,-9.218093,-85.97109,12.288718
416189,-0.540672,-0.095592,0.086284,-10.343952,-86.017602,13.103066
416289,-0.537397,-0.202126,0.1486,-12.183259,-86.115536,14.634405
416389,-0.488854,-0.280664,0.185365,-14.55753,-86.248475,16.729615
416489,-0.387574,-0.315397,0.190421,-17.16924,-86.393584,19.120611
416589,-0.240184,-0.337001,0.170365,-19.789617,-86.54693,21.604536
416689,-0.104788,-0.341046,0.129982,-22.206276,-86.703862,23.96171
416789,-0.012282,-0.328046,0.092096,-24.386508,-86.856841,26.134805
416889,0.032732,-0.301904,0.065,-26.366001,-86.998404,28.132384
416989,0.03096,-0.259378,0.049675,-28.15558,-87.118725,29.938523
417089,0.005529,-0.214263,0.049264,-29.843611,-87.213683,31.628207
417189,-0.032528,-0.177849,0.051842,-31.466341,-87.287485,33.230535
417289,-0.077148,-0.143934,0.056722,-33.024789,-87.341199,34.742807
417389,-0.114723,-0.125062,0.068681,-34.655761,-87.380125,36.306053
417489,-0.142719,-0.116572,0.089391,-36.497033,-87.405993,38.063705
417589,-0.148949,-0.114533,0.103807,-38.503983,-87.423207,39.983586
417689,-0.12467,-0.124941,0.111102,-40.678506,-87.439184,42.085096
417789,-0.075688,-0.154227,0.111823,-43.112854,-87.463579,44.474736
417889,-0.013265,-0.172965,0.108063,-45.694064,-87.492481,47.047118
417989,0.042431,-0.18362,0.101875,-48.348488,-87.522941,49.724652
418089,0.092034,-0.17614,0.08664,-50.828124,-87.552024,52.255609
418189,0.126529,-0.165357,0.069196,-53.08435,-87.580652,54.582667
418289,0.144343,-0.154586,0.058757,-55.178217,-87.606739,56.757376
418389,0.148683,-0.138386,0.052194,-57.075496,-87.62758,58.737757
418489,0.140453,-0.120612,0.048781,-58.772553,-87.642079,60.512976
418589,0.112345,-0.112345,0.054947,-60.446947,-87.648976,62.249351
418689,0.070941,-0.105563,0.069487,-62.164039,-87.644593,64.004683
418789,0.026415,-0.100588,0.087242,-63.944255,-87.627658,65.797642
418889,-0.004577,-0.078783,0.101545,-65.523732,-87.595824,67.371921
418989,-0.002228,-0.040546,0.11461,-66.656326,-87.546726,68.500294
419089,0.016529,-0.010308,0.123898,-67.414065,-87.485185,69.264259
419189,0.044553,0.008162,0.12705,-67.916419,-87.417589,69.788696
419289,0.066145,0.01196,0.128881,-68.34478,-87.348018,70.251476
419389,0.08879,0.012708,0.139296,-68.774332,-87.272579,70.728463
419489,0.106123,0.007638,0.156804,-69.297334,-87.188627,71.30898
419589,0.098524,0.000894,0.175087,-69.935148,-87.095922,72.00013
419689,0.055979,-0.00301,0.188673,-70.64513,-86.996249,72.739179
419789,-0.013585,0.004159,0.204024,-71.327624,-86.886477,73.410833
419889,-0.091133,0.027141,0.222317,-71.843211,-86.762245,73.870865
419989,-0.133563,0.083085,0.230927,-71.853951,-86.62324,73.800876
420089,-0.115363,0.196201,0.240723,-70.889573,-86.458189,72.764389
420189,-0.036669,0.324283,0.262147,-68.980791,-86.254885,70.826559
420289,0.088939,0.47048,0.310623,-66.25286,-85.989138,68.13931
420389,0.265525,0.571798,0.335867,-63.162702,-85.67658,65.189405
420489,0.354095,0.645579,0.371195,-60.109078,-85.315054,62.325799
420589,0.388078,0.65208,0.37627,-57.448322,-84.938359,59.874571
420689,0.340727,0.617624,0.357687,-55.278535,-84.573048,57.887777
420789,0.283786,0.498884,0.328333,-53.848855,-84.255401,56.61076
420889,0.198789,0.30046,0.294563,-53.360234,-84.018791,56.230191
420989,0.096739,0.154394,0.234399,-53.39081,-83.859659,56.312789
421089,0.066692,0.101483,0.131064,-53.336056,-83.766172,56.292229
421189,0.029308,0.125579,0.013573,-52.837919,-83.718247,55.804036
421289,-0.007909,0.092026,-0.045143,-52.320493,-83.70828,55.274939
421389,-0.030844,-0.069552,-0.049922,-52.467744,-83.756796,55.401336
421489,0.017754,-0.256576,-0.025399,-53.459817,-83.858493,56.405549
421589,0.095902,-0.261529,0.001509,-54.546542,-83.947385,57.549863
421689,0.223631,-0.122572,0.011253,-54.998682,-83.984124,58.129576
421789,0.361519,0.009167,0.007135,-54.775764,-83.979235,58.109976
421889,0.474184,0.054208,-0.021062,-54.200856,-83.972478,57.801385
421989,0.521855,0.033956,-0.063546,-53.55191,-83.991875,57.445832
422089,0.506355,0.011601,-0.10522,-52.869236,-84.03764,57.04744
422189,0.447693,0.001375,-0.145428,-52.120514,-84.104748,56.54885
422289,0.368902,0.027901,-0.184823,-51.148247,-84.17937,55.780156
422389,0.260794,0.072463,-0.222181,-49.884675,-84.25277,54.656428
422489,0.145567,0.092697,-0.256516,-48.438433,-84.330809,53.28284
422589,0.013892,0.085609,-0.274444,-46.988247,-84.415732,51.829607
422689,-0.1274,0.06369,-0.282327,-45.635925,-84.509106,50.393534
422789,-0.259931,0.036469,-0.272037,-44.47267,-84.606272,49.071304
422889,-0.358272,0.005866,-0.259273,-43.508399,-84.708633,47.892538
422989,-0.411068,-0.022606,-0.253159,-42.682618,-84.818784,46.822664
423089,-0.432542,-0.033337,-0.260786,-41.837706,-84.934985,45.721427
423189,-0.433102,-0.023769,-0.268395,-40.868335,-85.048372,44.495143
423289,-0.43069,-0.000485,-0.262837,-39.775082,-85.147572,43.14613
423389,-0.417635,0.024482,-0.233924,-38.672613,-85.222972,41.795578
423489,-0.414029,0.042549,-0.189679,-37.696909,-85.272481,40.574453
423589,-0.433592,0.056361,-0.146357,-36.89479,-85.299066,39.516351
423689,-0.464941,0.052317,-0.114078,-36.299738,-85.315412,38.648048
423789,-0.489557,0.023886,-0.0871,-35.98413,-85.335222,38.046018
423889,-0.502498,-0.00966,-0.067785,-35.920979,-85.363922,37.689886
423989,-0.498939,-0.024851,-0.053765,-35.99735,-85.394942,37.475821
424089,-0.476123,-0.046174,-0.042402,-36.215503,-85.432026,37.417152
424189,-0.445995,-0.069,-0.026637,-36.607544,-85.474281,37.550277
424289,-0.406351,-0.080048,-0.008571,-37.135863,-85.515281,37.842925
424389,-0.366381,-0.08265,0.007335,-37.753455,-85.551668,38.248123
424489,-0.32026,-0.090409,0.019949,-38.462251,-85.586697,38.771333
424589,-0.257885,-0.104779,0.018554,-39.204808,-85.6281,39.364266
424689,-0.20636,-0.10873,0.004703,-39.869055,-85.675716,39.908268
424789,-0.165347,-0.072658,-0.021249,-40.192905,-85.716692,40.134469
424889,-0.146764,-0.013609,-0.044939,-40.077862,-85.740502,39.931242
424989,-0.142328,0.04465,-0.064354,-39.555819,-85.745697,39.322456
425089,-0.114959,0.068594,-0.079407,-38.810656,-85.745192,38.505678
425189,-0.054396,0.039196,-0.083285,-38.14745,-85.758496,37.805912
425289,0.032261,-0.008378,-0.085756,-37.640456,-85.793634,37.312625
425389,0.114987,-0.048772,-0.083796,-37.282238,-85.846168,37.016099
425489,0.176959,-0.092973,-0.079314,-37.122027,-85.917209,36.953752
425589,0.218531,-0.145321,-0.07675,-37.209727,-86.011247,37.163861
425689,0.270953,-0.179957,-0.081845,-37.417822,-86.122784,37.524767
425789,0.313304,-0.135036,-0.10347,-37.231459,-86.221346,37.514639
425889,0.349587,-0.025781,-0.128421,-36.262713,-86.278271,36.741298
425989,0.376138,0.065541,-0.153957,-34.598824,-86.299844,35.286635
426089,0.381892,0.089302,-0.173208,-32.655445,-86.313189,33.555217
426189,0.361406,0.087006,-0.185255,-30.629965,-86.327378,31.729766
426289,0.321852,0.156464,-0.203864,-28.172714,-86.307507,29.448892
426389,0.30532,0.314016,-0.220501,-25.031405,-86.20401,26.472805
426489,0.287186,0.435614,-0.220674,-21.690683,-86.025735,23.285914
426589,0.221056,0.45923,-0.208898,-18.703671,-85.820806,20.414882
426689,0.162685,0.384301,-0.209941,-16.177789,-85.647489,17.972018
426789,0.118349,0.265614,-0.245886,-13.824181,-85.537669,15.676003
426889,0.073467,0.095818,-0.27372,-11.662024,-85.519463,13.546034
426989,0.060645,-0.143392,-0.252996,-9.977842,-85.628153,11.888237
427089,0.044694,-0.382391,-0.212524,-8.80768,-85.864981,10.73708
427189,0.02631,-0.519672,-0.17954,-7.941742,-86.175351,9.880681
427289,-0.03679,-0.516764,-0.179933,-6.954252,-86.48312,8.866486
427389,-0.10032,-0.364719,-0.19123,-5.548621,-86.703592,7.397156
427489,-0.162486,-0.218145,-0.176266,-4.025341,-86.837354,5.774521
427589,-0.217201,-0.054842,-0.105302,-3.070477,-86.873192,4.689875
427689,-0.266061,0.118558,-0.030489,-2.824906,-86.806985,4.287542
427789,-0.307153,0.193453,0.003273,-2.917921,-86.696936,4.200723
427889,-0.339508,0.199948,0.046135,-3.43664,-86.581855,4.521778
427989,-0.375871,0.154159,0.110491,-4.577354,-86.490126,5.445168
428089,-0.393651,0.072011,0.176309,-6.352458,-86.440288,6.994071
428189,-0.371377,-0.024916,0.219885,-8.589175,-86.438978,9.018362
428289,-0.330308,-0.099574,0.245161,-11.158053,-86.472079,11.39904
428389,-0.237206,-0.158043,0.249923,-13.889988,-86.53047,13.996442
428489,-0.112483,-0.208169,0.231625,-16.604197,-86.611744,16.64751
428589,0.014306,-0.242543,0.200632,-19.192736,-86.709804,19.245231
428689,0.119869,-0.270551,0.18063,-21.789672,-86.819967,21.911674
428789,0.174666,-0.267472,0.166076,-24.382198,-86.92485,24.60486
428889,0.17964,-0.250223,0.163114,-27.036114,-87.014726,27.36211
428989,0.142853,-0.227545,0.168884,-29.801159,-87.084607,30.209301
429089,0.083701,-0.194299,0.179235,-32.624402,-87.127893,33.080653
429189,0.015927,-0.151213,0.182435,-35.308089,-87.142663,35.773286
429289,-0.033738,-0.115991,0.184224,-37.809579,-87.134509,38.254965
429389,-0.026535,-0.124869,0.191368,-40.415567,-87.122211,40.845414
429489,-0.026934,-0.135511,0.16838,-42.885478,-87.117495,43.299385
429589,0.036796,-0.118307,0.147315,-44.999422,-87.109134,45.433495
429689,0.109002,-0.123464,0.126726,-46.940769,-87.107515,47.436212
429789,0.181409,-0.135379,0.116443,-48.861249,-87.111443,49.459568
429889,0.231473,-0.151647,0.115512,-50.892826,-87.118263,51.622871
429989,0.266813,-0.161119,0.108878,-52.951837,-87.127528,53.833895
430089,0.274868,-0.177666,0.098427,-55.103934,-87.143124,56.142709
430189,0.265019,-0.201311,0.089508,-57.457125,-87.165946,58.647157
430289,0.240783,-0.202143,0.085485,-59.843644,-87.185828,61.170999
430389,0.218193,-0.20363,0.102237,-62.379239,-87.192362,63.831079
430489,0.181786,-0.217988,0.120146,-65.181998,-87.187251,66.737724
430589,0.149759,-0.239949,0.126374,-68.248891,-87.176555,69.890432
430689,0.128488,-0.241972,0.124959,-71.311876,-87.158759,73.027026
430789,0.121214,-0.202596,0.117436,-73.874465,-87.130751,75.658463
430889,0.116575,-0.12496,0.115035,-75.527675,-87.087538,77.376765
430989,0.113176,-0.038652,0.121822,-76.2201,-87.026726,78.131134
431089,0.115366,0.018512,0.130665,-76.304134,-86.952955,78.27757
431189,0.121825,0.031946,0.144182,-76.275284,-86.86983,78.314672
431289,0.126465,0.013665,0.157376,-76.456235,-86.781827,78.564556
431389,0.134239,-0.017132,0.164041,-76.933589,-86.694097,79.115788
431489,0.115841,-0.043301,0.16769,-77.649041,-86.607315,79.894991
431589,0.057885,-0.032878,0.176929,-78.281154,-86.513597,80.557477
431689,-0.036231,0.002499,0.186128,-78.6313,-86.410343,80.883454
431789,-0.144077,0.056954,0.19183,-78.559452,-86.297695,80.724649
431889,-0.206183,0.138315,0.188213,-77.839154,-86.177499,79.880252
431989,-0.207408,0.224494,0.175845,-76.446411,-86.052237,78.360989
432089,-0.141448,0.319412,0.163787,-74.345104,-85.916864,76.169034
432189,-0.034697,0.466865,0.163021,-71.238356,-85.750039,73.02989
432289,0.106637,0.657684,0.19259,-67.080085,-85.514258,68.9166
432389,0.217861,0.757374,0.227092,-62.78602,-85.213852,64.729565
432489,0.214118,0.679481,0.241015,-59.488135,-84.906326,61.538469
432589,0.138244,0.528749,0.248823,-57.403466,-84.627689,59.520608
432689,0.015675,0.353133,0.254691,-56.457636,-84.396418,58.575465
432789,-0.104627,0.128446,0.235232,-56.646914,-84.244847,58.701461
432889,-0.137609,-0.088868,0.174004,-57.682636,-84.190164,59.659267
432989,-0.080732,-0.243805,0.098258,-59.193094,-84.216815,61.12704
433089,-0.030536,-0.333,0.055947,-61.014578,-84.285647,62.936214
433189,-0.006509,-0.310424,0.019638,-62.652204,-84.361209,64.574256
433289,0.058809,-0.234659,-0.021978,-63.787983,-84.434541,65.745475
433389,0.194497,-0.129738,-0.055608,-64.226114,-84.497244,66.293806
433489,0.354056,0.013959,-0.087367,-63.72379,-84.540174,65.989223
433589,0.44841,0.157332,-0.10733,-62.337159,-84.555538,64.850686
433689,0.458158,0.243239,-0.128828,-60.42414,-84.555005,63.189033
433789,0.446526,0.231326,-0.147323,-58.523299,-84.561819,61.532943
433889,0.434463,0.173223,-0.149083,-56.914413,-84.582461,60.163214
433989,0.39572,0.135817,-0.149569,-55.502788,-84.611854,58.969348
434089,0.32258,0.124004,-0.164092,-54.126115,-84.649238,57.768497
434189,0.209771,0.098176,-0.193766,-52.813147,-84.706488,56.566724
434289,0.073973,0.04591,-0.22793,-51.675249,-84.795195,55.462681
434389,-0.050877,-0.008702,-0.261926,-50.703337,-84.916853,54.453578
434489,-0.147059,-0.036144,-0.279513,-49.801981,-85.05484,53.460128
434589,-0.201046,-0.046663,-0.280489,-48.927344,-85.195826,52.462628
434689,-0.233342,-0.0521,-0.266469,-48.10934,-85.331589,51.503584
434789,-0.248562,-0.072335,-0.247363,-47.4483,-85.465994,50.69346
434889,-0.26447,-0.105615,-0.237402,-46.983428,-85.608505,50.071137
434989,-0.264722,-0.133597,-0.22886,-46.68448,-85.758076,49.61522
435089,-0.267462,-0.131397,-0.220122,-46.395312,-85.902953,49.167654
435189,-0.269356,-0.110834,-0.20417,-46.049771,-86.032884,48.662597
435289,-0.262062,-0.09791,-0.184388,-45.710595,-86.149296,48.168214
435389,-0.258546,-0.110774,-0.159497,-45.577193,-86.260512,47.882165
435489,-0.250884,-0.133386,-0.141244,-45.687893,-86.373298,47.845177
435589,-0.249373,-0.145787,-0.132529,-45.939744,-86.487456,47.950495
435689,-0.250599,-0.148952,-0.130483,-46.239975,-86.601985,48.103577
435789,-0.252142,-0.151237,-0.124523,-46.614405,-86.714875,48.330095
435889,-0.248485,-0.153018,-0.118712,-47.06254,-86.825923,48.632529
435989,-0.239296,-0.151142,-0.105472,-47.613436,-86.930494,49.04315
436089,-0.226154,-0.159346,-0.086975,-48.394463,-87.030045,49.691761
436189,-0.20382,-0.176429,-0.064258,-49.529075,-87.125596,50.707223
436289,-0.168471,-0.188669,-0.051658,-50.922576,-87.21889,52.00214
436389,-0.125425,-0.189874,-0.042406,-52.464028,-87.306754,53.469828
436489,-0.077745,-0.180692,-0.047067,-53.950147,-87.391689,54.909426
436589,-0.025897,-0.15898,-0.055204,-55.211492,-87.471562,56.153713
436689,0.008228,-0.122549,-0.067407,-56.037973,-87.544364,56.98226
436789,0.038382,-0.074078,-0.076382,-56.273538,-87.605612,57.236635
436889,0.048125,-0.047538,-0.088335,-56.112524,-87.664067,57.099686
436989,0.057098,-0.028146,-0.100489,-55.608891,-87.722004,56.624999
437089,0.079531,-0.008994,-0.11328,-54.726186,-87.77944,55.783841
437189,0.121586,-0.007248,-0.120984,-53.682837,-87.839292,54.806085
437289,0.182663,-0.033942,-0.119052,-52.89765,-87.906778,54.121758
437389,0.259444,-0.078328,-0.113166,-52.649008,-87.986709,54.01842
437489,0.345619,-0.100066,-0.117297,-52.586899,-88.076048,54.151195
437589,0.403302,-0.074737,-0.121039,-52.096005,-88.15821,53.888087
437689,0.429902,-0.015178,-0.107052,-50.856183,-88.212677,52.891005
437789,0.420647,0.079871,-0.098204,-48.316708,-88.226872,50.588411
437889,0.424691,0.156882,-0.080586,-44.956004,-88.199682,47.466532
437989,0.42341,0.22532,-0.048985,-41.314508,-88.125548,44.0629
438089,0.392976,0.32459,-0.015432,-37.400194,-87.988155,40.368608
438189,0.340406,0.411159,-0.005038,-33.417359,-87.798546,36.575181
438289,0.288489,0.401422,-0.009774,-30.102267,-87.60666,33.419723
438389,0.220376,0.367082,-0.024039,-27.351696,-87.429585,30.789776
438489,0.159174,0.369769,-0.060554,-24.577224,-87.255046,28.100399
438589,0.085648,0.261282,-0.134065,-21.863652,-87.148543,25.429478
438689,0.008733,0.104045,-0.165756,-19.647085,-87.127295,23.21188
438789,0.011244,-0.062807,-0.184482,-17.84169,-87.196219,21.407407
438889,0.081739,-0.248944,-0.151135,-16.939171,-87.359119,20.547409
438989,0.130702,-0.384735,-0.140631,-16.537354,-87.594355,20.216742
439089,0.17258,-0.265093,-0.164243,-15.209399,-87.767144,18.983141
439189,0.197562,-0.156945,-0.196094,-12.774687,-87.882513,16.656338
439289,0.108697,-0.110057,-0.183401,-10.190413,-87.966125,14.129011
439389,-0.03713,-0.051679,-0.122721,-8.34381,-88.007511,12.256273
439489,-0.152022,0.037439,-0.061281,-7.321006,-87.991856,11.141962
439589,-0.225698,0.051497,-0.013502,-7.097855,-87.96437,10.785539
439689,-0.289604,-0.002161,0.054415,-8.107928,-87.962317,11.62649
439789,-0.357809,-0.062404,0.136854,-10.636371,-87.98573,13.94768
439889,-0.428967,-0.106815,0.213708,-14.666597,-88.019621,17.730776
439989,-0.465059,-0.137212,0.265425,-19.823951,-88.05071,22.620949
440089,-0.451963,-0.163345,0.285086,-25.588416,-88.075173,28.12605
440189,-0.375755,-0.177854,0.268752,-31.287499,-88.092697,33.60938
440289,-0.258326,-0.194352,0.229274,-36.591796,-88.113045,38.764972
440389,-0.149795,-0.191439,0.17811,-41.197608,-88.135691,43.28384
440489,-0.072423,-0.170796,0.139552,-45.099714,-88.153789,47.1429
440589,-0.028349,-0.15975,0.111399,-48.553359,-88.171282,50.57845
440689,-0.032065,-0.16522,0.094317,-51.949697,-88.191711,53.954446
440789,-0.067369,-0.170957,0.080663,-55.37495,-88.213997,57.339042
440889,-0.121096,-0.152364,0.066696,-58.474578,-88.231108,60.366981
440989,-0.166209,-0.131563,0.068131,-61.322623,-88.236638,63.117314
441089,-0.198858,-0.141678,0.084983,-64.505444,-88.231741,66.183864
441189,-0.199985,-0.15341,0.098882,-67.959565,-88.216797,69.521216
441289,-0.165907,-0.158938,0.106277,-71.464575,-88.192721,72.929056
441389,-0.126942,-0.167507,0.108097,-75.000966,-88.162549,76.390683
441489,-0.075002,-0.177672,0.110514,-78.565555,-88.125598,79.910364
441589,-0.029813,-0.206275,0.110452,-82.440053,-88.084064,83.766104
441689,0.014619,-0.252494,0.111242,-86.880481,-88.035401,88.213664
441789,0.053103,-0.288974,0.105605,-91.654048,-87.978293,93.016753
441889,0.08505,-0.305963,0.097108,-96.396641,-87.911704,97.807331
441989,0.101856,-0.312792,0.092395,-100.921411,-87.833546,102.389771
442089,0.100052,-0.313081,0.086583,-105.131482,-87.745891,106.65647
442189,0.086461,-0.289342,0.072193,-108.763352,-87.659081,110.336931
442289,0.075629,-0.256804,0.076125,-111.700321,-87.568334,113.315875
442389,0.05886,-0.219202,0.084706,-113.935822,-87.475943,115.583246
442489,0.047479,-0.15703,0.093123,-115.266522,-87.391026,116.938509
442589,0.064815,-0.096804,0.101099,-115.799678,-87.315905,117.50539
442689,0.093112,-0.05642,0.103171,-115.843859,-87.249675,117.599002
442789,0.109311,-0.040924,0.119372,-115.63099,-87.178951,117.444562
442889,0.11764,-0.045847,0.13118,-115.415016,-87.100883,117.291783
442989,0.135061,-0.048456,0.141859,-115.174511,-87.016622,117.124426
443089,0.144874,-0.038078,0.159625,-114.759049,-86.925601,116.787484
443189,0.12734,-0.006245,0.176779,-114.001355,-86.832985,116.09771
443289,0.091822,0.025785,0.193764,-112.941478,-86.73818,115.084816
443389,0.031393,0.039358,0.224406,-111.740448,-86.629005,113.895723
443489,-0.024127,0.04312,0.251018,-110.525036,-86.504986,112.660168
443589,-0.049232,0.087467,0.258553,-109.006097,-86.383802,111.105864
443689,-0.021384,0.196819,0.24605,-106.684864,-86.285511,108.763359
443789,0.047261,0.335787,0.22748,-103.323873,-86.210835,105.418003
443889,0.122662,0.455863,0.203447,-99.089288,-86.148715,101.240134
443989,0.175683,0.571738,0.206921,-94.013448,-86.069765,96.24922
444089,0.207598,0.669396,0.242906,-88.368675,-85.939979,90.705768
444189,0.186964,0.703482,0.270876,-82.892507,-85.755845,85.318503
444289,0.143558,0.631303,0.295479,-78.488052,-85.531619,80.979732
444389,0.070146,0.449068,0.275592,-75.756395,-85.321804,78.275633
444489,0.009832,0.178772,0.193258,-74.899492,-85.190276,77.417387
444589,0.011353,-0.060491,0.069656,-75.416532,-85.162136,77.938716
444689,0.060871,-0.202544,-0.029423,-76.676733,-85.208057,79.234287
444789,0.070503,-0.253528,-0.075425,-78.235648,-85.283367,80.83503
444889,0.084705,-0.268895,-0.106196,-79.905464,-85.37388,82.555044
444989,0.167699,-0.27149,-0.109722,-81.608462,-85.462429,84.355905
445089,0.288691,-0.21995,-0.102969,-82.9394,-85.53928,85.852986
445189,0.372065,-0.088977,-0.077498,-83.321051,-85.590842,86.445817
445289,0.423857,0.004469,-0.059379,-83.003456,-85.625646,86.367167
445389,0.447292,0.00632,-0.055534,-82.659276,-85.658063,86.275393
445489,0.430435,-0.033886,-0.059851,-82.620808,-85.695845,86.480549
445589,0.381162,-0.044363,-0.071018,-82.681339,-85.740745,86.756647
445689,0.315509,-0.022335,-0.095458,-82.589212,-85.797949,86.841877
445789,0.253891,0.037769,-0.130367,-82.023868,-85.870444,86.417146
445889,0.182029,0.09125,-0.176387,-80.997771,-85.964115,85.489152
445989,0.101697,0.121475,-0.218073,-79.662875,-86.077097,84.205492
446089,0.0032,0.107813,-0.250585,-78.366956,-86.207828,82.904439
446189,-0.097553,0.071445,-0.270084,-77.316795,-86.35208,81.791959
446289,-0.185537,0.02199,-0.278607,-76.660913,-86.506396,81.024161
446389,-0.242064,-0.010527,-0.286522,-76.263847,-86.669045,80.483302
446489,-0.264207,-0.019165,-0.298634,-75.887517,-86.8394,79.950593
446589,-0.259853,-0.017704,-0.319053,-75.384498,-87.02064,79.293614
446689,-0.249408,0.002784,-0.341139,-74.499405,-87.2106,78.260205
446789,-0.224905,0.022869,-0.340473,-73.219942,-87.395964,76.846251
446889,-0.202146,0.023963,-0.314598,-71.817386,-87.565369,75.322382
446989,-0.195476,0.013716,-0.276159,-70.519243,-87.714174,73.90706
447089,-0.200847,0.006022,-0.236359,-69.362666,-87.841769,72.630498
447189,-0.217694,-0.003555,-0.203883,-68.401253,-87.953032,71.539694
447289,-0.231915,-0.021944,-0.174736,-67.806183,-88.052158,70.807397
447389,-0.256299,-0.040441,-0.147273,-67.64379,-88.140556,70.4941
447489,-0.276446,-0.051928,-0.128059,-67.801396,-88.221245,70.489457
447589,-0.282292,-0.06546,-0.107951,-68.356541,-88.29412,70.879224
447689,-0.27965,-0.092661,-0.085411,-69.622812,-88.360305,71.981969
447789,-0.269051,-0.132457,-0.056801,-71.955985,-88.417446,74.158134
447889,-0.244994,-0.166854,-0.030654,-75.297441,-88.462645,77.356752
447989,-0.206703,-0.183711,-0.015591,-79.22731,-88.495912,81.165936
448089,-0.161672,-0.178002,-0.007654,-83.181596,-88.517121,85.025363
448189,-0.116113,-0.143985,-0.006017,-86.446856,-88.529226,88.221668
448289,-0.068398,-0.089803,-0.011238,-88.509145,-88.539088,90.241982
448389,-0.037351,-0.027038,-0.021724,-89.156704,-88.552982,90.864926
448489,-0.005764,0.016445,-0.035254,-88.795712,-88.574129,90.497128
448589,0.038447,0.020636,-0.052874,-88.287642,-88.605222,90.007576
448689,0.100898,0.002686,-0.065189,-88.142471,-88.643606,89.916853
448789,0.164892,-0.019752,-0.079451,-88.502328,-88.690524,90.368
448889,0.213175,-0.047767,-0.097346,-89.589101,-88.747813,91.573936
448989,0.242324,-0.057788,-0.110511,-91.049932,-88.811983,93.170731
449089,0.276585,-0.049832,-0.117061,-92.439915,-88.879151,94.716312
449189,0.334498,0.02675,-0.126293,-91.606234,-88.952969,94.071039
449289,0.393847,0.11572,-0.129789,-87.620919,-89.027879,90.307723
449389,0.447779,0.139704,-0.127666,-82.126279,-89.094623,85.065905
449489,0.471682,0.081027,-0.120757,-78.104594,-89.155837,81.31102
449589,0.412622,0.052147,-0.113408,-74.773154,-89.213023,78.212652
449689,0.283129,0.149602,-0.103553,-67.165,-89.242251,70.762964
449789,0.185153,0.329151,-0.113519,-52.564961,-89.204547,56.26454
449889,0.12764,0.479264,-0.130993,-36.181178,-89.060227,39.948833
449989,0.064033,0.550202,-0.154884,-23.390799,-88.83008,27.189732
450089,0.044976,0.619197,-0.156073,-14.653435,-88.523598,18.472523
450189,0.064858,0.549897,-0.198676,-8.408171,-88.237811,12.258624
450289,0.090224,0.281766,-0.222175,-3.839514,-88.091326,7.736016
450389,0.090946,-0.077948,-0.212706,-0.101803,-88.140748,4.045083
450489,0.074208,-0.360791,-0.176175,3.460502,-88.345082,0.52028
450589,0.010744,-0.508023,-0.155717,7.963528,-88.626581,-3.981576
450689,-0.063046,-0.513323,-0.15696,14.749032,-88.898137,-10.808293
450789,-0.134405,-0.487311,-0.134647,24.458478,-89.136375,-20.599774
450889,-0.227993,-0.355073,-0.097407,35.319978,-89.285584,-31.596629
450989,-0.290288,-0.1434,-0.054128,41.510436,-89.330478,-37.957623
451089,-0.318307,0.024001,-0.037472,42.019837,-89.305544,-38.653236
451189,-0.315169,0.099565,-0.02913,39.978483,-89.25118,-36.796111
451289,-0.330403,0.122434,0.01083,36.326454,-89.199564,-33.336846
451389,-0.390604,0.078364,0.083766,31.587433,-89.189,-28.8249
451489,-0.459824,-0.034872,0.163343,26.108661,-89.251776,-23.612751
451589,-0.480735,-0.163896,0.228303,18.77208,-89.389022,-16.554683
451689,-0.459997,-0.227943,0.25799,6.065095,-89.549829,-4.114237
451789,-0.379751,-0.240409,0.251909,-17.443357,-89.676099,19.173682
451889,-0.261861,-0.259424,0.223026,-54.65611,-89.724924,56.233428
451989,-0.159987,-0.248764,0.181398,-87.31842,-89.672317,88.801046
452089,-0.085292,-0.222387,0.135363,-105.66678,-89.580733,107.097435
452189,-0.04185,-0.207578,0.105723,-116.727336,-89.481597,118.130859
452289,-0.030186,-0.212733,0.086767,-124.840468,-89.376874,126.223523
452389,-0.049124,-0.195982,0.067201,-130.553289,-89.278127,131.904962
452489,-0.085587,-0.156876,0.053021,-134.160848,-89.1955,135.460123
452589,-0.115564,-0.127268,0.050371,-136.426351,-89.123724,137.655943
452689,-0.133456,-0.102399,0.053198,-137.710364,-89.060334,138.859919
452789,-0.116107,-0.077786,0.055701,-138.229395,-89.00617,139.308763
452889,-0.069639,-0.080143,0.06071,-138.603536,-88.94903,139.639338
452989,-0.003713,-0.11441,0.068648,-139.386637,-88.874021,140.416749
453089,0.05223,-0.162466,0.082853,-140.574706,-88.772439,141.631312
453189,0.08623,-0.214658,0.098855,-142.040425,-88.641227,143.143144
453289,0.1216,-0.250673,0.105853,-143.570326,-88.49031,144.739533
453389,0.171646,-0.259765,0.105318,-144.899895,-88.33441,146.164293
453489,0.222718,-0.256957,0.091316,-146.146867,-88.183551,147.535772
453589,0.245338,-0.225781,0.076504,-147.106171,-88.051533,148.632459
453689,0.240984,-0.189811,0.068373,-147.743797,-87.938934,149.404811
453789,0.215101,-0.157456,0.058119,-148.197691,-87.844946,149.97847
453889,0.156654,-0.138373,0.058205,-148.495262,-87.760136,150.362167
453989,0.09289,-0.12061,0.066729,-148.57071,-87.681444,150.486977
454089,0.035999,-0.07827,0.07553,-148.264606,-87.62082,150.197252
454189,0.015586,-0.017426,0.089599,-147.384591,-87.585324,149.32136
454289,0.015566,0.03775,0.100716,-145.993746,-87.572058,147.934126
454389,0.026406,0.071115,0.106865,-144.283945,-87.570908,146.233833
454489,0.034027,0.071183,0.109117,-142.548231,-87.566876,144.511948
454589,0.048469,0.051878,0.116988,-140.893116,-87.549227,142.878981
454689,0.064953,0.054786,0.11976,-139.200354,-87.529831,141.217737
454789,0.044112,0.0745,0.12702,-137.300776,-87.513884,139.337483
454889,-0.013799,0.085616,0.138224,-135.25369,-87.495333,137.276316
454989,-0.114933,0.097572,0.149124,-133.087117,-87.473817,135.037464
455089,-0.224237,0.121048,0.162413,-130.682988,-87.451751,132.498028
455189,-0.288876,0.199185,0.171684,-127.500046,-87.448398,129.14183
455289,-0.264754,0.332715,0.179915,-122.827477,-87.475115,124.308343
455389,-0.153855,0.467248,0.186352,-116.413499,-87.51602,117.795475
455489,0.004579,0.612461,0.200648,-107.888198,-87.543419,109.260378
455589,0.182303,0.755259,0.250818,-97.306198,-87.498947,98.768631
455689,0.298158,0.820061,0.311738,-86.581007,-87.33729,88.199298
455789,0.273598,0.801021,0.348076,-77.659239,-87.077618,79.41974
455889,0.203605,0.703957,0.393884,-71.441332,-86.753674,73.305629
455989,0.149301,0.49388,0.441051,-68.356441,-86.42043,70.297034
456089,0.125257,0.226672,0.432075,-67.852502,-86.143724,69.860069
456189,0.119256,0.006564,0.340701,-68.781773,-85.962395,70.856149
456289,0.133202,-0.134055,0.209131,-70.305838,-85.878461,72.456677
456389,0.107187,-0.174635,0.094156,-71.80298,-85.861441,74.015344
456489,0.043747,-0.188109,0.052771,-73.331565,-85.866411,75.569101
456589,0.066559,-0.272602,0.012054,-75.417549,-85.903349,77.694783
456689,0.161942,-0.268108,0.003426,-77.433868,-85.93898,79.805368
456789,0.283316,-0.120211,-0.000323,-78.230428,-85.955118,80.762844
456889,0.372971,0.088514,-0.01116,-77.306257,-85.952035,80.046833
456989,0.410973,0.231766,-0.034704,-75.192711,-85.941183,78.160337
457089,0.423947,0.23911,-0.056602,-72.977234,-85.936198,76.179122
457189,0.428107,0.201945,-0.064857,-71.028872,-85.937196,74.468086
457289,0.407159,0.169087,-0.079886,-69.298839,-85.948812,72.963874
457389,0.355157,0.141791,-0.100313,-67.733028,-85.974022,71.594383
457489,0.266422,0.111165,-0.129387,-66.335062,-86.01897,70.342138
457589,0.150602,0.061993,-0.168224,-65.210386,-86.093897,69.297289
457689,0.029245,0.010572,-0.206394,-64.368942,-86.199973,68.466619
457789,-0.086457,-0.011075,-0.234431,-63.607882,-86.325184,67.650083
457889,-0.181417,-0.001171,-0.245587,-62.7178,-86.452791,66.649794
457989,-0.245149,0.016969,-0.242522,-61.655417,-86.572922,65.440393
458089,-0.282489,0.021899,-0.23436,-60.530002,-86.686171,64.146551
458189,-0.307578,0.023678,-0.232843,-59.326466,-86.796582,62.760219
458289,-0.328489,0.039279,-0.232791,-57.903948,-86.900464,61.14275
458389,-0.336994,0.035927,-0.221665,-56.480438,-86.997766,59.519612
458489,-0.353093,0.010061,-0.189191,-55.414355,-87.086024,58.245337
458589,-0.380726,-0.019405,-0.149005,-54.840538,-87.164069,57.44824
458689,-0.407012,-0.047002,-0.106922,-54.800671,-87.231282,57.170744
458789,-0.429779,-0.07106,-0.073599,-55.237327,-87.290787,57.357299
458889,-0.42922,-0.101721,-0.05045,-56.16267,-87.349114,58.033411
458989,-0.403476,-0.123111,-0.0418,-57.395807,-87.409392,59.032393
459089,-0.356038,-0.141334,-0.04084,-58.862538,-87.473609,60.292383
459189,-0.311928,-0.160319,-0.05009,-60.533069,-87.546311,61.781627
459289,-0.278868,-0.175909,-0.061141,-62.398895,-87.626791,63.48525
459389,-0.247698,-0.190196,-0.067745,-64.513364,-87.71175,65.455541
459489,-0.216161,-0.194795,-0.071682,-66.803523,-87.796679,67.619676
459589,-0.178339,-0.185027,-0.067955,-69.12551,-87.874013,69.837286
459689,-0.13478,-0.156656,-0.069452,-71.151954,-87.943361,71.784075
459789,-0.090955,-0.10356,-0.07246,-72.438615,-88.002724,73.015708
459889,-0.065013,-0.038137,-0.077162,-72.705356,-88.052806,73.241682
459989,-0.059325,0.018154,-0.080806,-72.035779,-88.095117,72.534095
460089,-0.05389,0.050466,-0.081199,-70.79178,-88.131321,71.254934
460189,-0.034611,0.064568,-0.082435,-69.243225,-88.164376,69.682159
460289,0.018339,0.050531,-0.084954,-67.82697,-88.200371,68.27216
460389,0.06254,0.020988,-0.098922,-66.730318,-88.249278,67.207313
460489,0.087967,-0.009241,-0.110075,-66.002149,-88.310431,66.525753
460589,0.148623,-0.049331,-0.1015,-65.994324,-88.376277,66.599681
460689,0.239389,-0.101027,-0.088725,-67.044573,-88.44716,67.784175
460789,0.329763,-0.07103,-0.078861,-67.616978,-88.505692,68.542495
460889,0.3831,0.009795,-0.065897,-66.632238,-88.539409,67.773786
460989,0.392126,0.102,-0.057908,-63.777333,-88.546095,65.139547
461089,0.373374,0.157592,-0.055085,-59.856121,-88.532298,61.427937
461189,0.341633,0.20139,-0.052444,-55.276402,-88.496744,57.039367
461289,0.297112,0.288624,-0.053027,-49.533769,-88.420789,51.46179
461389,0.255902,0.397015,-0.044782,-43.037573,-88.282813,45.10637
461489,0.23772,0.465942,-0.051593,-36.743367,-88.097489,38.942014
461589,0.227863,0.498595,-0.041853,-31.471071,-87.874938,33.793763
461689,0.217356,0.494469,-0.029999,-27.392346,-87.637223,29.833182
461789,0.103234,0.541311,-0.046527,-23.69665,-87.369477,26.189791
461889,0.018688,0.450903,-0.081972,-20.722271,-87.148724,23.219331
461989,-0.053614,0.190687,-0.09714,-18.968776,-87.065633,21.429448
462089,-0.092052,-0.077445,-0.077209,-18.462613,-87.122705,20.866411
462189,-0.089847,-0.260831,-0.031027,-19.139361,-87.270826,21.488963
462289,-0.046267,-0.405651,-0.031945,-20.497203,-87.496697,22.818115
462389,0.033128,-0.4386,-0.066093,-21.790911,-87.745811,24.128235
462489,0.067754,-0.407788,-0.085299,-22.898643,-87.981607,25.271758
462589,0.014916,-0.295542,-0.066305,-23.819698,-88.153259,26.197971
462689,-0.063249,-0.17249,-0.030546,-24.60996,-88.251728,26.948405
462789,-0.124076,-0.126079,-0.00173,-25.645821,-88.318736,27.90964
462889,-0.167707,-0.12893,0.040039,-27.570158,-88.375739,29.734703
462989,-0.260233,-0.135244,0.120299,-31.189403,-88.41074,33.202312
463089,-0.378875,-0.144611,0.211142,-36.675565,-88.413301,38.469589
463189,-0.445525,-0.186328,0.287542,-43.897523,-88.389569,45.435236
463289,-0.435979,-0.255936,0.322824,-52.326252,-88.351128,53.613781
463389,-0.365843,-0.301524,0.317444,-60.893502,-88.295655,61.97134
463489,-0.242202,-0.322482,0.277586,-68.79494,-88.231529,69.733936
463589,-0.123547,-0.33994,0.221208,-76.017471,-88.170872,76.88557
463689,-0.03687,-0.344036,0.165016,-82.578825,-88.115836,83.42559
463789,0.004832,-0.328601,0.120511,-88.391416,-88.063052,89.240521
463889,0.005012,-0.286762,0.09756,-93.180857,-88.006101,94.031965
463989,-0.0357,-0.231609,0.097911,-96.826176,-87.939819,97.655371
464089,-0.097912,-0.168878,0.109158,-99.287273,-87.865502,100.058211
464189,-0.133516,-0.133201,0.137343,-101.001885,-87.775759,101.693712
464289,-0.176876,-0.123572,0.155912,-102.419985,-87.675066,103.007688
464389,-0.174167,-0.161006,0.183635,-104.122239,-87.552599,104.607727
464489,-0.156534,-0.211261,0.183013,-106.273945,-87.420742,106.667924
464589,-0.109683,-0.242294,0.178297,-108.566088,-87.282726,108.89581
464689,-0.047964,-0.261137,0.166381,-110.853114,-87.143489,111.154242
464789,0.009469,-0.278846,0.158212,-113.107002,-87.000551,113.412725
464889,0.047669,-0.291468,0.158939,-115.247108,-86.849959,115.579483
464989,0.074436,-0.280175,0.154111,-117.095268,-86.700768,117.469491
465089,0.097973,-0.270381,0.146658,-118.719243,-86.554846,119.148695
465189,0.121555,-0.26248,0.136634,-120.178209,-86.413569,120.676349
465289,0.133021,-0.251426,0.133229,-121.449307,-86.275044,122.022548
465389,0.123406,-0.238516,0.124564,-122.578624,-86.142907,123.221317
465489,0.101711,-0.213233,0.121056,-123.485274,-86.018994,124.184587
465589,0.091908,-0.152012,0.122769,-123.927676,-85.912996,124.676925
465689,0.111172,-0.050038,0.125401,-123.660867,-85.838221,124.469294
465789,0.11748,0.004986,0.136084,-122.996873,-85.77556,123.866989
465889,0.100789,0.021505,0.128514,-122.28508,-85.721155,123.207086
465989,0.068158,0.032236,0.11271,-121.602627,-85.677119,122.557788
466089,0.045015,0.041263,0.100765,-120.934795,-85.641069,121.909791
466189,0.018465,0.057045,0.10062,-120.191786,-85.609112,121.171077
466289,-0.029458,0.084236,0.10716,-119.287562,-85.580848,120.243063
