SampleTimeFine,Gyr_X,Gyr_Y,Gyr_Z,Roll,Pitch,Yaw
168318,-0.048847,0.054306,-0.010056,-4.106845,-75.929437,3.98403
168418,-0.048166,0.057717,-0.008477,-4.103073,-75.897925,3.951821
168518,-0.032656,0.088902,-0.008051,-4.086451,-75.848571,3.915513
168618,-0.015144,0.122468,-0.00676,-4.057545,-75.77998,3.876878
168718,-0.004899,0.141908,-0.004943,-4.024118,-75.700204,3.839622
168818,-0.008265,0.124091,-0.004916,-3.995828,-75.630618,3.805668
168918,-0.013287,0.081019,-0.005024,-3.9771,-75.585665,3.778607
169018,-0.011405,0.043031,-0.002154,-3.96963,-75.562316,3.764279
169118,-0.008145,0.02416,-0.002101,-3.963321,-75.549747,3.75308
169218,-0.00966,0.028761,-0.004613,-3.951595,-75.534641,3.735392
169318,-0.015681,0.045225,-0.010056,-3.928782,-75.510333,3.702689
169418,-0.019437,0.06811,-0.012146,-3.900144,-75.473023,3.661742
169518,-0.021982,0.078916,-0.007834,-3.880982,-75.429372,3.629074
169618,-0.017404,0.076163,-0.005509,-3.86481,-75.387216,3.602204
169718,-0.019528,0.055341,-0.000962,-3.862931,-75.356796,3.588846
169818,-0.022934,0.020313,0.000505,-3.871349,-75.346353,3.584117
169918,-0.028115,-0.01404,0.002104,-3.891307,-75.355488,3.588247
170018,-0.026185,-0.020567,-0.002073,-3.902018,-75.368507,3.583961
170118,-0.021075,-0.002393,-0.006486,-3.897439,-75.371298,3.566899
170218,-0.009473,0.009545,-0.006751,-3.883823,-75.367266,3.547368
170318,-0.004605,0.013757,-0.003617,-3.873593,-75.360702,3.534222
170418,-0.002889,0.01176,-0.001223,-3.86785,-75.355194,3.526734
170518,-0.016219,0.005377,0.000106,-3.873554,-75.353288,3.523187
170618,-0.03113,0.004903,-0.00321,-3.880639,-75.351782,3.512234
170718,-0.04493,0.011581,-0.008394,-3.883369,-75.34665,3.488604
170818,-0.050256,0.018887,-0.00856,-3.887785,-75.337338,3.463558
170918,-0.04224,0.025829,-0.008598,-3.886552,-75.324052,3.437417
171018,-0.027931,0.019653,-0.00632,-3.883011,-75.314202,3.417362
171118,-0.015201,0.008347,-0.004453,-3.877884,-75.310737,3.403215
171218,-0.002926,0.006303,-0.002019,-3.871322,-75.308339,3.39485
171318,0.002734,0.01041,-0.008098,-3.847688,-75.303816,3.372189
171418,-0.000323,0.033445,-0.013129,-3.811582,-75.286307,3.334818
171518,-0.00378,0.051518,-0.015774,-3.769276,-75.258556,3.288981
171618,-0.006073,0.058465,-0.016121,-3.726764,-75.226845,3.241562
171718,-0.011036,0.048951,-0.006656,-3.709086,-75.200222,3.216884
171818,-0.023532,0.031389,-0.000228,-3.714935,-75.183407,3.209138
171918,-0.037198,0.013631,0.00068,-3.732993,-75.176715,3.20592
172018,-0.042137,0.005483,0.002969,-3.759901,-75.174599,3.208933
172118,-0.039949,0.00578,0.004446,-3.788679,-75.172248,3.215177
172218,-0.028375,0.007929,0.003285,-3.808003,-75.168709,3.218505
172318,-0.010309,0.007587,0.003204,-3.816875,-75.16535,3.221725
172418,0.01121,0.005948,0.001067,-3.809043,-75.163003,3.220421
172518,0.028432,0.000807,-0.00641,-3.775942,-75.163865,3.203193
172618,0.033499,0.001756,-0.012647,-3.726381,-75.164407,3.171921
172718,0.025077,0.010263,-0.015172,-3.675039,-75.160158,3.133819
172818,0.015091,0.018421,-0.013668,-3.631613,-75.151182,3.097985
172918,0.011337,0.028534,-0.009096,-3.598895,-75.136247,3.071007
173018,0.009518,0.027617,-0.002507,-3.58161,-75.121599,3.058897
173118,0.010789,0.018075,0.00422,-3.579305,-75.112178,3.063066
173218,0.008111,0.003703,0.009773,-3.592375,-75.110786,3.081555
173318,-0.002297,-0.01784,0.010553,-3.616017,-75.121686,3.104793
173418,-0.014498,-0.032233,0.005681,-3.638157,-75.14099,3.11926
173518,-0.020939,-0.026033,0.004692,-3.661118,-75.156758,3.13075
173618,-0.023616,-0.001203,0.001152,-3.674592,-75.158456,3.130855
173718,-0.015962,0.020251,0.003933,-3.686772,-75.147773,3.134122
173818,-0.004012,0.026664,0.010472,-3.705238,-75.133185,3.150993
173918,0.007229,0.023879,0.009854,-3.716269,-75.120212,3.166829
174018,0.01072,0.034169,0.006702,-3.716998,-75.101498,3.174086
174118,0.005113,0.0182,0.00286,-3.714897,-75.092061,3.175101
174218,-0.004974,0.001517,0.004415,-3.724326,-75.09208,3.182041
174318,-0.003593,0.013251,0.008221,-3.739506,-75.085225,3.195765
174418,0.009011,0.031411,0.010874,-3.75066,-75.06789,3.212771
174518,0.015672,0.043386,0.014546,-3.764111,-75.043571,3.236129
174618,0.007284,0.05978,0.018885,-3.789194,-75.009728,3.266578
174718,-0.004433,0.062403,0.020534,-3.824029,-74.974336,3.300135
174818,-0.014304,0.029134,0.015466,-3.858291,-74.958136,3.327272
174918,-0.004307,-0.015198,0.009906,-3.881342,-74.967501,3.348729
175018,0.008038,-0.039845,0.005179,-3.89085,-74.991123,3.363494
175118,0.014485,-0.0355,0.004911,-3.895508,-75.012306,3.377058
175218,0.019391,-0.022497,0.004964,-3.895696,-75.026022,3.388852
175318,0.019558,-0.01474,0.002392,-3.889115,-75.035392,3.393786
175418,0.019783,-0.002545,0.003879,-3.883947,-75.037737,3.400228
175518,0.017635,0.001507,0.00324,-3.877832,-75.037784,3.40456
175618,0.015854,-0.004915,0.004006,-3.875506,-75.041532,3.411595
175718,0.00926,-0.025947,0.001927,-3.875446,-75.05733,3.417128
175818,0.001398,-0.043879,0.003568,-3.885879,-75.083331,3.428919
175918,-0.004456,-0.060577,0.005041,-3.905294,-75.118871,3.446491
176018,-0.00806,-0.074915,0.008177,-3.935654,-75.162444,3.473277
176118,-0.011919,-0.088295,0.01102,-3.976581,-75.213516,3.508648
176218,-0.012191,-0.090483,0.013913,-4.02441,-75.265689,3.551056
176318,-0.00583,-0.072484,0.007836,-4.052925,-75.307852,3.577191
176418,-0.004297,-0.060035,0.003131,-4.068586,-75.343127,3.59088
176518,-0.006784,-0.057263,-0.000957,-4.076237,-75.376982,3.59491
176618,-0.012966,-0.066451,-0.002459,-4.085655,-75.416117,3.597081
176718,-0.021898,-0.075895,-0.001578,-4.103637,-75.460638,3.602813
176818,-0.028916,-0.087606,-0.000674,-4.129477,-75.511816,3.612559
176918,-0.031626,-0.102134,-0.002997,-4.154148,-75.571377,3.619492
177018,-0.025493,-0.099939,-0.010757,-4.157773,-75.630004,3.608309
177118,-0.013446,-0.077571,-0.019847,-4.130531,-75.676205,3.572375
177218,-0.00791,-0.050068,-0.029199,-4.074517,-75.707058,3.51006
177318,-0.013075,-0.045963,-0.028953,-4.021245,-75.735544,3.447493
177418,-0.01951,-0.070653,-0.025517,-3.983075,-75.777995,3.396727
177518,-0.020511,-0.100458,-0.016107,-3.971217,-75.837101,3.372513
177618,-0.01911,-0.11817,-0.008632,-3.978177,-75.906032,3.368543
177718,-0.01868,-0.112062,-0.010108,-3.98051,-75.971519,3.36006
177818,-0.030908,-0.093772,-0.009159,-3.989052,-76.026509,3.35076
177918,-0.043179,-0.076593,-0.007204,-4.006341,-76.071599,3.343233
178018,-0.050439,-0.069295,-0.003877,-4.034311,-76.112385,3.342425
178118,-0.055668,-0.08063,-0.004308,-4.066243,-76.159669,3.34261
178218,-0.057987,-0.097392,-0.005663,-4.099292,-76.216589,3.342577
178318,-0.044754,-0.104538,-0.008718,-4.118992,-76.277714,3.336601
178418,-0.026285,-0.097786,-0.016395,-4.108998,-76.335283,3.310954
178518,-0.020638,-0.079369,-0.020352,-4.083171,-76.382473,3.272348
178618,-0.023692,-0.068249,-0.012769,-4.074898,-76.422988,3.250012
178718,-0.042432,-0.067717,-0.0063,-4.09245,-76.462932,3.243204
178818,-0.061342,-0.072429,-0.000371,-4.135689,-76.505325,3.251677
178918,-0.077839,-0.085637,0.003647,-4.200394,-76.555098,3.272505
179018,-0.079504,-0.102679,0.002982,-4.267815,-76.614628,3.295137
179118,-0.075779,-0.115451,-0.000422,-4.327659,-76.681585,3.312167
179218,-0.069791,-0.125184,-0.004922,-4.375415,-76.754282,3.320294
179318,-0.058873,-0.117318,-0.013203,-4.395661,-76.822832,3.306577
179418,-0.053516,-0.087581,-0.017346,-4.397254,-76.874561,3.276854
179518,-0.056673,-0.036581,-0.008994,-4.411533,-76.896775,3.2583
179618,-0.051747,0.00604,0.009569,-4.460384,-76.893822,3.278145
179718,-0.066802,0.016055,0.017931,-4.53618,-76.884791,3.31681
179818,-0.103623,-0.033585,0.017468,-4.64139,-76.904141,3.364024
179918,-0.144766,-0.103082,0.014456,-4.776906,-76.963304,3.418154
180018,-0.164676,-0.13396,0.008683,-4.916763,-77.040339,3.465022
180118,-0.138858,-0.125159,-0.004863,-5.007133,-77.11299,3.47628
180218,-0.106909,-0.101187,-0.007619,-5.06755,-77.172084,3.475585
180318,-0.086857,-0.067388,-0.008099,-5.108048,-77.211904,3.46624
180418,-0.078197,-0.043735,-0.014808,-5.12158,-77.238565,3.434327
180518,-0.080993,-0.057986,-0.02037,-5.126039,-77.273646,3.391467
180618,-0.076034,-0.092336,-0.017374,-5.143094,-77.328171,3.364432
180718,-0.059159,-0.117847,-0.00849,-5.179009,-77.396792,3.366637
180818,-0.040878,-0.118887,0.001583,-5.230687,-77.465474,3.395722
180918,-0.031054,-0.108015,0.003786,-5.280142,-77.527829,3.428292
181018,-0.031076,-0.09685,0.00054,-5.318793,-77.583981,3.449783
181118,-0.038429,-0.087164,-0.006594,-5.340939,-77.634986,3.450059
181218,-0.05292,-0.061301,-0.016822,-5.338483,-77.671784,3.416649
181318,-0.064825,-0.040351,-0.017644,-5.335574,-77.696671,3.375796
181418,-0.075188,-0.041173,-0.013207,-5.350459,-77.721792,3.347077
181518,-0.073873,-0.052254,-0.000447,-5.400894,-77.752551,3.35551
181618,-0.068465,-0.061174,0.015071,-5.491507,-77.787548,3.408221
181718,-0.065233,-0.069686,0.028353,-5.617875,-77.826639,3.499404
181818,-0.055828,-0.083521,0.03124,-5.75072,-77.873411,3.602714
181918,-0.055101,-0.101185,0.033253,-5.894082,-77.930081,3.717192
182018,-0.056636,-0.099646,0.025964,-6.01945,-77.986247,3.812351
182118,-0.059596,-0.077695,0.01667,-6.116172,-78.030428,3.876475
182218,-0.064101,-0.039148,0.005621,-6.17508,-78.053307,3.899299
182318,-0.07636,-0.004682,-0.001949,-6.210775,-78.057018,3.891212
182418,-0.097843,0.009385,-0.002325,-6.253745,-78.052747,3.877976
182518,-0.125852,0.011862,0.005123,-6.332095,-78.046609,3.8845
182618,-0.150046,-0.007364,0.027205,-6.489377,-78.050019,3.957538
182718,-0.166641,-0.050011,0.046605,-6.721647,-78.076384,4.097506
182818,-0.175927,-0.086853,0.053654,-6.990976,-78.123099,4.269897
182918,-0.173202,-0.104192,0.051939,-7.261572,-78.179621,4.445152
183018,-0.162247,-0.103927,0.039821,-7.494717,-78.236715,4.588526
183118,-0.150019,-0.094946,0.02467,-7.677782,-78.28974,4.687879
183218,-0.134816,-0.076991,0.011467,-7.810366,-78.333527,4.744557
183318,-0.120477,-0.044476,0.000974,-7.89423,-78.359653,4.759868
183418,-0.112022,-0.017449,-0.00424,-7.948892,-78.370842,4.750301
183518,-0.111406,-0.002585,-0.003114,-8.000818,-78.373498,4.738294
183618,-0.109646,-0.009302,0.005545,-8.078395,-78.379264,4.753501
183718,-0.104519,-0.02127,0.020009,-8.197806,-78.390626,4.814411
183818,-0.094738,-0.02916,0.028289,-8.337832,-78.405732,4.902085
183918,-0.082077,-0.027905,0.031322,-8.478691,-78.41981,4.99801
184018,-0.066384,-0.01202,0.025359,-8.587604,-78.425334,5.070504
184118,-0.049476,0.013399,0.014829,-8.647029,-78.417331,5.102372
184218,-0.032759,0.036837,0.007901,-8.667825,-78.396643,5.104586
184318,-0.016706,0.052148,0.003021,-8.659596,-78.367711,5.086557
184418,0.000671,0.058779,5.9e-05,-8.630702,-78.335282,5.05759
184518,0.009419,0.055779,0.002441,-8.604833,-78.304345,5.036823
184618,0.016358,0.039872,0.010619,-8.604083,-78.281712,5.045764
184718,0.019247,0.01876,0.020158,-8.636432,-78.270213,5.0902
184818,0.013847,-0.008519,0.024709,-8.695558,-78.273761,5.158826
184918,-1.5e-05,-0.027439,0.023336,-8.766846,-78.288117,5.23176
185018,-0.007879,-0.022658,0.019322,-8.829782,-78.30009,5.291561
185118,-0.000705,-0.002271,0.020806,-8.884044,-78.300366,5.346698
185218,0.022595,0.022545,0.019037,-8.909469,-78.286736,5.386023
185318,0.050054,0.052091,0.013684,-8.891868,-78.256865,5.397475
185418,0.063628,0.060443,0.008013,-8.847588,-78.222788,5.389623
185518,0.059457,0.009925,0.000839,-8.807689,-78.217952,5.383804
185618,0.042084,-0.057389,0.001333,-8.807458,-78.251181,5.408335
185718,0.036362,-0.083938,0.00618,-8.835088,-78.298998,5.457969
185818,0.032282,-0.059346,0.010129,-8.865669,-78.332529,5.508221
185918,0.029305,-0.025439,0.016318,-8.900574,-78.346305,5.561142
186018,0.035387,-0.001805,0.018563,-8.928008,-78.34649,5.609994
186118,0.037289,-0.009656,0.019355,-8.959849,-78.351043,5.66446
186218,0.041871,-0.041446,0.018978,-9.001813,-78.373609,5.731941
186318,0.049918,-0.072032,0.017035,-9.047367,-78.413642,5.80779
186418,0.050205,-0.081905,0.011187,-9.081261,-78.45977,5.871895
186518,0.043942,-0.074825,0.003381,-9.094193,-78.502582,5.910938
186618,0.0328,-0.061087,-0.003601,-9.088048,-78.538245,5.923994
186718,0.012032,-0.053065,-0.005509,-9.084906,-78.569535,5.927972
186818,-0.008916,-0.042361,-0.000254,-9.103744,-78.594284,5.942126
186918,-0.031198,-0.026475,0.006651,-9.147704,-78.609414,5.968882
187018,-0.043889,-0.010685,0.017673,-9.222869,-78.614603,6.020051
187118,-0.043696,-0.002281,0.026554,-9.319086,-78.614209,6.092805
187218,-0.04472,-0.004501,0.036401,-9.444545,-78.614125,6.194791
187318,-0.044678,-0.013706,0.04175,-9.589319,-78.618692,6.316504
187418,-0.036183,-0.027593,0.044019,-9.74237,-78.630819,6.45162
187518,-0.0314,-0.036039,0.044603,-9.89876,-78.647578,6.592931
187618,-0.028833,-0.033214,0.039667,-10.038833,-78.663154,6.71909
187718,-0.031817,-0.029505,0.033704,-10.162308,-78.677175,6.826572
187818,-0.03819,-0.03034,0.03145,-10.283767,-78.691845,6.928268
187918,-0.041002,-0.025864,0.034186,-10.412469,-78.703666,7.035705
188018,-0.046084,-0.022935,0.034935,-10.544854,-78.713708,7.143926
188118,-0.052153,-0.018865,0.034132,-10.676485,-78.721497,7.247829
188218,-0.049863,-0.036574,0.032226,-10.811155,-78.739412,7.356163
188318,-0.039947,-0.05216,0.03146,-10.946915,-78.766126,7.471391
188418,-0.029765,-0.049148,0.028138,-11.066368,-78.791443,7.575929
188518,-0.023605,-0.034211,0.02546,-11.166824,-78.808605,7.664691
188618,-0.022937,-0.025234,0.02285,-11.254689,-78.820976,7.741003
188718,-0.019436,-0.024797,0.023112,-11.341214,-78.833048,7.817991
188818,-0.027689,-0.027648,0.023917,-11.436568,-78.846608,7.899155
188918,-0.028712,-0.031627,0.022941,-11.532249,-78.862486,7.980051
189018,-0.030959,-0.024591,0.016936,-11.608209,-78.875079,8.039532
189118,-0.030384,-0.007714,0.007323,-11.646609,-78.879295,8.061066
189218,-0.029305,0.011783,-0.001889,-11.646662,-78.873639,8.04415
189318,-0.031071,0.013987,-0.006089,-11.63447,-78.867242,8.013721
189418,-0.028843,-0.003741,-0.003939,-11.637509,-78.870555,8.000119
189518,-0.022812,-0.027399,0.002862,-11.670364,-78.886359,8.020427
189618,-0.019469,-0.043428,0.003883,-11.713728,-78.911026,8.053397
189718,-0.024429,-0.049995,0.010511,-11.782984,-78.938583,8.109853
189818,-0.029376,-0.03544,0.012234,-11.851531,-78.957749,8.162693
189918,-0.035245,-0.017231,0.01152,-11.910549,-78.966769,8.202397
190018,-0.048087,-0.00396,0.007387,-11.957063,-78.968831,8.221863
190118,-0.060305,-0.003288,0.004402,-12.001637,-78.970869,8.232219
190218,-0.069282,-0.00822,0.001344,-12.045625,-78.976036,8.236737
190318,-0.06364,-0.018489,-0.003707,-12.078194,-78.987564,8.232915
190418,-0.049689,-0.024534,-0.003001,-12.108572,-79.002399,8.235003
190518,-0.035816,-0.025448,-0.00337,-12.130554,-79.017791,8.236636
190618,-0.014012,-0.015572,0.002639,-12.151305,-79.026926,8.24974
190718,0.006436,-0.005179,0.01005,-12.175322,-79.029339,8.278103
190818,0.008548,-0.00017,0.014001,-12.206436,-79.028464,8.314928
190918,-0.000716,0.011743,0.015961,-12.241058,-79.020684,8.349919
191018,-0.020583,-0.008479,0.018884,-12.30815,-79.023866,8.406393
191118,-0.038041,-0.042988,0.023546,-12.420636,-79.045769,8.498912
191218,-0.042784,-0.061848,0.030648,-12.56896,-79.077301,8.625158
191318,-0.04066,-0.069965,0.032978,-12.728914,-79.113021,8.764473
191418,-0.027621,-0.072128,0.029943,-12.874894,-79.150278,8.89715
191518,-0.016888,-0.074639,0.024519,-13.001398,-79.189591,9.016246
191618,-0.016015,-0.090594,0.014633,-13.110053,-79.239061,9.117668
191718,-0.017884,-0.120733,0.005136,-13.213473,-79.306564,9.212655
191818,-0.021713,-0.143338,-0.000852,-13.318364,-79.387432,9.306884
191918,-0.025087,-0.148745,-0.001792,-13.42774,-79.471401,9.403684
192018,-0.030188,-0.13012,0.001636,-13.53854,-79.544498,9.498934
192118,-0.034636,-0.10334,0.000338,-13.629728,-79.602825,9.571628
192218,-0.04043,-0.092117,0.004069,-13.728251,-79.654381,9.648389
192318,-0.043891,-0.098385,0.009143,-13.849943,-79.708712,9.746671
192418,-0.046063,-0.110194,0.011247,-13.989571,-79.769288,9.861898
192518,-0.044398,-0.121525,0.010164,-14.1352,-79.836274,9.984168
192618,-0.039042,-0.128435,0.002531,-14.261157,-79.908128,10.089547
192718,-0.030784,-0.130497,-0.003846,-14.365624,-79.981996,10.177881
192818,-0.02431,-0.129336,-0.012802,-14.438508,-80.056473,10.237892
192918,-0.021333,-0.12726,-0.022199,-14.47907,-80.131129,10.266808
193018,-0.006544,-0.134233,-0.0237,-14.512711,-80.209856,10.297289
193118,0.00841,-0.133473,-0.015801,-14.563326,-80.287015,10.353678
193218,0.026982,-0.124098,-0.007487,-14.62336,-80.357761,10.4304
193318,0.040994,-0.115534,0.004465,-14.708279,-80.42201,10.540486
193418,0.050365,-0.115977,0.015526,-14.826054,-80.484858,10.689314
193518,0.055968,-0.126116,0.022189,-14.973463,-80.552288,10.871414
193618,0.051539,-0.137172,0.022482,-15.136657,-80.625718,11.066907
193718,0.040448,-0.144719,0.018802,-15.303482,-80.703789,11.259598
193818,0.023754,-0.154493,0.01384,-15.475161,-80.787925,11.447473
193918,0.011093,-0.160836,0.009727,-15.649281,-80.876098,11.630427
194018,0.001452,-0.160285,0.008392,-15.827124,-80.964072,11.811514
194118,-0.005009,-0.151078,0.008577,-16.003476,-81.046842,11.987302
194218,-0.003594,-0.142733,0.012492,-16.187452,-81.124301,12.171589
194318,0.004878,-0.135288,0.014719,-16.369845,-81.197211,12.359148
194418,0.009727,-0.130622,0.015995,-16.552079,-81.267258,12.549322
194518,0.007854,-0.129221,0.01443,-16.731193,-81.336709,12.735218
194618,-0.007638,-0.139778,0.01431,-16.933338,-81.411885,12.935395
194718,-0.027021,-0.153668,0.015595,-17.170502,-81.494342,13.159713
194818,-0.050253,-0.165867,0.019396,-17.453628,-81.582666,13.416991
194918,-0.075162,-0.166856,0.028629,-17.792281,-81.669716,13.71591
195018,-0.098231,-0.162097,0.034285,-18.166193,-81.752893,14.037039
195118,-0.108381,-0.152365,0.03559,-18.545478,-81.830232,14.357656
195218,-0.107818,-0.144566,0.031651,-18.905829,-81.903764,14.659412
195318,-0.094941,-0.138398,0.027917,-19.242187,-81.974394,14.944332
195418,-0.070575,-0.147411,0.017865,-19.543567,-82.051584,15.207976
195518,-0.040314,-0.16574,0.012141,-19.836605,-82.139565,15.480646
195618,-0.013044,-0.184658,0.016,-20.163063,-82.236756,15.802756
195718,-0.001282,-0.201866,0.024349,-20.550089,-82.341227,16.192706
195818,0.003284,-0.209095,0.03234,-20.988702,-82.447544,16.63724
195918,-0.000174,-0.204787,0.033798,-21.440939,-82.550778,17.093408
196018,0.009513,-0.185752,0.032222,-21.862212,-82.643743,17.523846
196118,0.024735,-0.152627,0.024817,-22.198288,-82.720339,17.877098
196218,0.024351,-0.129719,0.014571,-22.45907,-82.786798,18.154173
196318,0.00626,-0.122996,0.003002,-22.674452,-82.852109,18.375003
196418,-0.009791,-0.141591,-0.002109,-22.914631,-82.928266,18.61152
196518,-0.018491,-0.163612,0.00024,-23.215485,-83.015352,18.904107
196618,-0.021193,-0.152088,0.001495,-23.508991,-83.095883,19.187679
196718,-0.010419,-0.120654,0.003866,-23.752861,-83.15919,19.427427
196818,-0.006517,-0.098666,0.009998,-23.982953,-83.209426,19.655523
196918,-0.00177,-0.09646,0.015314,-24.232824,-83.257146,19.90625
197018,0.001757,-0.108442,0.01973,-24.52804,-83.30993,20.204645
197118,0.004513,-0.131697,0.01711,-24.862674,-83.375248,20.544279
197218,0.004885,-0.145296,0.012787,-25.212978,-83.448428,20.899854
197318,0.010984,-0.142952,0.008504,-25.542906,-83.521192,21.238386
197418,0.015021,-0.12461,0.006402,-25.82747,-83.584787,21.533547
197518,0.017204,-0.104991,-0.000735,-26.039073,-83.639908,21.756516
197618,0.015307,-0.095034,-0.005224,-26.211754,-83.690947,21.939206
197718,0.008362,-0.085568,-0.011881,-26.338095,-83.738751,22.071255
197818,0.003198,-0.071133,-0.011682,-26.436378,-83.77906,22.172092
197918,-0.005551,-0.057434,-0.010769,-26.512827,-83.812085,22.245917
198018,-0.011844,-0.054671,-0.012242,-26.580027,-83.844053,22.306807
198118,-0.005437,-0.064699,-0.011077,-26.673775,-83.880837,22.398087
198218,-0.000819,-0.081348,-0.005798,-26.831703,-83.924737,22.556564
198318,-0.000951,-0.08539,-0.005028,-27.005674,-83.970431,22.731085
198418,0.006885,-0.083059,-0.002404,-27.184657,-84.014173,22.915144
198518,0.004733,-0.079506,-0.00323,-27.354333,-84.056249,23.088592
198618,0.004037,-0.068341,-0.009222,-27.468603,-84.094181,23.205922
198718,0.000822,-0.060883,-0.015855,-27.533946,-84.130064,23.272208
198818,-0.008224,-0.055344,-0.021404,-27.563098,-84.164604,23.2969
198918,-0.016578,-0.04524,-0.027661,-27.539531,-84.195669,23.263787
199018,-0.022894,-0.039459,-0.028841,-27.498089,-84.224103,23.209073
199118,-0.022743,-0.034227,-0.031713,-27.42777,-84.250619,23.125424
199218,-0.010223,-0.036191,-0.029723,-27.36478,-84.277585,23.056354
199318,0.001797,-0.037792,-0.029675,-27.298685,-84.305328,22.991087
199418,0.011317,-0.035359,-0.02766,-27.230328,-84.331282,22.929032
199518,0.01514,-0.027523,-0.026538,-27.144115,-84.352935,22.851237
199618,0.014632,-0.018918,-0.023262,-27.051656,-84.369338,22.766875
199718,0.008723,-0.017676,-0.021277,-26.969069,-84.384591,22.689035
199818,0.004346,-0.02303,-0.02014,-26.908678,-84.402286,22.63098
199918,0.003752,-0.04108,-0.012828,-26.934518,-84.427308,22.659226
200018,0.008701,-0.061946,-0.00355,-27.062617,-84.460556,22.793061
200118,0.023063,-0.076851,0.003162,-27.260242,-84.499591,23.005003
200218,0.043037,-0.085501,0.010497,-27.512439,-84.540981,23.283248
200318,0.060857,-0.086596,0.016997,-27.796477,-84.581039,23.603712
200418,0.085508,-0.075245,0.022236,-28.066772,-84.613759,23.924538
200518,0.110557,-0.060162,0.030939,-28.329797,-84.636335,24.252459
200618,0.136639,-0.058412,0.039983,-28.624566,-84.655383,24.627258
200718,0.164947,-0.077415,0.050345,-29.018801,-84.680875,25.118228
200818,0.193796,-0.105518,0.065176,-29.567301,-84.715847,25.780697
200918,0.221774,-0.125788,0.082472,-30.265527,-84.755232,26.60958
201018,0.264165,-0.121554,0.107028,-31.069995,-84.784287,27.56949
201118,0.246195,-0.143745,0.113883,-32.006029,-84.820741,28.651118
201218,0.278963,-0.146243,0.129392,-33.028951,-84.851889,29.838779
201318,0.293779,-0.140734,0.134724,-34.064999,-84.876729,31.048088
201418,0.289365,-0.154664,0.13245,-35.153695,-84.906817,32.307664
201518,0.274159,-0.152315,0.126328,-36.223419,-84.935705,33.539389
201618,0.249317,-0.129911,0.10942,-37.144166,-84.958168,34.60722
201718,0.218693,-0.145821,0.088017,-38.044849,-84.993823,35.637248
201818,0.180334,-0.199559,0.072764,-39.126198,-85.057413,36.826488
201918,0.147036,-0.24497,0.060823,-40.391662,-85.143218,38.181237
202018,0.143979,-0.250644,0.047178,-41.660469,-85.233976,39.537407
202118,0.170446,-0.239803,0.047459,-42.913258,-85.317445,40.892549
202218,0.210364,-0.229729,0.048562,-44.144774,-85.393791,42.249139
202318,0.256019,-0.221215,0.042647,-45.318695,-85.466663,43.57405
202418,0.284654,-0.217872,0.035453,-46.461921,-85.538941,44.884496
202518,0.306705,-0.214338,0.028553,-47.577778,-85.610617,46.180034
202618,0.31885,-0.213053,0.024314,-48.697159,-85.681575,47.485962
202718,0.32452,-0.218091,0.019042,-49.856155,-85.754651,48.83475
202818,0.319048,-0.225176,0.016745,-51.092755,-85.829138,50.25808
202918,0.297143,-0.229901,0.015357,-52.411779,-85.903514,51.751332
203018,0.259947,-0.23322,0.014792,-53.821452,-85.976647,53.313957
203118,0.216958,-0.237696,0.017344,-55.351463,-86.047156,54.972388
203218,0.181804,-0.238298,0.015086,-56.951315,-86.115704,56.680494
203318,0.159089,-0.23857,0.009647,-58.599088,-86.18359,58.423449
203418,0.148484,-0.235102,0.001123,-60.248725,-86.251234,60.162046
203518,0.145484,-0.23832,-0.012815,-61.92684,-86.323362,61.92732
203618,0.152995,-0.233138,-0.02717,-63.566624,-86.398063,63.658352
203718,0.172918,-0.243425,-0.040144,-65.299929,-86.478706,65.494376
203818,0.178548,-0.249792,-0.049744,-67.130573,-86.562228,67.430989
203918,0.175391,-0.254864,-0.072486,-69.019699,-86.655021,69.424195
204018,0.179636,-0.232863,-0.073703,-70.799191,-86.740261,71.30984
204118,0.161443,-0.21042,-0.0653,-72.488583,-86.813498,73.094653
204218,0.14652,-0.210556,-0.063239,-74.271807,-86.882507,74.964751
204318,0.136082,-0.20114,-0.062182,-76.04419,-86.946286,76.817887
204418,0.129146,-0.178551,-0.065958,-77.643163,-87.006232,78.493283
204518,0.120581,-0.161764,-0.072183,-79.113112,-87.065318,80.034476
204618,0.115463,-0.146704,-0.077504,-80.465181,-87.123869,81.454618
204718,0.11233,-0.138247,-0.081575,-81.769313,-87.182266,82.824893
204818,0.115495,-0.122118,-0.084073,-82.931177,-87.239339,84.054477
204918,0.123129,-0.102062,-0.083981,-83.894325,-87.293885,85.089439
205018,0.134017,-0.086467,-0.082985,-84.69865,-87.346167,85.971602
205118,0.148724,-0.087092,-0.083886,-85.532739,-87.398361,86.891955
205218,0.171457,-0.090407,-0.085555,-86.428133,-87.450962,87.886675
205318,0.205189,-0.083113,-0.089262,-87.242861,-87.504744,88.819953
205418,0.239315,-0.057618,-0.094998,-87.727857,-87.560668,89.442722
205518,0.264002,-0.020041,-0.102467,-87.70028,-87.619867,89.566592
205618,0.27621,0.024231,-0.105727,-87.037121,-87.679757,89.061338
205718,0.276797,0.059275,-0.103058,-85.834558,-87.736482,88.016601
205818,0.26406,0.10167,-0.10219,-83.953118,-87.789371,86.285203
205918,0.246556,0.166084,-0.103246,-81.022068,-87.835136,83.493444
206018,0.221372,0.25046,-0.109403,-76.69541,-87.868181,79.290725
206118,0.191645,0.312288,-0.118252,-71.318032,-87.882887,74.019577
206218,0.144235,0.343255,-0.121425,-65.48028,-87.873561,68.260558
206318,0.09284,0.347348,-0.11935,-59.739431,-87.840608,62.568954
206418,0.056195,0.335854,-0.119601,-54.378771,-87.790907,57.236642
206518,0.044357,0.327508,-0.115739,-49.429211,-87.724338,52.308739
206618,0.079489,0.339357,-0.10573,-44.756367,-87.632995,47.677649
206718,0.132633,0.326418,-0.078388,-40.814038,-87.522644,43.807862
206818,0.187047,0.26596,-0.059428,-37.85043,-87.422627,40.948645
206918,0.259904,0.180616,-0.049629,-35.781596,-87.353047,39.026728
207018,0.306306,0.074069,-0.05666,-34.452695,-87.333254,37.872087
207118,0.318251,-0.031516,-0.077091,-33.646053,-87.369229,37.247121
207218,0.299131,-0.100109,-0.098682,-33.077172,-87.444538,36.849219
207318,0.249065,-0.09698,-0.110723,-32.351078,-87.521892,36.265258
207418,0.173796,-0.051915,-0.105296,-31.367955,-87.5753,35.380891
207518,0.076128,0.013221,-0.089876,-30.13013,-87.591378,34.185603
207618,-0.041499,0.079956,-0.071085,-28.729243,-87.567705,32.759644
207718,-0.160929,0.129513,-0.054179,-27.321016,-87.512973,31.257803
207818,-0.246287,0.158889,-0.037619,-26.050239,-87.437504,29.844514
207918,-0.291899,0.173512,-0.014216,-25.069431,-87.347573,28.695243
208018,-0.306457,0.171298,0.002704,-24.362544,-87.254112,27.811763
208118,-0.306199,0.148351,0.009858,-23.890944,-87.17072,27.163936
208218,-0.298998,0.103757,0.008007,-23.629194,-87.111124,26.730316
208318,-0.272231,0.053387,0.003182,-23.540363,-87.079192,26.48518
208418,-0.221213,0.004841,-0.002262,-23.585806,-87.074151,26.403761
208518,-0.164975,-0.03833,-0.004173,-23.77378,-87.092334,26.497325
208618,-0.113694,-0.064941,-0.002891,-24.070207,-87.124227,26.7289
208718,-0.083506,-0.078472,0.00502,-24.502616,-87.161314,27.113937
208818,-0.091179,-0.05733,0.0171,-24.973804,-87.1844,27.533392
208918,-0.118799,-0.019558,0.026361,-25.376176,-87.185517,27.8681
209018,-0.16524,0.022868,0.028271,-25.611409,-87.164158,28.008828
209118,-0.21305,0.048931,0.021098,-25.666775,-87.131119,27.942043
209218,-0.247724,0.05117,0.011382,-25.631139,-87.099353,27.76425
209318,-0.280301,0.037631,0.001387,-25.579699,-87.077071,27.551937
209418,-0.305086,0.012723,-0.012385,-25.523982,-87.071081,27.321121
209518,-0.327283,-0.007091,-0.021867,-25.479746,-87.077687,27.089065
209618,-0.337943,-0.019626,-0.025504,-25.463556,-87.091683,26.878978
209718,-0.332552,-0.038127,-0.02681,-25.519085,-87.115586,26.743798
209818,-0.318795,-0.053559,-0.028524,-25.624089,-87.147906,26.666049
209918,-0.302632,-0.063466,-0.030372,-25.750452,-87.185809,26.618958
210018,-0.289139,-0.07279,-0.02666,-25.957762,-87.227602,26.660652
210118,-0.283253,-0.089056,-0.024673,-26.273407,-87.277256,26.814178
210218,-0.277155,-0.115034,-0.024254,-26.742207,-87.340077,27.124519
210318,-0.268535,-0.146988,-0.022424,-27.431063,-87.418575,27.660071
210418,-0.253378,-0.184259,-0.022683,-28.378103,-87.515657,28.462713
210518,-0.224907,-0.21576,-0.024639,-29.568869,-87.62839,29.525562
210618,-0.189782,-0.237359,-0.024581,-31.012338,-87.750724,30.861369
210718,-0.150733,-0.253366,-0.023315,-32.740632,-87.878924,32.504479
210818,-0.110319,-0.252611,-0.020039,-34.696638,-88.003639,34.398482
210918,-0.073618,-0.233211,-0.015541,-36.744105,-88.115368,36.404899
211018,-0.038505,-0.195175,-0.010796,-38.651878,-88.205772,38.291561
211118,-0.002639,-0.151016,-0.003432,-40.295134,-88.272036,39.934057
211218,0.032822,-0.127088,0.002381,-41.816578,-88.324359,41.474962
211318,0.065221,-0.134696,0.004731,-43.55545,-88.377658,43.251912
211418,0.089297,-0.154024,0.003744,-45.670667,-88.437497,45.419099
211518,0.107747,-0.156777,0.00736,-48.037364,-88.494505,47.848369
211618,0.105154,-0.112506,0.021199,-50.020511,-88.526379,49.892421
211718,0.076517,-0.043628,0.040196,-51.155141,-88.523326,51.071247
211818,0.050132,0.017079,0.068895,-51.63716,-88.485298,51.58213
211918,0.038386,0.055818,0.09336,-51.776572,-88.422448,51.743562
212018,0.027345,0.065307,0.113412,-52.006824,-88.347195,51.98955
212118,0.03072,0.089776,0.1257,-51.990802,-88.257754,51.991106
212218,0.027626,0.107853,0.143245,-51.914653,-88.154012,51.930737
212318,0.010102,0.126064,0.153413,-51.719279,-88.039246,51.741032
212418,-0.007666,0.149977,0.160088,-51.324007,-87.912943,51.341111
212518,-0.032628,0.184065,0.159201,-50.587256,-87.77461,50.585129
212618,-0.053413,0.219221,0.150424,-49.497329,-87.626772,49.463701
212718,-0.056226,0.251755,0.141012,-48.139657,-87.469801,48.072553
212818,-0.048617,0.291374,0.124188,-46.444574,-87.302988,46.34784
212918,-0.030186,0.357309,0.11415,-44.327703,-87.111189,44.211166
213018,0.008541,0.470636,0.129573,-41.773804,-86.86176,41.658675
213118,0.062803,0.590666,0.160283,-39.067372,-86.5426,38.983859
213218,0.126762,0.684528,0.193669,-36.531764,-86.162481,36.515966
213318,0.154619,0.716147,0.199235,-34.331599,-85.759592,34.399236
213418,0.152346,0.735212,0.192173,-32.394789,-85.344705,32.54425
213518,0.148804,0.755461,0.201235,-30.75486,-84.912982,30.984087
213618,0.137356,0.712655,0.207024,-29.527699,-84.497744,29.830864
213718,0.08917,0.584199,0.183464,-28.722316,-84.151731,29.07303
213818,0.004556,0.379258,0.140778,-28.367931,-83.920037,28.719527
213918,-0.079638,0.149513,0.099661,-28.467266,-83.815468,28.773737
214018,-0.113896,-0.048553,0.079051,-28.989082,-83.816245,29.233166
214118,-0.099862,-0.1968,0.064864,-29.82819,-83.894568,30.019772
214218,-0.044992,-0.335672,0.045032,-30.952431,-84.045938,31.124537
214318,0.049062,-0.471173,0.020979,-32.375086,-84.268077,32.58306
214418,0.178177,-0.531558,-0.008266,-33.89422,-84.524479,34.212236
214518,0.32546,-0.505895,-0.032033,-35.266319,-84.772368,35.777791
214618,0.47116,-0.404945,-0.044689,-36.238536,-84.974443,37.0251
214718,0.586852,-0.276123,-0.040766,-36.733294,-85.114323,37.859358
214818,0.656958,-0.136007,-0.018486,-36.769653,-85.181847,38.273745
214918,0.67073,0.018694,0.012435,-36.342549,-85.167697,38.230918
215018,0.625216,0.1617,0.036604,-35.513174,-85.079016,37.758183
215118,0.520358,0.239982,0.066363,-34.6354,-84.943246,37.176479
215218,0.390893,0.237449,0.107149,-34.091374,-84.794902,36.855265
215318,0.262823,0.205615,0.145706,-33.948174,-84.649206,36.86282
215418,0.177885,0.188912,0.17208,-34.042218,-84.503082,37.059811
215518,0.126036,0.181593,0.188275,-34.259319,-84.355284,37.35065
215618,0.054409,0.149926,0.178884,-34.561755,-84.225494,37.686082
215718,-0.035227,0.074,0.128721,-34.913848,-84.147751,38.019871
215818,-0.102273,-0.038048,0.07495,-35.411388,-84.140065,38.461281
215918,-0.122757,-0.128962,0.029884,-36.014064,-84.189361,38.99656
216018,-0.104893,-0.178476,-0.006553,-36.617769,-84.273326,39.543096
216118,-0.06425,-0.197,-0.029054,-37.176194,-84.372959,40.067439
216218,-0.013696,-0.204095,-0.038547,-37.706414,-84.478616,40.592449
216318,0.02439,-0.220676,-0.042205,-38.280274,-84.592528,41.183117
216418,0.049943,-0.232194,-0.037035,-38.934369,-84.709101,41.86896
216518,0.066057,-0.2355,-0.025841,-39.677414,-84.822237,42.653266
216618,0.071966,-0.223539,-0.01281,-40.465148,-84.924302,43.485702
216718,0.059999,-0.196887,-0.006406,-41.209199,-85.011363,44.267278
216818,0.034331,-0.182555,-0.002251,-41.951952,-85.089768,45.03269
216918,-0.000794,-0.195924,-0.001201,-42.806437,-85.172469,45.889946
217018,-0.03111,-0.21486,-0.002808,-43.790822,-85.262495,46.860014
217118,-0.052806,-0.222849,-0.008295,-44.837854,-85.356516,47.880335
217218,-0.070437,-0.217453,-0.014797,-45.877233,-85.449446,48.882708
217318,-0.092211,-0.206809,-0.02049,-46.885946,-85.539043,49.841676
217418,-0.116767,-0.215399,-0.024698,-47.975636,-85.632308,50.86763
217518,-0.136701,-0.256405,-0.030136,-49.333644,-85.741686,52.151071
217618,-0.133732,-0.288276,-0.047462,-50.8673,-85.867885,53.612137
217718,-0.106672,-0.279362,-0.068995,-52.312915,-85.997716,55.000246
217818,-0.05937,-0.239988,-0.087791,-53.462723,-86.120219,56.118798
217918,-0.001793,-0.196543,-0.096566,-54.300174,-86.23072,56.957201
218018,0.046253,-0.179261,-0.108673,-54.971247,-86.340368,57.656355
218118,0.085969,-0.199989,-0.123597,-55.742402,-86.463184,58.478495
218218,0.13538,-0.225668,-0.134552,-56.690623,-86.598556,59.506272
218318,0.18338,-0.246589,-0.13301,-57.87873,-86.738422,60.80174
218418,0.209711,-0.237806,-0.131051,-59.093409,-86.873029,62.138754
218518,0.207266,-0.211358,-0.136256,-60.143564,-87.000982,63.309435
218618,0.190731,-0.187932,-0.151478,-60.983188,-87.128837,64.259684
218718,0.169952,-0.190343,-0.173189,-61.820774,-87.267523,65.195858
218818,0.146815,-0.20628,-0.199438,-62.793994,-87.423022,66.254422
218918,0.145194,-0.202941,-0.225257,-63.702832,-87.590045,67.247474
219018,0.156112,-0.177548,-0.244862,-64.287704,-87.760211,67.922424
219118,0.193926,-0.155984,-0.258283,-64.553737,-87.931766,68.299908
219218,0.243475,-0.157959,-0.265436,-64.827001,-88.107427,68.712987
219318,0.271157,-0.186985,-0.271895,-65.608422,-88.293259,69.650293
219418,0.266612,-0.17634,-0.276992,-66.346259,-88.478828,70.541294
219518,0.224696,-0.086363,-0.265421,-65.438209,-88.637271,69.761788
219618,0.15192,0.054572,-0.235638,-61.363202,-88.743298,65.772825
219718,0.074755,0.221116,-0.213984,-53.199569,-88.776946,57.65016
219818,0.011101,0.374451,-0.198631,-42.306702,-88.715051,46.761085
219918,-0.048777,0.492052,-0.185251,-31.568395,-88.550626,35.991809
220018,-0.113899,0.58024,-0.167625,-22.924418,-88.295744,27.279317
220118,-0.195923,0.61718,-0.14431,-16.878648,-87.988165,21.118085
220218,-0.206522,0.611552,-0.103759,-13.067152,-87.661973,17.185449
220318,-0.231386,0.564981,-0.050807,-10.974926,-87.348549,14.958554
220418,-0.218081,0.468827,-0.013885,-9.919663,-87.083158,13.776961
220518,-0.208588,0.276286,0.008742,-9.606828,-86.923893,13.344043
220618,-0.211609,0.051433,0.003892,-9.665637,-86.892343,13.281548
220718,-0.216844,-0.142646,-0.026522,-9.756215,-86.973598,13.247875
220818,-0.148356,-0.264486,-0.087367,-9.358853,-87.129677,12.764916
220918,-0.049514,-0.327708,-0.159614,-8.093514,-87.327603,11.469741
221018,-0.002656,-0.33616,-0.216158,-5.859663,-87.532347,9.232162
221118,-0.057035,-0.242387,-0.2306,-2.977225,-87.679478,6.314537
221218,-0.178409,-0.073087,-0.207509,-0.126038,-87.722942,3.358781
221318,-0.292236,0.129079,-0.145036,1.7553,-87.646129,1.308356
221418,-0.360564,0.298108,-0.074887,2.426612,-87.472217,0.429685
221518,-0.404338,0.361477,-0.024409,2.32868,-87.263129,0.295836
221618,-0.416403,0.323082,0.021388,1.725116,-87.077117,0.6613
221718,-0.420182,0.225298,0.075511,0.618819,-86.947644,1.528072
221818,-0.406203,0.113977,0.129273,-0.971554,-86.880974,2.887731
221918,-0.357553,0.016648,0.174667,-2.99003,-86.866987,4.704105
222018,-0.274615,-0.06269,0.194986,-5.2278,-86.893928,6.787684
222118,-0.171921,-0.112594,0.180944,-7.361009,-86.945892,8.825402
222218,-0.073843,-0.124321,0.141129,-9.097927,-87.004085,10.522447
222318,-0.010593,-0.11574,0.095967,-10.351315,-87.059478,11.771513
222418,0.010964,-0.096913,0.055941,-11.151227,-87.10741,12.578826
222518,-0.010619,-0.068972,0.028848,-11.618823,-87.142279,13.040993
222618,-0.065075,-0.048417,0.011018,-11.876566,-87.16757,13.261795
222718,-0.138754,-0.04176,0.007417,-12.122731,-87.189518,13.428734
222818,-0.211542,-0.022926,0.016308,-12.467768,-87.199799,13.652906
222918,-0.264267,0.011014,0.031842,-12.933853,-87.189085,13.968026
223018,-0.294733,0.037119,0.054893,-13.603716,-87.160649,14.469699
223118,-0.29278,0.045439,0.072571,-14.433051,-87.124834,15.13218
223218,-0.263051,0.027456,0.077402,-15.332811,-87.097793,15.882248
223318,-0.223684,-0.017455,0.066279,-16.214966,-87.096684,16.637284
223418,-0.174682,-0.081243,0.051622,-17.121415,-87.132418,17.444745
223518,-0.11607,-0.134858,0.038746,-18.065722,-87.199014,18.323698
223618,-0.055098,-0.174136,0.029254,-19.064637,-87.287932,19.292238
223718,-0.000496,-0.208318,0.023681,-20.179616,-87.395497,20.408204
223818,0.03777,-0.216901,0.02125,-21.378495,-87.507082,21.63
223918,0.050714,-0.194081,0.020399,-22.550299,-87.605564,22.832021
224018,0.041047,-0.145528,0.02065,-23.554087,-87.677389,23.860262
224118,0.019304,-0.09329,0.026375,-24.395706,-87.719832,24.713693
224218,0.00139,-0.058209,0.034147,-25.163479,-87.741668,25.482926
224318,0.001417,-0.042175,0.039474,-25.913111,-87.75349,26.23401
224418,0.019428,-0.045397,0.04864,-26.801171,-87.764208,27.133949
224518,0.045536,-0.064939,0.057549,-27.933219,-87.781902,28.29302
224618,0.077899,-0.0974,0.063508,-29.379082,-87.813267,29.784674
224718,0.105495,-0.124729,0.066633,-31.105998,-87.855662,31.573367
224818,0.130916,-0.13653,0.072409,-33.062844,-87.899828,33.606671
224918,0.148132,-0.134423,0.086975,-35.262335,-87.935527,35.892597
225018,0.15127,-0.103092,0.101086,-37.407989,-87.948767,38.126415
225118,0.150795,-0.049875,0.122499,-39.302483,-87.92761,40.108642
225218,0.143104,0.002492,0.151248,-40.961505,-87.870662,41.85088
225318,0.139693,0.032298,0.179351,-42.540175,-87.788444,43.510833
225418,0.138844,0.044259,0.201838,-44.113321,-87.690683,45.164872
225518,0.136719,0.041905,0.208642,-45.642741,-87.589382,46.774046
225618,0.133406,0.032567,0.208932,-47.137641,-87.489922,48.346888
225718,0.097364,0.027301,0.19456,-48.463953,-87.396948,49.730419
225818,0.091391,0.040516,0.171231,-49.39175,-87.307877,50.711683
225918,0.083513,0.082787,0.146511,-49.692578,-87.21338,51.060815
226018,0.075835,0.158493,0.126344,-49.172528,-87.099474,50.583684
226118,0.075194,0.253468,0.112896,-47.824862,-86.954891,49.2774
226218,0.081093,0.352332,0.106122,-45.816037,-86.772426,47.312154
226318,0.10551,0.447926,0.104707,-43.366115,-86.547438,44.918684
226418,0.148464,0.53883,0.11279,-40.717078,-86.274642,42.349744
226518,0.216344,0.621055,0.12745,-38.068646,-85.952924,39.819531
226618,0.269869,0.688487,0.134596,-35.525038,-85.590359,37.424117
226718,0.291615,0.705512,0.144731,-33.341477,-85.209513,35.401219
226818,0.253222,0.706542,0.136909,-31.445225,-84.825082,33.643512
226918,0.198582,0.707872,0.135037,-29.819791,-84.4361,32.125304
227018,0.138117,0.644682,0.139669,-28.623091,-84.074151,31.002208
227118,0.032178,0.515731,0.12971,-27.887443,-83.778285,30.281061
227218,-0.038193,0.318984,0.082653,-27.503976,-83.594188,29.873351
227318,-0.041909,0.085259,0.027169,-27.434843,-83.543545,29.779731
227418,0.004822,-0.140138,-0.010253,-27.700805,-83.617451,30.050263
227518,0.062914,-0.344435,-0.03939,-28.309618,-83.80241,30.699137
227618,0.115688,-0.459032,-0.052472,-29.168913,-84.047688,31.630043
227718,0.16868,-0.473248,-0.067492,-30.04088,-84.30281,32.603778
227818,0.218456,-0.393265,-0.077803,-30.671648,-84.52005,33.363416
227918,0.280581,-0.239535,-0.076486,-30.84012,-84.660671,33.694212
228018,0.332044,-0.108716,-0.059943,-30.66161,-84.732017,33.706091
228118,0.383363,-0.014117,-0.042422,-30.246446,-84.751544,33.509842
228218,0.43103,0.073152,-0.021638,-29.644401,-84.721634,33.153349
228318,0.444338,0.156591,0.002525,-28.921509,-84.64288,32.683114
228418,0.428848,0.205639,0.027384,-28.216931,-84.53211,32.222288
228518,0.384491,0.211016,0.047811,-27.652338,-84.412691,31.87648
228618,0.32036,0.174617,0.065243,-27.328092,-84.306955,31.735199
228718,0.24396,0.111472,0.076723,-27.276894,-84.230373,31.824319
228818,0.156373,0.047868,0.079545,-27.453296,-84.185478,32.091776
228918,0.052605,-0.020011,0.07065,-27.818373,-84.177348,32.489133
229018,-0.033609,-0.118336,0.04089,-28.346442,-84.226695,33.000653
229118,-0.077314,-0.220687,0.015107,-29.063574,-84.334051,33.676943
229218,-0.087579,-0.289411,-0.004489,-29.914928,-84.480305,34.482036
229318,-0.08775,-0.321037,-0.013588,-30.862378,-84.643587,35.38335
229418,-0.087799,-0.312948,-0.020227,-31.805335,-84.80345,36.279882
229518,-0.085397,-0.273392,-0.021416,-32.659984,-84.94317,37.088919
229618,-0.077178,-0.221471,-0.021551,-33.366356,-85.056959,37.753683
229718,-0.055882,-0.173171,-0.017247,-33.934315,-85.14566,38.29167
229818,-0.037772,-0.142162,-0.004369,-34.465001,-85.215048,38.802604
229918,-0.023004,-0.136448,0.012316,-35.07472,-85.27584,39.401284
230018,-0.023801,-0.153539,0.023708,-35.835883,-85.340211,40.151407
230118,-0.034968,-0.176527,0.029821,-36.757583,-85.412206,41.056099
230218,-0.056561,-0.183953,0.036184,-37.790212,-85.484113,42.059568
230318,-0.081641,-0.184346,0.052532,-38.9656,-85.548814,43.191725
230418,-0.106856,-0.166974,0.068497,-40.196702,-85.598113,44.365188
230518,-0.118587,-0.149293,0.093121,-41.51216,-85.628456,45.616452
230618,-0.124987,-0.132889,0.111344,-42.865483,-85.642542,46.901977
230718,-0.123948,-0.110247,0.127674,-44.195648,-85.638435,48.164869
230818,-0.11674,-0.083464,0.137998,-45.430062,-85.617081,49.335895
230918,-0.108689,-0.053277,0.142209,-46.506592,-85.580135,50.353246
231018,-0.102397,-0.020591,0.140932,-47.378854,-85.52958,51.169389
231118,-0.095391,0.014275,0.138421,-48.028177,-85.465778,51.765996
231218,-0.089663,0.039008,0.130186,-48.486115,-85.395578,52.173957
231318,-0.08178,0.048151,0.119376,-48.828495,-85.32631,52.470554
231418,-0.055674,0.04526,0.103541,-49.090213,-85.264816,52.701254
231518,-0.00824,0.038713,0.086035,-49.274636,-85.21326,52.881685
231618,0.057291,0.031764,0.070067,-49.383439,-85.17117,53.023922
231718,0.13059,0.015321,0.052578,-49.456241,-85.142774,53.172187
231818,0.192781,-0.011832,0.037315,-49.56494,-85.131079,53.392247
231918,0.246731,-0.026224,0.028087,-49.67602,-85.128683,53.645726
232018,0.304751,0.006737,0.019907,-49.54963,-85.11758,53.694244
232118,0.355028,0.08854,0.007945,-48.929019,-85.081054,53.275642
232218,0.385342,0.158557,-0.014367,-47.856468,-85.026888,52.42082
232318,0.356725,0.210399,-0.048211,-46.424403,-84.965109,51.188574
232418,0.261637,0.240857,-0.081859,-44.787861,-84.902026,49.696236
232518,0.107942,0.28499,-0.118657,-42.916033,-84.831304,47.879092
232618,-0.059662,0.364047,-0.161138,-40.667562,-84.737233,45.58707
232718,-0.171428,0.478368,-0.19965,-37.950761,-84.597521,42.759933
232818,-0.205358,0.61528,-0.196641,-34.951112,-84.380754,39.62827
232918,-0.171918,0.696649,-0.168819,-32.058247,-84.10117,36.621851
233018,-0.127311,0.619916,-0.176394,-29.578568,-83.847838,34.055163
233118,-0.141945,0.366568,-0.208227,-27.767863,-83.720857,32.152047
233218,-0.195268,0.037777,-0.23544,-26.690601,-83.763501,30.955877
233318,-0.254816,-0.233687,-0.245419,-26.216762,-83.946277,30.33256
233418,-0.29208,-0.424483,-0.247729,-26.18692,-84.227504,30.134414
233518,-0.330302,-0.531039,-0.245373,-26.462465,-84.562945,30.221224
233618,-0.339878,-0.562756,-0.235605,-26.914977,-84.912072,30.48019
233718,-0.323569,-0.489663,-0.218903,-27.281571,-85.219377,30.662164
233818,-0.323622,-0.315681,-0.194787,-27.260803,-85.431679,30.455384
233918,-0.330039,-0.088504,-0.154623,-26.736329,-85.517452,29.739676
234018,-0.313339,0.118208,-0.106527,-25.831929,-85.484101,28.652492
234118,-0.293509,0.258426,-0.075958,-24.710584,-85.369122,27.358958
234218,-0.264153,0.289389,-0.048349,-23.72055,-85.229616,26.213822
234318,-0.202691,0.245256,-0.017083,-23.063936,-85.104904,25.438418
234418,-0.135401,0.157958,0.020987,-22.854971,-85.017286,25.150907
234518,-0.096824,0.042989,0.060298,-23.158198,-84.98156,25.399706
234618,-0.108447,-0.061927,0.06978,-23.79457,-84.998678,25.976247
234718,-0.149583,-0.143027,0.055407,-24.594224,-85.060965,26.692993
234818,-0.172569,-0.193227,0.03208,-25.429182,-85.154101,27.431868
234918,-0.175826,-0.225503,0.012578,-26.274124,-85.267827,28.178773
235018,-0.165016,-0.252141,-0.001264,-27.150088,-85.397804,28.962884
235118,-0.150452,-0.271295,-0.008956,-28.081358,-85.538522,29.810693
235218,-0.14136,-0.285569,-0.022615,-29.02636,-85.689043,30.677327
235318,-0.133928,-0.285143,-0.036218,-29.937251,-85.842087,31.513851
235418,-0.131357,-0.270325,-0.046463,-30.778697,-85.989797,32.282068
235518,-0.133211,-0.233876,-0.054012,-31.466296,-86.121108,32.894873
235618,-0.144304,-0.188895,-0.053087,-32.004137,-86.229751,33.351128
235718,-0.177029,-0.143068,-0.050544,-32.390011,-86.315142,33.636252
235818,-0.21502,-0.115157,-0.045209,-32.717398,-86.38529,33.840933
235918,-0.259354,-0.138385,-0.037771,-33.255955,-86.464187,34.231725
236018,-0.293685,-0.18357,-0.030983,-34.128671,-86.562169,34.93755
236118,-0.303437,-0.247201,-0.023991,-35.470639,-86.686968,36.107761
236218,-0.289086,-0.300197,-0.018158,-37.278699,-86.832307,37.752882
236318,-0.260051,-0.329243,-0.013367,-39.473503,-86.985663,39.801731
236418,-0.222188,-0.335738,-0.011371,-41.936128,-87.136482,42.140186
236518,-0.184871,-0.334885,-0.010202,-44.640838,-87.280926,44.742115
236618,-0.150044,-0.329558,-0.00159,-47.638981,-87.413208,47.657468
236718,-0.114891,-0.311487,0.013853,-50.868074,-87.524487,50.823874
236818,-0.076256,-0.26086,0.03213,-53.945871,-87.601879,53.860776
236918,-0.034886,-0.185196,0.049915,-56.442947,-87.639754,56.340052
237018,0.003513,-0.113701,0.066177,-58.256899,-87.643767,58.157605
237118,0.031007,-0.061587,0.078291,-59.518828,-87.62439,59.438441
237218,0.034438,-0.044844,0.079939,-60.568605,-87.598343,60.508926
237318,0.01841,-0.061835,0.07883,-61.79916,-87.576668,61.751174
237418,0.015158,-0.094304,0.07982,-63.403915,-87.561767,63.366107
237518,0.026181,-0.10309,0.084116,-65.111646,-87.544867,65.090447
237618,0.034347,-0.082674,0.087915,-66.560655,-87.519177,66.560532
237718,0.017609,-0.021467,0.091402,-67.266704,-87.476717,67.277382
237818,-0.021378,0.053263,0.099939,-67.132549,-87.413006,67.130858
237918,-0.068202,0.126063,0.113603,-66.27422,-87.325561,66.232528
238018,-0.102412,0.170851,0.124813,-65.064272,-87.220975,64.962483
238118,-0.114726,0.19394,0.124796,-63.715514,-87.109374,63.546272
238218,-0.09285,0.231281,0.115561,-62.049665,-86.99094,61.824952
238318,-0.044904,0.307346,0.110346,-59.769434,-86.850938,59.515666
238418,0.02325,0.417175,0.113963,-56.75382,-86.670452,56.508578
238518,0.096884,0.51822,0.127445,-53.332383,-86.44116,53.136578
238618,0.165506,0.570101,0.136037,-49.997382,-86.178012,49.889696
238718,0.188976,0.593278,0.138562,-46.959464,-85.893772,46.953056
238818,0.169495,0.6176,0.160831,-44.317189,-85.580973,44.400868
238918,0.141633,0.592447,0.197504,-42.342402,-85.256905,42.501197
239018,0.129157,0.473984,0.208205,-41.180516,-84.975443,41.409383
239118,0.144878,0.310831,0.208062,-40.787878,-84.763467,41.098541
239218,0.181676,0.102153,0.166009,-41.036375,-84.657682,41.452668
239318,0.206867,-0.104082,0.116698,-41.867224,-84.658931,42.406214
239418,0.22967,-0.240119,0.08662,-43.122134,-84.727727,43.798712
239518,0.25372,-0.304031,0.062355,-44.571877,-84.829536,45.400498
239618,0.287911,-0.333547,0.037202,-46.087486,-84.949692,47.087802
239718,0.335931,-0.335198,0.008935,-47.534048,-85.078375,48.733091
239818,0.394563,-0.283242,-0.013848,-48.659313,-85.193629,50.089337
239918,0.446794,-0.196687,-0.027497,-49.29412,-85.280426,50.983259
240018,0.490566,-0.094247,-0.033601,-49.353644,-85.331137,51.325039
240118,0.523623,0.049538,-0.029136,-48.652121,-85.325997,50.922232
240218,0.519589,0.222913,-0.015321,-47.128342,-85.247704,49.692041
240318,0.464442,0.381868,0.005446,-45.01696,-85.09446,47.840243
240418,0.384642,0.476989,0.023144,-42.738382,-84.889031,45.774216
240518,0.298407,0.490113,0.049242,-40.747398,-84.661484,43.946667
240618,0.210799,0.441554,0.068992,-39.233853,-84.443051,42.547633
240718,0.111618,0.373387,0.071226,-38.135416,-84.251395,41.508138
240818,0.017351,0.297016,0.055557,-37.345836,-84.098237,40.72449
240918,-0.050534,0.21353,0.027092,-36.781247,-83.992199,40.127761
241018,-0.08023,0.133677,-0.00127,-36.384734,-83.932102,39.682843
241118,-0.097584,0.075687,-0.012402,-36.140774,-83.902324,39.381302
241218,-0.11185,0.04195,-0.026858,-35.95077,-83.89293,39.125794
241318,-0.114447,0.02062,-0.042393,-35.762099,-83.898556,38.87013
241418,-0.10471,0.009809,-0.059177,-35.527833,-83.914701,38.574231
241518,-0.080051,0.010239,-0.066342,-35.245188,-83.932859,38.243898
241618,-0.037416,0.02916,-0.067578,-34.872382,-83.942323,37.847475
241718,0.006109,0.053105,-0.056655,-34.44903,-83.936628,37.425306
241818,0.032738,0.08129,-0.044693,-33.979957,-83.913356,36.972493
241918,0.038894,0.095186,-0.029557,-33.537522,-83.878251,36.549996
242018,0.018675,0.076226,-0.014706,-33.232976,-83.847234,36.254507
242118,-0.01718,0.025792,-0.000425,-33.161232,-83.835809,36.172501
242218,-0.048725,-0.035692,0.012297,-33.343161,-83.849849,36.327463
242318,-0.070407,-0.093076,0.021414,-33.748622,-83.88831,36.694742
242418,-0.09057,-0.13466,0.03013,-34.335573,-83.943359,37.23289
242518,-0.103377,-0.164774,0.030904,-35.037735,-84.011675,37.879452
242618,-0.103617,-0.184369,0.032649,-35.826597,-84.087639,38.61296
242718,-0.090741,-0.187537,0.024213,-36.600241,-84.166839,39.338487
242818,-0.077009,-0.17651,0.023946,-37.347155,-84.240046,40.044959
242918,-0.070483,-0.151906,0.018542,-37.997208,-84.303066,40.657762
243018,-0.069039,-0.122846,0.014599,-38.537396,-84.353734,41.160935
243118,-0.067635,-0.104212,0.009169,-38.992889,-84.397559,41.579772
243218,-0.066634,-0.098796,0.002525,-39.404128,-84.441047,41.954691
243318,-0.060526,-0.103894,-0.008571,-39.786685,-84.490562,42.304283
243418,-0.046155,-0.116437,-0.026663,-40.133049,-84.552005,42.625756
243518,-0.028646,-0.129454,-0.047516,-40.431735,-84.626667,42.90938
243618,-0.017007,-0.134942,-0.064088,-40.67635,-84.709737,43.145364
243718,-0.004357,-0.122425,-0.082213,-40.783655,-84.794049,43.250709
243818,0.018041,-0.095356,-0.095097,-40.70626,-84.871392,43.183478
243918,0.044478,-0.068362,-0.100347,-40.471981,-84.938894,42.973961
244018,0.069004,-0.058408,-0.105256,-40.150972,-85.003739,42.691513
244118,0.08631,-0.064305,-0.107596,-39.825352,-85.071855,42.414425
244218,0.101544,-0.059257,-0.107307,-39.462513,-85.137448,42.108776
244318,0.116813,-0.01611,-0.105878,-38.904311,-85.1831,41.615878
244418,0.123266,0.061945,-0.097931,-38.044971,-85.190338,40.824513
244518,0.111058,0.135011,-0.088224,-36.943582,-85.159784,39.78321
244618,0.086084,0.183023,-0.083022,-35.710112,-85.103466,38.594928
244718,0.052522,0.217391,-0.081156,-34.405393,-85.028131,37.315716
244818,0.032615,0.26483,-0.085969,-32.957223,-84.929021,35.880884
244918,0.015338,0.323768,-0.092569,-31.34477,-84.799958,34.270914
245018,-0.002433,0.383557,-0.107406,-29.560824,-84.641415,32.478124
245118,-0.014937,0.428344,-0.121297,-27.691661,-84.458953,30.592031
245218,-0.006235,0.462699,-0.11964,-25.861845,-84.252795,28.749863
245318,0.037276,0.486146,-0.093197,-24.215963,-84.022674,27.11695
245418,0.090391,0.452665,-0.070675,-22.840978,-83.800735,25.786402
245518,0.085816,0.315399,-0.07514,-21.80183,-83.649703,24.790609
245618,0.030038,0.088765,-0.077895,-21.242411,-83.618668,24.24519
245718,-0.008292,-0.153765,-0.077068,-21.160995,-83.716782,24.158649
245818,-0.012873,-0.346049,-0.086817,-21.402668,-83.91967,24.39447
245918,0.0303,-0.442287,-0.105176,-21.738973,-84.17762,24.750201
246018,0.066071,-0.441174,-0.12209,-21.991177,-84.438424,25.04184
246118,0.054365,-0.345026,-0.13433,-21.983872,-84.650723,25.065925
246218,-0.009159,-0.199577,-0.125255,-21.724452,-84.78376,24.800251
246318,-0.101831,-0.075286,-0.100519,-21.3618,-84.845248,24.377639
246418,-0.173373,0.003107,-0.076994,-20.991699,-84.859782,23.906409
246518,-0.194747,0.047416,-0.054453,-20.666439,-84.84579,23.467902
246618,-0.177548,0.052046,-0.023708,-20.505641,-84.823008,23.204404
246718,-0.117651,0.028657,0.009662,-20.561091,-84.806101,23.192494
246818,-0.050149,-0.006697,0.046858,-20.875671,-84.800656,23.479622
246918,-0.003132,-0.036878,0.084904,-21.455324,-84.803312,24.059971
247018,0.021709,-0.086257,0.099319,-22.223519,-84.828586,24.843917
247118,0.034552,-0.149034,0.091095,-23.100638,-84.887889,25.744562
247218,0.043215,-0.189962,0.067032,-23.958614,-84.973002,26.630866
247318,0.050699,-0.202761,0.033695,-24.676574,-85.071598,27.380798
247418,0.052643,-0.204504,0.009897,-25.282017,-85.176107,28.018801
247518,0.04213,-0.196252,-0.005423,-25.79987,-85.2796,28.56276
247618,0.022779,-0.189078,-0.01151,-26.290848,-85.380529,29.068542
247718,-0.014823,-0.188027,-0.022399,-26.751315,-85.48336,29.522022
247818,-0.066119,-0.192016,-0.034537,-27.195536,-85.591095,29.929652
247918,-0.11239,-0.178114,-0.043682,-27.576613,-85.693936,30.247302
248018,-0.145026,-0.166865,-0.040013,-27.977433,-85.789927,30.565951
248118,-0.167847,-0.154223,-0.032175,-28.415039,-85.877236,30.908332
248218,-0.179143,-0.13935,-0.026498,-28.858095,-85.955309,31.249652
248318,-0.182578,-0.130155,-0.017783,-29.344169,-86.026151,31.632091
248418,-0.177468,-0.134232,-0.01159,-29.905206,-86.097032,32.092571
248518,-0.16933,-0.155859,-0.007436,-30.60502,-86.177078,32.696774
248618,-0.165806,-0.190622,-0.001776,-31.531733,-86.271942,33.530327
248718,-0.157885,-0.232866,-0.000191,-32.717062,-86.385809,34.627472
248818,-0.143385,-0.260275,0.002541,-34.132245,-86.510308,35.963086
248918,-0.119676,-0.27147,0.002604,-35.697933,-86.637856,37.462896
249018,-0.088703,-0.261743,0.002678,-37.305416,-86.758367,39.022149
249118,-0.056861,-0.23432,0.005039,-38.853313,-86.863148,40.539818
249218,-0.034174,-0.202031,0.007098,-40.283503,-86.950673,41.952481
249318,-0.016123,-0.172323,0.014734,-41.630444,-87.020587,43.292028
249418,0.003256,-0.142052,0.022341,-42.860081,-87.073112,44.525157
249518,0.02478,-0.109139,0.033832,-43.954655,-87.106098,45.635343
249618,0.042885,-0.075476,0.045138,-44.882517,-87.119763,46.588963
249718,0.05146,-0.052891,0.057141,-45.724201,-87.118687,47.461206
249818,0.049547,-0.049742,0.065141,-46.601805,-87.11239,48.368313
249918,0.047748,-0.044578,0.073333,-47.494937,-87.09993,49.289936
250018,0.052037,-0.023041,0.08461,-48.280032,-87.073705,50.105852
250118,0.062461,0.016186,0.10184,-48.841573,-87.024695,50.703922
250218,0.066935,0.072582,0.124588,-49.080097,-86.944394,50.981128
250318,0.059336,0.129944,0.148819,-49.022087,-86.832016,50.957026
250418,0.046107,0.173398,0.16602,-48.760356,-86.69582,50.721282
250518,0.018743,0.204126,0.17097,-48.345604,-86.54576,50.316508
250618,-0.017054,0.228443,0.167135,-47.797066,-86.387834,49.757073
250718,-0.044123,0.264601,0.156342,-47.015302,-86.22006,48.948274
250818,-0.043356,0.318271,0.151011,-45.948808,-86.032511,47.854358
250918,-0.008469,0.390587,0.154386,-44.578215,-85.812888,46.475335
251018,0.041869,0.480955,0.160586,-42.892702,-85.550828,44.80899
251118,0.112294,0.581856,0.1762,-40.976648,-85.235915,42.951192
251218,0.177898,0.671399,0.201527,-39.022499,-84.867456,41.091972
251318,0.207272,0.716939,0.229251,-37.275896,-84.463645,39.456994
251418,0.179375,0.734753,0.246623,-35.79587,-84.041586,38.072744
251518,0.143394,0.710612,0.258906,-34.648202,-83.623743,37.000997
251618,0.108723,0.600794,0.243223,-33.888884,-83.261195,36.299344
251718,0.044198,0.433173,0.180605,-33.424836,-82.997785,35.857393
251818,-0.036845,0.239693,0.089693,-33.172861,-82.855471,35.58214
251918,-0.114258,0.0413,0.014866,-33.180448,-82.831841,35.523714
252018,-0.168854,-0.131258,-0.028922,-33.485191,-82.904743,35.733217
252118,-0.199838,-0.247428,-0.057361,-34.005048,-83.04195,36.141512
252218,-0.207352,-0.328507,-0.085574,-34.657109,-83.226188,36.678474
252318,-0.183476,-0.371753,-0.121357,-35.307369,-83.441779,37.227163
252418,-0.106091,-0.355515,-0.153627,-35.769431,-83.659918,37.630836
252518,-0.006071,-0.26373,-0.177264,-35.814908,-83.843088,37.672929
252618,0.098644,-0.126793,-0.198148,-35.275924,-83.969351,37.187575
252718,0.175506,0.049392,-0.186727,-34.174647,-84.008131,36.181189
252818,0.218254,0.224251,-0.164057,-32.622503,-83.953637,34.746068
252918,0.228868,0.355516,-0.136402,-30.858573,-83.822495,33.10384
253018,0.200846,0.437064,-0.107422,-29.108585,-83.637284,31.459011
253118,0.137583,0.454953,-0.070944,-27.611799,-83.428136,30.031903
253218,0.044433,0.409383,-0.025905,-26.550872,-83.227002,28.989304
253318,-0.051435,0.348239,0.019301,-25.920586,-83.044148,28.324712
253418,-0.14578,0.295899,0.04338,-25.579453,-82.881727,27.896751
253518,-0.257551,0.247502,0.045276,-25.419324,-82.743722,27.586531
253618,-0.358124,0.171379,0.021244,-25.372506,-82.651016,27.332367
253718,-0.392058,0.077656,-0.006119,-25.415915,-82.613579,27.149537
253818,-0.370537,0.012065,-0.032267,-25.467327,-82.616539,26.987201
253918,-0.314378,-0.024348,-0.056513,-25.458602,-82.644301,26.796681
254018,-0.247499,-0.040509,-0.077565,-25.356712,-82.685556,26.550878
254118,-0.184818,-0.038714,-0.090605,-25.160492,-82.728968,26.246211
254218,-0.126244,-0.028639,-0.103347,-24.856372,-82.770048,25.866637
254318,-0.072018,-0.022303,-0.116093,-24.452729,-82.810564,25.418103
254418,-0.029228,-0.031519,-0.123095,-24.007708,-82.857108,24.952622
254518,-0.005885,-0.029443,-0.125229,-23.530598,-82.902566,24.468332
254618,-0.001674,-0.009557,-0.118529,-23.037509,-82.935506,23.970417
254718,-0.017821,0.009132,-0.109168,-22.55606,-82.95595,23.47494
254818,-0.045015,0.02726,-0.094414,-22.119372,-82.963065,23.008886
254918,-0.074957,0.036351,-0.079309,-21.748661,-82.961696,22.592031
255018,-0.104609,0.037345,-0.064047,-21.459515,-82.956261,22.240246
255118,-0.127544,0.040962,-0.049605,-21.240528,-82.945662,21.945915
255218,-0.145534,0.045876,-0.033845,-21.092671,-82.929024,21.71287
255318,-0.143847,0.044866,-0.019079,-21.010183,-82.909783,21.54667
255418,-0.130524,0.036676,-0.011268,-20.967937,-82.893246,21.428719
255518,-0.103817,0.02932,-0.012208,-20.918988,-82.880768,21.319439
255618,-0.07002,0.015094,-0.015679,-20.859465,-82.876545,21.219024
255718,-0.028975,0.00675,-0.024244,-20.753483,-82.878458,21.095496
255818,0.011912,-0.000896,-0.03206,-20.602862,-82.88596,20.950597
255918,0.046663,-0.013002,-0.040717,-20.414168,-82.901586,20.787405
256018,0.071472,-0.027728,-0.048172,-20.201709,-82.926482,20.6146
256118,0.085503,-0.05399,-0.050377,-20.011995,-82.965814,20.47283
256218,0.097209,-0.080732,-0.055406,-19.834168,-83.020421,20.349817
256318,0.100959,-0.101985,-0.056748,-19.679865,-83.08665,20.25269
256418,0.097464,-0.11145,-0.059188,-19.529541,-83.158371,20.157577
256518,0.084404,-0.115241,-0.056244,-19.403867,-83.231499,20.079776
256618,0.06664,-0.116627,-0.053531,-19.301133,-83.304794,20.014844
256718,0.053447,-0.108526,-0.046253,-19.225031,-83.372276,19.969131
256818,0.056198,-0.106632,-0.043327,-19.156904,-83.438132,19.933046
256918,0.07688,-0.130588,-0.046049,-19.10255,-83.51742,19.922763
257018,0.122155,-0.167157,-0.054658,-19.041028,-83.618066,19.931382
257118,0.184461,-0.177598,-0.056921,-18.949504,-83.724729,19.945743
257218,0.2355,-0.130822,-0.057067,-18.746721,-83.805985,19.877607
257318,0.267322,-0.054432,-0.058622,-18.384942,-83.845917,19.667907
257418,0.266731,0.015115,-0.064949,-17.873132,-83.848844,19.306984
257518,0.229568,0.058012,-0.069862,-17.289297,-83.828721,18.852205
257618,0.189715,0.098634,-0.079521,-16.621159,-83.787304,18.289637
257718,0.150794,0.160115,-0.096888,-15.808084,-83.713935,17.558773
257818,0.131037,0.234993,-0.116978,-14.825348,-83.600864,16.645682
257918,0.10481,0.310987,-0.13328,-13.720261,-83.445947,15.59409
258018,0.07039,0.399127,-0.140749,-12.555664,-83.240381,14.462349
258118,0.073898,0.497151,-0.131029,-11.410759,-82.97603,13.351917
258218,0.09555,0.592755,-0.090578,-10.436314,-82.651069,12.425094
258318,0.121274,0.630296,-0.014546,-9.819672,-82.295778,11.873343
258418,0.150753,0.54926,0.017185,-9.419211,-81.982768,11.556448
258518,0.089553,0.327213,0.025816,-9.254201,-81.794552,11.441775
258618,-0.004015,-0.008455,0.044747,-9.435246,-81.794669,11.622548
258718,-0.056583,-0.383216,0.020446,-9.804671,-82.008988,11.963121
258818,-0.0221,-0.661474,-0.043348,-10.114639,-82.386589,12.263362
258918,0.061602,-0.776376,-0.101858,-10.238805,-82.834878,12.424289
259018,0.145175,-0.733853,-0.139497,-10.114617,-83.263031,12.38308
259118,0.135113,-0.532248,-0.151595,-9.744719,-83.578539,12.088732
259218,0.041578,-0.216768,-0.131614,-9.228891,-83.713545,11.593736
259318,-0.061358,0.129102,-0.089155,-8.695775,-83.648467,11.022028
259418,-0.12067,0.377987,-0.044909,-8.249443,-83.438089,10.503298
259518,-0.161192,0.468405,-0.012159,-7.952484,-83.173476,10.111342
259618,-0.194335,0.424416,0.016821,-7.859969,-82.931501,9.906011
259718,-0.212965,0.285063,0.064159,-8.084751,-82.764995,10.00963
259818,-0.218779,0.096656,0.123262,-8.688709,-82.70038,10.492182
259918,-0.195903,-0.068612,0.161155,-9.55738,-82.725133,11.254848
260018,-0.143202,-0.161676,0.161394,-10.478565,-82.800915,12.100811
260118,-0.055878,-0.180548,0.138213,-11.280788,-82.888238,12.877149
260218,0.022942,-0.140623,0.103446,-11.860517,-82.955973,13.474657
260318,0.066786,-0.096291,0.072027,-12.238214,-83.001997,13.893835
260418,0.075647,-0.062945,0.044149,-12.453897,-83.032496,14.154858
260518,0.054395,-0.037638,0.022227,-12.556707,-83.05146,14.289877
260618,0.015038,-0.016483,0.010819,-12.608017,-83.059983,14.350284
260718,-0.03714,0.015354,0.007262,-12.639767,-83.051133,14.360859
260818,-0.083671,0.052095,0.014103,-12.691289,-83.020875,14.364486
260918,-0.121125,0.082274,0.025238,-12.783376,-82.972342,14.387359
261018,-0.135846,0.094108,0.039999,-12.937257,-82.915312,14.464
261118,-0.129379,0.086026,0.051093,-13.14345,-82.86133,14.597103
261218,-0.109017,0.06293,0.06059,-13.40177,-82.818911,14.794517
261318,-0.080776,0.040474,0.070685,-13.709739,-82.787521,15.058301
261418,-0.054836,0.009155,0.074195,-14.050058,-82.77288,15.369692
261518,-0.029298,-0.014944,0.077717,-14.416874,-82.770882,15.722545
261618,-0.002975,-0.034791,0.078828,-14.796075,-82.779432,16.103082
261718,0.01983,-0.050338,0.076617,-15.171704,-82.796586,16.493174
261818,0.04392,-0.066268,0.073606,-15.541329,-82.822661,16.891102
261918,0.073478,-0.065874,0.072793,-15.892423,-82.848304,17.287393
262018,0.097933,-0.053247,0.070453,-16.20539,-82.867047,17.659355
262118,0.111357,-0.032719,0.072359,-16.493755,-82.87392,18.014259
262218,0.114738,-0.018553,0.075569,-16.775868,-82.872241,18.364808
262318,0.115058,-0.023142,0.079487,-17.080765,-82.872176,18.738499
262418,0.114678,-0.038409,0.088973,-17.448144,-82.878557,19.174933
262518,0.123672,-0.054244,0.101683,-17.888788,-82.890968,19.690381
262618,0.134525,-0.07224,0.109685,-18.385818,-82.911207,20.268897
262718,0.142701,-0.082841,0.116863,-18.928339,-82.935211,20.897944
262818,0.148427,-0.082203,0.124304,-19.502888,-82.956682,21.562535
262918,0.161723,-0.070781,0.1331,-20.093488,-82.969421,22.250949
263018,0.18728,-0.045019,0.144981,-20.680789,-82.965046,22.950787
263118,0.230938,-0.009936,0.164472,-21.267099,-82.936984,23.674857
263218,0.276972,0.031697,0.188071,-21.850929,-82.880822,24.423074
263318,0.308611,0.062806,0.206029,-22.427385,-82.803304,25.182242
263418,0.316577,0.069123,0.21417,-23.007366,-82.719665,25.949699
263518,0.314692,0.057578,0.216502,-23.602891,-82.64056,26.731877
263618,0.313384,0.068072,0.208106,-24.131636,-82.556909,27.446099
263718,0.28859,0.094215,0.195711,-24.564075,-82.461753,28.048994
263818,0.260918,0.138165,0.176652,-24.845728,-82.34778,28.48391
263918,0.234467,0.200772,0.159166,-24.9535,-82.205262,28.728182
264018,0.228105,0.278801,0.152585,-24.898163,-82.023729,28.804198
264118,0.259426,0.359157,0.162132,-24.724101,-81.798076,28.778461
264218,0.299229,0.430761,0.177899,-24.47289,-81.531278,28.69779
264318,0.323645,0.505358,0.19583,-24.164402,-81.221151,28.573289
264418,0.349309,0.638996,0.222183,-23.748804,-80.834702,28.355137
264518,0.382026,0.769026,0.254303,-23.265126,-80.372253,28.086742
264618,0.402168,0.79144,0.264825,-22.807743,-79.89525,27.856393
264718,0.3684,0.744099,0.258295,-22.437521,-79.444483,27.694652
264818,0.336456,0.646485,0.259668,-22.220185,-79.045109,27.669679
264918,0.253945,0.468998,0.251473,-22.228723,-78.741809,27.826671
265018,0.138512,0.214892,0.203111,-22.445675,-78.583863,28.128878
265118,0.068341,-0.086924,0.126487,-22.82624,-78.60233,28.557032
265218,0.036549,-0.378286,0.076632,-23.42652,-78.785011,29.190499
265318,0.00154,-0.617272,0.060949,-24.314943,-79.095083,30.096563
265418,-0.026343,-0.812649,0.041271,-25.475051,-79.508411,31.261741
265518,-0.016679,-0.940655,0.015229,-26.835827,-79.989365,32.634776
265618,0.035418,-0.95175,-0.020509,-28.213689,-80.479459,34.053384
265718,0.135825,-0.839584,-0.052508,-29.384555,-80.916566,35.318621
265818,0.276106,-0.642792,-0.0804,-30.132281,-81.26018,36.235543
265918,0.400133,-0.393653,-0.087458,-30.362008,-81.481241,36.699736
266018,0.460921,-0.19592,-0.087078,-30.184724,-81.604283,36.787463
266118,0.456745,-0.084608,-0.08801,-29.787055,-81.672389,36.650013
266218,0.425676,-0.012233,-0.080324,-29.289334,-81.702075,36.393482
266318,0.380946,0.029207,-0.065516,-28.786905,-81.706565,36.106309
266418,0.321501,0.04402,-0.044191,-28.364129,-81.697456,35.865204
266518,0.256676,0.019787,-0.020516,-28.105856,-81.694018,35.752791
266618,0.165464,-0.042918,-0.001682,-28.08098,-81.717234,35.823414
266718,0.017657,-0.122338,-0.004421,-28.279904,-81.781365,36.034576
266818,-0.118798,-0.215782,-0.023123,-28.673835,-81.897568,36.363695
266918,-0.206021,-0.282857,-0.041972,-29.194588,-82.05228,36.7703
267018,-0.24842,-0.310008,-0.056643,-29.761063,-82.224124,37.198374
267118,-0.259423,-0.301306,-0.066855,-30.299597,-82.393987,37.591719
267218,-0.266389,-0.270898,-0.0724,-30.774347,-82.549959,37.916556
267318,-0.26535,-0.235111,-0.075898,-31.169516,-82.689022,38.161647
267418,-0.252087,-0.202874,-0.08252,-31.467332,-82.814056,38.316197
267518,-0.224161,-0.173144,-0.092417,-31.646146,-82.927432,38.366912
267618,-0.187472,-0.159921,-0.096048,-31.760543,-83.035413,38.373902
267718,-0.163866,-0.175419,-0.089661,-31.928203,-83.14898,38.448174
267818,-0.145792,-0.204533,-0.080922,-32.200616,-83.273963,38.638359
267918,-0.139153,-0.214343,-0.070902,-32.5459,-83.400464,38.905696
268018,-0.139461,-0.211571,-0.062302,-32.932175,-83.522732,39.214057
268118,-0.142865,-0.212701,-0.053327,-33.375512,-83.64244,39.577808
268218,-0.138451,-0.21441,-0.04284,-33.882384,-83.759259,40.00795
268318,-0.136586,-0.213442,-0.02934,-34.462551,-83.870785,40.512806
268418,-0.127389,-0.209984,-0.009905,-35.133076,-83.973687,41.113737
268518,-0.11239,-0.188698,0.006618,-35.822203,-84.060356,41.741919
268618,-0.108859,-0.129005,0.016442,-36.375211,-84.11531,42.235219
268718,-0.112756,-0.05017,0.016016,-36.674343,-84.133684,42.471035
268818,-0.12114,0.000203,0.012728,-36.796585,-84.129925,42.524206
268918,-0.11846,0.005678,-0.000416,-36.840296,-84.128121,42.499986
269018,-0.121885,0.001044,-0.011691,-36.851134,-84.132283,42.440754
269118,-0.117559,0.025245,-0.026812,-36.711144,-84.130492,42.232398
269218,-0.082422,0.094601,-0.042723,-36.251316,-84.102035,41.722749
269318,-0.02401,0.1724,-0.054079,-35.462823,-84.040677,40.916282
269418,0.029336,0.207807,-0.061377,-34.51888,-83.963833,39.984147
269518,0.069958,0.17112,-0.069921,-33.646618,-83.905603,39.147394
269618,0.107901,0.100017,-0.074207,-32.955938,-83.88156,38.515067
269718,0.157179,0.0622,-0.062736,-32.402117,-83.87145,38.048772
269818,0.232096,0.10944,-0.054971,-31.710051,-83.83546,37.486598
269918,0.307147,0.211088,-0.047061,-30.743907,-83.746406,36.691933
270018,0.348206,0.291186,-0.054716,-29.541122,-83.618209,35.682699
270118,0.317542,0.335058,-0.080721,-28.180395,-83.472684,34.496575
270218,0.216893,0.382801,-0.111981,-26.690683,-83.3078,33.122186
270318,0.077285,0.495712,-0.134861,-25.022854,-83.086053,31.487316
270418,-0.071748,0.642478,-0.163392,-23.158547,-82.788287,29.567516
270518,-0.149697,0.758228,-0.184302,-21.222855,-82.425946,27.529286
270618,-0.16277,0.800896,-0.171574,-19.468288,-82.029924,25.664484
270718,-0.183476,0.717027,-0.140384,-18.114301,-81.667039,24.190616
270818,-0.262372,0.498644,-0.129967,-17.201118,-81.417648,23.115524
270918,-0.352643,0.196076,-0.156202,-16.619704,-81.336609,22.323199
271018,-0.423624,-0.114863,-0.197533,-16.265759,-81.43232,21.71981
271118,-0.446601,-0.34759,-0.216147,-16.091532,-81.658754,21.285049
271218,-0.409838,-0.514468,-0.234185,-15.992373,-81.979845,20.9477
271318,-0.303723,-0.618302,-0.265751,-15.802963,-82.363009,20.580902
271418,-0.197316,-0.611089,-0.300291,-15.362746,-82.747225,20.022971
271518,-0.175064,-0.454489,-0.295755,-14.686162,-83.043359,19.240109
271618,-0.220044,-0.21251,-0.252755,-13.892292,-83.197754,18.313526
271718,-0.264099,0.013467,-0.186193,-13.151724,-83.215813,17.415372
271818,-0.276192,0.17629,-0.12139,-12.549769,-83.133401,16.649786
271918,-0.286965,0.234366,-0.061252,-12.189553,-83.010351,16.121338
272018,-0.292209,0.206859,0.004309,-12.168792,-82.89459,15.931775
272118,-0.287004,0.109098,0.078855,-12.573604,-82.824501,16.174087
272218,-0.283638,-0.040418,0.143829,-13.410986,-82.829234,16.85435
272318,-0.26806,-0.184872,0.173241,-14.534766,-82.908807,17.832181
272418,-0.226177,-0.284997,0.161964,-15.733327,-83.043005,18.909306
272518,-0.179275,-0.320676,0.131035,-16.856476,-83.199117,19.937198
272618,-0.155328,-0.31634,0.092348,-17.827861,-83.357191,20.825746
272718,-0.163637,-0.308052,0.063814,-18.69909,-83.514182,21.608387
272818,-0.182502,-0.301394,0.043422,-19.510885,-83.670059,22.320089
272918,-0.183155,-0.2919,0.027701,-20.265465,-83.822785,22.973632
273018,-0.173342,-0.286779,0.011972,-20.959913,-83.975024,23.572158
273118,-0.164494,-0.285796,-0.003354,-21.601012,-84.129171,24.12197
273218,-0.158951,-0.297858,-0.015984,-22.229926,-84.291782,24.662566
273318,-0.162072,-0.31094,-0.013479,-22.938417,-84.460105,25.281171
273418,-0.171503,-0.322913,-0.001647,-23.789142,-84.631188,26.03705
273518,-0.188777,-0.33125,0.011276,-24.798375,-84.802382,26.94196
273618,-0.21221,-0.341824,0.024916,-25.995981,-84.974058,28.022268
273718,-0.22517,-0.348956,0.038535,-27.384634,-85.143661,29.286594
273818,-0.227063,-0.354375,0.047409,-28.941853,-85.310744,30.718665
273918,-0.22439,-0.358104,0.052495,-30.651895,-85.474762,32.305246
274018,-0.214626,-0.35149,0.058446,-32.489372,-85.629732,34.024905
274118,-0.199814,-0.337831,0.063231,-34.417434,-85.77218,35.843569
274218,-0.177653,-0.315147,0.070818,-36.401747,-85.896762,37.731048
274318,-0.151657,-0.282612,0.080653,-38.386637,-85.998268,39.633767
274418,-0.123768,-0.240437,0.088914,-40.277837,-86.073457,41.458381
274518,-0.098928,-0.196632,0.098572,-42.03644,-86.122032,43.164215
274618,-0.071394,-0.155343,0.108481,-43.638792,-86.145955,44.729177
274718,-0.037982,-0.125852,0.116756,-45.111468,-86.151627,46.183329
274818,-0.015316,-0.097501,0.12009,-46.418787,-86.142212,47.484768
274918,-0.022974,-0.069711,0.117452,-47.534439,-86.121178,48.589727
275018,-0.037372,-0.036092,0.114673,-48.418857,-86.087123,49.454681
275118,-0.027536,-0.012879,0.1227,-49.179783,-86.039996,50.20154
275218,0.002699,-0.002537,0.142665,-49.945655,-85.979631,50.970769
275318,0.034468,0.01341,0.163712,-50.678362,-85.903445,51.725061
275418,0.050102,0.035537,0.189097,-51.363372,-85.807314,52.440593
275518,0.03375,0.08359,0.211065,-51.840889,-85.683693,52.938761
275618,-0.019289,0.150385,0.219536,-51.971136,-85.532453,53.058242
275718,-0.080857,0.204308,0.21836,-51.821732,-85.362693,52.861817
275818,-0.105898,0.22912,0.204176,-51.505562,-85.190444,52.483599
275918,-0.092918,0.256358,0.182067,-50.974689,-85.018083,51.897248
276018,-0.031869,0.348394,0.164974,-49.928745,-84.819014,50.828734
276118,0.050666,0.467832,0.166398,-48.37683,-84.572441,49.299188
276218,0.127869,0.551997,0.169515,-46.575882,-84.28789,47.563205
276318,0.132129,0.622516,0.148567,-44.590145,-83.978195,45.643021
276418,0.080477,0.703009,0.149925,-42.550217,-83.627831,43.637397
276518,0.056703,0.741411,0.159925,-40.651819,-83.250005,41.759109
276618,0.028013,0.64404,0.168051,-39.282763,-82.906086,40.396087
276718,0.021473,0.397041,0.154442,-38.675709,-82.674436,39.796504
276818,0.038674,0.108895,0.09907,-38.688192,-82.591221,39.831332
276918,0.032433,-0.140888,0.043995,-39.206588,-82.639214,40.372694
277018,0.01685,-0.342478,0.027436,-40.266805,-82.781197,41.451169
277118,-0.008989,-0.495966,0.015382,-41.81553,-82.990944,43.006598
277218,0.016188,-0.573309,-0.00863,-43.617047,-83.236887,44.830424
277318,0.119305,-0.563211,-0.040126,-45.346428,-83.484484,46.640181
277418,0.27526,-0.470468,-0.074888,-46.646718,-83.703831,48.107238
277518,0.437532,-0.302124,-0.10534,-47.175138,-83.867329,48.890864
277618,0.565674,-0.080386,-0.117982,-46.731061,-83.949281,48.770148
277718,0.626434,0.144461,-0.109152,-45.398496,-83.937948,47.790992
277818,0.610895,0.32743,-0.081147,-43.508794,-83.837604,46.242475
277918,0.536454,0.429254,-0.036208,-41.539917,-83.67134,44.571029
278018,0.44023,0.470875,0.016916,-39.790976,-83.461337,43.064825
278118,0.358281,0.47597,0.070897,-38.379837,-83.225015,41.850771
278218,0.317664,0.443372,0.107676,-37.308937,-82.987563,40.955386
278318,0.282605,0.349841,0.121584,-36.624479,-82.786581,40.428764
278418,0.216896,0.218441,0.107242,-36.30236,-82.650534,40.229263
278518,0.135595,0.098432,0.079813,-36.249348,-82.579188,40.254091
278618,0.092521,0.00596,0.050274,-36.356628,-82.560591,40.415675
278718,0.07791,-0.040989,0.024773,-36.504228,-82.572274,40.609478
278818,0.076105,-0.056306,7.4e-05,-36.606333,-82.599366,40.756351
278918,0.080011,-0.053751,-0.022361,-36.620571,-82.632904,40.816875
279018,0.09159,-0.031836,-0.04537,-36.488022,-82.664186,40.736084
279118,0.104838,-0.002886,-0.066256,-36.19506,-82.689133,40.501223
279218,0.11456,0.024058,-0.090702,-35.735144,-82.709595,40.103674
279318,0.114799,0.027367,-0.113996,-35.178559,-82.735803,39.608828
279418,0.087901,-0.0064,-0.133994,-34.646027,-82.783842,39.122732
279518,0.051658,-0.057395,-0.142005,-34.228042,-82.858073,38.73122
279618,0.004908,-0.105101,-0.140478,-33.95746,-82.954153,38.461329
279718,-0.041684,-0.136422,-0.123039,-33.856353,-83.059431,38.33535
279818,-0.080752,-0.155475,-0.098903,-33.920855,-83.166031,38.353673
279918,-0.112474,-0.164498,-0.072508,-34.135723,-83.268412,38.505122
280018,-0.146021,-0.165763,-0.053961,-34.454553,-83.365274,38.741873
280118,-0.178763,-0.155991,-0.043092,-34.817235,-83.453772,39.003851
280218,-0.198716,-0.154119,-0.045092,-35.186165,-83.541801,39.260578
280318,-0.20338,-0.157845,-0.057032,-35.527522,-83.635297,39.486834
280418,-0.196655,-0.167523,-0.07434,-35.829624,-83.738891,39.677438
280518,-0.185728,-0.179088,-0.09244,-36.092004,-83.853789,39.834354
280618,-0.168945,-0.192001,-0.110862,-36.313443,-83.980773,39.959743
280718,-0.16047,-0.195816,-0.124186,-36.490411,-84.113955,40.045281
280818,-0.14891,-0.195413,-0.136607,-36.608517,-84.251121,40.078298
280918,-0.13632,-0.192798,-0.14957,-36.65309,-84.391465,40.04467
281018,-0.118789,-0.187148,-0.158698,-36.623584,-84.532288,39.946724
281118,-0.108307,-0.174444,-0.169417,-36.48512,-84.670864,39.745398
281218,-0.104111,-0.169438,-0.180068,-36.2622,-84.810651,39.461726
281318,-0.105331,-0.164209,-0.189873,-35.954558,-84.951167,39.092365
281418,-0.092824,-0.142684,-0.191782,-35.526544,-85.082058,38.609456
281518,-0.050049,-0.135129,-0.186862,-35.046873,-85.207414,38.099406
281618,0.016449,-0.146791,-0.180738,-34.584212,-85.335855,37.644766
281718,0.09765,-0.134538,-0.170317,-34.061654,-85.454759,37.176812
281818,0.163199,-0.076949,-0.155919,-33.329671,-85.541159,36.536553
281918,0.173621,0.004092,-0.136968,-32.35981,-85.581842,35.663774
282018,0.141454,0.070657,-0.124155,-31.215539,-85.584916,34.59763
282118,0.076658,0.134845,-0.117844,-29.910021,-85.552646,33.332513
282218,0.001873,0.238705,-0.1235,-28.269712,-85.467357,31.688496
282318,-0.067727,0.355031,-0.143528,-26.238208,-85.323905,29.611741
282418,-0.113819,0.43095,-0.179827,-23.922287,-85.143591,27.222584
282518,-0.093187,0.464446,-0.215522,-21.470584,-84.945337,24.708312
282618,0.003014,0.492025,-0.244023,-18.932369,-84.728638,22.1617
282718,0.08424,0.513829,-0.262608,-16.410659,-84.493424,19.677477
282818,0.113365,0.445099,-0.248159,-14.258117,-84.284804,17.580038
282918,0.0817,0.223841,-0.2084,-12.759903,-84.187857,16.121462
283018,0.04165,-0.027414,-0.146392,-11.958305,-84.221131,15.339941
283118,0.008195,-0.184045,-0.103328,-11.586576,-84.336503,14.971283
283218,0.04128,-0.243887,-0.088138,-11.337665,-84.483603,14.745157
283318,0.116875,-0.298567,-0.103133,-11.005759,-84.663028,14.479224
283418,0.143323,-0.367837,-0.12833,-10.560908,-84.883986,14.115165
283518,0.045364,-0.350008,-0.136154,-10.063953,-85.095419,13.642567
283618,-0.113935,-0.19486,-0.117427,-9.565555,-85.217059,13.077019
283718,-0.252777,0.010434,-0.077247,-9.169966,-85.218531,12.53484
283818,-0.314005,0.142101,-0.03853,-8.931974,-85.141806,12.115557
283918,-0.304803,0.162453,-0.005841,-8.892178,-85.050646,11.900416
284018,-0.268044,0.117457,0.020644,-9.051357,-84.982682,11.906107
284118,-0.220738,0.088185,0.035208,-9.304137,-84.930003,12.032964
284218,-0.1665,0.091877,0.043537,-9.570892,-84.874446,12.205065
284318,-0.11621,0.072776,0.064558,-9.956356,-84.827591,12.52531
284418,-0.085865,0.018584,0.100579,-10.603149,-84.8074,13.12544
284518,-0.058481,-0.036228,0.120496,-11.420352,-84.815214,13.912446
284618,-0.016632,-0.090406,0.113553,-12.245596,-84.853239,14.731569
284718,0.027104,-0.125999,0.086114,-12.937283,-84.91363,15.441688
284818,0.040622,-0.127335,0.043406,-13.368879,-84.979715,15.898394
284918,0.021022,-0.111296,0.005507,-13.554767,-85.041695,16.097126
285018,-0.02664,-0.097441,-0.013516,-13.627075,-85.09847,16.154415
285118,-0.088553,-0.085813,-0.016435,-13.698416,-85.149148,16.175117
285218,-0.145182,-0.063784,-0.010096,-13.8092,-85.186688,16.202829
285318,-0.19243,-0.04091,-0.005441,-13.941234,-85.210849,16.224691
285418,-0.217127,-0.027033,0.005387,-14.136965,-85.225776,16.296264
285518,-0.223538,-0.027239,0.021931,-14.447708,-85.238441,16.479561
285618,-0.215916,-0.035549,0.039394,-14.88645,-85.253067,16.795677
285718,-0.194577,-0.044412,0.05354,-15.425927,-85.270241,17.225136
285818,-0.165733,-0.057206,0.062934,-16.039643,-85.292648,17.745657
285918,-0.128031,-0.081277,0.068037,-16.719598,-85.326974,18.354294
286018,-0.089362,-0.105355,0.071628,-17.46191,-85.373259,19.047689
286118,-0.054595,-0.131694,0.072722,-18.264973,-85.432952,19.821962
286218,-0.022729,-0.161103,0.072919,-19.14172,-85.507649,20.688389
286318,0.00547,-0.193622,0.071329,-20.103121,-85.599092,21.655831
286418,0.032282,-0.2282,0.070724,-21.180167,-85.70784,22.754524
286518,0.056926,-0.250456,0.069699,-22.357717,-85.826977,23.967985
286618,0.082373,-0.252953,0.071521,-23.611429,-85.94508,25.272237
286718,0.104016,-0.228819,0.074671,-24.867402,-86.047732,26.591001
286818,0.127848,-0.187071,0.07997,-26.061227,-86.125467,27.86101
286918,0.152855,-0.132965,0.087532,-27.134732,-86.171786,29.024688
287018,0.173772,-0.068327,0.097799,-28.037534,-86.181176,30.029251
287118,0.194777,0.002597,0.110059,-28.731017,-86.150518,30.836099
287218,0.21838,0.054449,0.121381,-29.267641,-86.090134,31.499323
287318,0.243013,0.079636,0.13003,-29.730365,-86.014343,32.102672
287418,0.27261,0.078762,0.142509,-30.246609,-85.935038,32.776729
287518,0.295344,0.075354,0.155768,-30.830646,-85.85308,33.531881
287618,0.305628,0.076188,0.174893,-31.505361,-85.764427,34.383943
287718,0.302766,0.086263,0.195973,-32.244103,-85.663706,35.298671
287818,0.289229,0.097859,0.21461,-33.021053,-85.550712,36.244069
287918,0.263597,0.114571,0.230405,-33.796708,-85.42375,37.173592
288018,0.248047,0.138277,0.239279,-34.491956,-85.28175,38.013676
288118,0.249252,0.172174,0.24032,-35.015721,-85.122728,38.682547
288218,0.257765,0.212337,0.232327,-35.30308,-84.947135,39.119178
288318,0.276948,0.253154,0.218315,-35.3352,-84.756993,39.310687
288418,0.299983,0.287977,0.197314,-35.121524,-84.5575,39.268634
288518,0.323671,0.38638,0.186878,-34.52875,-84.315081,38.859305
288618,0.378866,0.560665,0.188911,-33.42348,-83.988592,37.966389
288718,0.431882,0.737404,0.205393,-31.979045,-83.569804,36.762254
288818,0.438334,0.834374,0.20947,-30.47472,-83.099072,35.500498
288918,0.420867,0.847403,0.210592,-29.13351,-82.618095,34.391783
289018,0.396556,0.743246,0.22279,-28.205855,-82.183594,33.685082
289118,0.30032,0.528334,0.211058,-27.774382,-81.860046,33.423079
289218,0.164583,0.249382,0.148666,-27.734338,-81.694595,33.477812
289318,0.108751,-0.073693,0.06524,-28.027623,-81.715248,33.837056
289418,0.125335,-0.370387,-0.003651,-28.63657,-81.903975,34.524699
289518,0.148853,-0.575467,-0.058047,-29.484703,-82.209376,35.467013
289618,0.135865,-0.66765,-0.096747,-30.472113,-82.569527,36.541578
289718,0.113228,-0.652298,-0.122407,-31.439607,-82.927217,37.582119
289818,0.109234,-0.539151,-0.124496,-32.214151,-83.228388,38.425265
289918,0.115689,-0.358653,-0.112934,-32.617864,-83.4376,38.898358
290018,0.133151,-0.13811,-0.09399,-32.51246,-83.534294,38.868973
290118,0.146605,0.050445,-0.072674,-31.977455,-83.533052,38.41502
290218,0.145175,0.165078,-0.062798,-31.186328,-83.47229,37.702455
290318,0.143203,0.218957,-0.057661,-30.297629,-83.382315,36.890435
290418,0.133521,0.234722,-0.057542,-29.400311,-83.283049,36.063999
290518,0.119353,0.206768,-0.054694,-28.612501,-83.195633,35.339495
290618,0.089731,0.155309,-0.051101,-27.990327,-83.13221,34.76459
290718,0.044495,0.105179,-0.061495,-27.47038,-83.096363,34.266468
290818,-0.035701,0.024025,-0.087516,-27.066077,-83.108251,33.838521
290918,-0.116189,-0.083411,-0.11619,-26.814684,-83.182201,33.518163
291018,-0.164777,-0.194026,-0.135895,-26.740366,-83.317724,33.348146
291118,-0.190512,-0.265829,-0.143893,-26.801479,-83.492031,33.299674
291218,-0.205564,-0.299724,-0.139454,-26.971266,-83.682498,33.351905
291318,-0.223138,-0.305401,-0.129377,-27.219874,-83.873176,33.473285
291418,-0.24096,-0.274774,-0.123294,-27.442962,-84.04657,33.558707
291518,-0.25439,-0.211172,-0.121662,-27.525415,-84.187139,33.495001
291618,-0.262304,-0.125863,-0.121143,-27.389822,-84.284157,33.207608
291718,-0.270315,-0.047084,-0.111157,-27.094957,-84.338286,32.755589
291818,-0.288085,2e-05,-0.100544,-26.735135,-84.365318,32.228102
291918,-0.30909,0.002819,-0.091193,-26.424702,-84.388198,31.738174
292018,-0.323515,-0.032491,-0.084154,-26.247335,-84.427209,31.373671
292118,-0.324399,-0.090741,-0.085,-26.21379,-84.496304,31.153191
292218,-0.311927,-0.159959,-0.088008,-26.337958,-84.601739,31.098352
292318,-0.292031,-0.229883,-0.083198,-26.672249,-84.741808,31.266015
292418,-0.27009,-0.286136,-0.073071,-27.229549,-84.907833,31.67019
292518,-0.247212,-0.297426,-0.061796,-27.907349,-85.076167,32.208394
292618,-0.231395,-0.248932,-0.047319,-28.547434,-85.215505,32.717734
292718,-0.209341,-0.174337,-0.036084,-29.023902,-85.313808,33.075506
292818,-0.183586,-0.09039,-0.029821,-29.250165,-85.368118,33.197028
292918,-0.153957,-0.003188,-0.020332,-29.218775,-85.376111,33.077097
293018,-0.121041,0.07716,-0.013067,-28.937988,-85.341779,32.725885
293118,-0.088217,0.12479,-0.004518,-28.537084,-85.280964,32.273012
293218,-0.060724,0.138669,0.005505,-28.147446,-85.210149,31.847221
293318,-0.040852,0.145713,0.019925,-27.82254,-85.131661,31.497785
293418,-0.005432,0.15168,0.029235,-27.52498,-85.047502,31.196134
293518,0.02785,0.142205,0.033174,-27.269883,-84.966998,30.956222
293618,0.053348,0.094605,0.027978,-27.117825,-84.912032,30.834406
293718,0.091022,0.038048,0.016566,-27.046706,-84.888858,30.815526
293818,0.123303,0.029054,0.009166,-26.941771,-84.872172,30.781277
293918,0.145338,0.064754,0.005222,-26.700269,-84.838213,30.622596
294018,0.167428,0.106348,-0.002857,-26.28706,-84.784873,30.304213
294118,0.171249,0.138562,-0.006276,-25.772899,-84.715538,29.886632
294218,0.163744,0.179734,-0.009567,-25.149759,-84.625301,29.355235
294318,0.124144,0.248355,-0.0099,-24.396342,-84.498829,28.670087
294418,0.059932,0.340024,-0.012708,-23.483981,-84.324048,27.788093
294518,-0.02097,0.46133,-0.006213,-22.445443,-84.08237,26.732354
294618,-0.095306,0.56257,0.01986,-21.463233,-83.779471,25.689894
294718,-0.150468,0.585283,0.038269,-20.652242,-83.45899,24.787283
294818,-0.212372,0.465818,0.005611,-20.003811,-83.208027,24.012097
294918,-0.312191,0.204651,-0.069285,-19.538017,-83.111645,23.362955
295018,-0.390698,-0.112449,-0.112536,-19.431977,-83.194536,23.030817
295118,-0.41919,-0.39039,-0.141886,-19.654051,-83.433254,23.012693
295218,-0.419801,-0.567416,-0.177277,-20.023237,-83.77433,23.14224
295318,-0.398937,-0.608818,-0.189995,-20.422049,-84.140113,23.313493
295418,-0.339838,-0.512074,-0.184661,-20.650696,-84.452817,23.347644
295518,-0.271968,-0.302681,-0.169506,-20.486738,-84.650127,23.026447
295618,-0.216917,-0.043401,-0.140189,-19.888346,-84.701975,22.300674
295718,-0.172837,0.205298,-0.114375,-18.902606,-84.613539,21.21121
295818,-0.123863,0.364139,-0.095645,-17.740953,-84.433426,19.97298
295918,-0.064475,0.40996,-0.055598,-16.764887,-84.219258,18.955042
296018,-0.02741,0.331552,0.010999,-16.308646,-84.036074,18.480677
296118,-0.0392,0.168898,0.087357,-16.522823,-83.929853,18.67354
296218,-0.107832,-0.023298,0.148143,-17.3802,-83.918678,19.473721
296318,-0.166857,-0.194951,0.16421,-18.643969,-83.996673,20.648505
296418,-0.179596,-0.298052,0.144916,-20.04101,-84.131217,21.949704
296518,-0.175512,-0.339575,0.114565,-21.423014,-84.290886,23.237784
296618,-0.174568,-0.339456,0.077792,-22.679743,-84.45537,24.400148
296718,-0.159932,-0.345497,0.043338,-23.823903,-84.628396,25.45751
296818,-0.150032,-0.342167,0.018286,-24.882648,-84.803625,26.434473
296918,-0.130173,-0.301188,-0.005849,-25.742306,-84.961996,27.222705
297018,-0.109821,-0.239952,-0.028879,-26.322372,-85.093727,27.741805
297118,-0.093237,-0.181488,-0.050612,-26.609947,-85.200669,27.976796
297218,-0.090227,-0.149168,-0.063308,-26.726901,-85.294256,28.042269
297318,-0.098215,-0.137673,-0.073328,-26.751772,-85.384536,28.010748
297418,-0.108111,-0.148748,-0.077367,-26.792174,-85.481524,27.989123
297518,-0.12057,-0.182909,-0.075205,-26.969127,-85.595412,28.097308
297618,-0.12888,-0.22691,-0.069492,-27.351394,-85.730193,28.406604
297718,-0.123011,-0.269774,-0.061537,-27.967447,-85.884402,28.953623
297818,-0.104099,-0.303033,-0.052458,-28.815725,-86.052377,29.74419
297918,-0.080821,-0.320627,-0.048497,-29.828275,-86.227104,30.7126
298018,-0.058648,-0.325757,-0.046983,-30.959078,-86.402676,31.812035
298118,-0.035063,-0.309068,-0.046198,-32.1109,-86.56841,32.945855
298218,-0.006391,-0.266679,-0.035875,-33.214501,-86.709094,34.047638
298318,0.034124,-0.20586,-0.022465,-34.152032,-86.815335,35.006196
298418,0.086277,-0.14136,-0.010738,-34.833794,-86.886526,35.738436
298518,0.143829,-0.096056,0.000167,-35.328036,-86.932458,36.315861
298618,0.184194,-0.0696,0.010978,-35.742194,-86.962201,36.836225
298718,0.206628,-0.042031,0.015811,-36.017934,-86.977349,37.230834
298818,0.193571,-0.013844,0.02031,-36.162108,-86.977851,37.486192
298918,0.164989,0.01414,0.034351,-36.265235,-86.960636,37.684039
299018,0.165179,0.036762,0.052998,-36.382947,-86.92663,37.896597
299118,0.191505,0.061221,0.069882,-36.471134,-86.87558,38.094693
299218,0.216199,0.111896,0.08815,-36.38106,-86.794939,38.128435
299318,0.22697,0.215994,0.108341,-35.839675,-86.659292,37.716307
299418,0.184117,0.323468,0.119422,-34.864465,-86.469437,36.844898
299518,0.102485,0.396834,0.121352,-33.68398,-86.24327,35.720724
299618,0.023585,0.4309,0.122283,-32.533561,-85.999054,34.581058
299718,-0.020571,0.47323,0.119284,-31.349213,-85.733634,33.381638
299818,-0.009982,0.566364,0.119327,-29.962211,-85.420399,31.984576
299918,0.055407,0.733705,0.136291,-28.286248,-85.015864,30.334437
300018,0.150793,0.909528,0.156009,-26.439224,-84.512584,28.566266
300118,0.224286,1.047287,0.170422,-24.614284,-83.929591,26.861017
300218,0.20887,1.086377,0.17761,-23.065349,-83.319689,25.422726
300318,0.103822,0.892727,0.162317,-22.087874,-82.812351,24.497831
300418,-0.067084,0.501282,0.120641,-21.782421,-82.520912,24.150951
300518,-0.212261,0.084434,0.098777,-22.156891,-82.455807,24.405826
300618,-0.236549,-0.225335,0.085549,-23.005633,-82.557226,25.124998
300718,-0.199092,-0.405341,0.080956,-24.162596,-82.752619,26.176322
300818,-0.128252,-0.518132,0.070973,-25.522114,-83.006101,27.472146
300918,-0.040839,-0.580991,0.04142,-26.939917,-83.295429,28.876358
301018,0.076184,-0.602416,-0.018895,-28.196425,-83.607645,30.184839
301118,0.212028,-0.551428,-0.081414,-29.077144,-83.908522,31.192808
301218,0.343105,-0.421522,-0.126026,-29.398353,-84.155732,31.713228
301318,0.463247,-0.226928,-0.152866,-28.995995,-84.31312,31.575418
301418,0.545148,-0.013344,-0.152896,-27.935945,-84.362733,30.823889
301518,0.583543,0.153675,-0.136103,-26.487879,-84.32121,29.704576
301618,0.581914,0.265962,-0.098195,-24.984121,-84.209481,28.528227
301718,0.52655,0.327363,-0.035513,-23.743595,-84.048112,27.58435
301818,0.409084,0.345709,0.043249,-22.977016,-83.857535,27.04911
301918,0.253174,0.309387,0.128997,-22.818809,-83.666567,27.035824
302018,0.11569,0.261853,0.204461,-23.184898,-83.483791,27.470877
302118,0.003005,0.244849,0.235272,-23.763903,-83.302557,28.055425
302218,-0.094906,0.239411,0.208193,-24.26083,-83.129906,28.501018
302318,-0.174343,0.21788,0.148744,-24.569998,-82.982249,28.711747
302418,-0.211804,0.178617,0.084761,-24.698999,-82.870269,28.71934
302518,-0.192604,0.112148,0.019128,-24.670556,-82.808628,28.579324
302618,-0.12882,0.016456,-0.032089,-24.576152,-82.809052,28.409641
302718,-0.0509,-0.08745,-0.080044,-24.433744,-82.874997,28.236583
302818,0.035127,-0.157055,-0.117552,-24.212662,-82.986048,28.03395
302918,0.106243,-0.180422,-0.143966,-23.874193,-83.115345,27.754167
303018,0.155593,-0.173772,-0.160776,-23.407982,-83.244744,27.37429
303118,0.17601,-0.156116,-0.171994,-22.828669,-83.366921,26.89242
303218,0.168212,-0.138891,-0.168095,-22.219424,-83.478512,26.376041
303318,0.14351,-0.131952,-0.148074,-21.686769,-83.58151,25.92262
303418,0.116092,-0.125665,-0.122345,-21.266325,-83.675306,25.566397
303518,0.089397,-0.122692,-0.093404,-20.985977,-83.761267,25.335805
303618,0.075529,-0.118566,-0.062065,-20.854504,-83.838488,25.247019
303718,0.058624,-0.107881,-0.034113,-20.85008,-83.904239,25.276296
303818,0.029024,-0.079034,-0.009937,-20.929663,-83.949567,25.37301
303918,-0.00884,-0.045836,0.01078,-21.072741,-83.972817,25.511765
304018,-0.046162,-0.034296,0.023873,-21.282071,-83.987098,25.695646
304118,-0.070895,-0.067375,0.029513,-21.60152,-84.017701,25.976007
304218,-0.071542,-0.124066,0.018996,-21.987355,-84.080473,26.322728
304318,-0.064926,-0.145268,0.001969,-22.334111,-84.157893,26.633938
304418,-0.05186,-0.123756,-0.018538,-22.527754,-84.228206,26.798735
304518,-0.040607,-0.094381,-0.042291,-22.528694,-84.288119,26.776321
304618,-0.034671,-0.067745,-0.06205,-22.361431,-84.338211,26.588297
304718,-0.024616,-0.041001,-0.078712,-22.036616,-84.377603,26.247765
304818,-0.008734,-0.0092,-0.084751,-21.596604,-84.401102,25.800655
304918,-0.004591,0.047551,-0.088153,-21.012718,-84.394588,25.211391
305018,-0.026256,0.085195,-0.087611,-20.369609,-84.36714,24.550145
305118,-0.077645,0.084262,-0.090688,-19.747721,-84.340059,23.880624
305218,-0.127627,0.07748,-0.092382,-19.164542,-84.316248,23.221213
305318,-0.145354,0.087685,-0.091181,-18.585052,-84.286001,22.555289
305418,-0.116855,0.113319,-0.084855,-17.985659,-84.239976,21.88575
305518,-0.037022,0.130552,-0.066468,-17.421312,-84.180642,21.297378
305618,0.063474,0.145026,-0.033677,-16.963183,-84.107272,20.87363
305718,0.151638,0.176058,0.00667,-16.629619,-84.009857,20.625881
305818,0.194362,0.215243,0.030391,-16.344447,-83.886863,20.451393
305918,0.170811,0.265095,0.027834,-15.99675,-83.736681,20.200411
306018,0.108031,0.339425,0.009727,-15.508052,-83.548073,19.771286
306118,0.067319,0.442607,-0.011311,-14.837823,-83.305047,19.135756
306218,0.053181,0.533117,-0.024017,-14.059208,-83.012717,18.382533
306318,0.021909,0.548544,-0.033556,-13.301689,-82.711974,17.632002
306418,-0.001249,0.378665,-0.068017,-12.631698,-82.509523,16.955892
306518,-0.021238,0.050143,-0.116543,-12.098712,-82.496189,16.406203
306618,-0.054099,-0.277827,-0.156727,-11.703649,-82.671085,15.976674
306718,-0.10991,-0.485673,-0.198685,-11.318093,-82.967223,15.524683
306818,-0.16032,-0.548985,-0.223367,-10.864608,-83.301328,14.975448
306918,-0.167721,-0.485845,-0.208716,-10.378052,-83.597795,14.38898
307018,-0.144928,-0.290713,-0.14507,-9.980782,-83.777226,13.905728
307118,-0.148974,-0.070224,-0.083994,-9.685283,-83.825855,13.522603
307218,-0.156572,0.083048,-0.046778,-9.450979,-83.784136,13.196655
307318,-0.118576,0.172487,-0.018564,-9.269408,-83.689103,12.945621
307418,-0.054508,0.193037,-0.005847,-9.105645,-83.58123,12.749404
307518,-0.01673,0.136356,0.000507,-9.002644,-83.504848,12.636099
307618,-0.051753,0.050496,0.037136,-9.170462,-83.473796,12.775179
307718,-0.139229,-0.028876,0.104992,-9.787672,-83.48115,13.316149
307818,-0.230672,-0.112794,0.162168,-10.81942,-83.529126,14.221578
307918,-0.273337,-0.203325,0.178926,-12.069084,-83.624037,15.321567
308018,-0.268104,-0.266425,0.169856,-13.380152,-83.752617,16.4861
308118,-0.239707,-0.302518,0.138279,-14.610942,-83.902774,17.585926
308218,-0.213189,-0.318852,0.091903,-15.662745,-84.066509,18.520711
308318,-0.202478,-0.31297,0.04779,-16.514527,-84.232341,19.2603
308418,-0.20964,-0.284857,0.006597,-17.138626,-84.388585,19.766726
308518,-0.220732,-0.247005,-0.025831,-17.547185,-84.529201,20.050068
308618,-0.227919,-0.217049,-0.051474,-17.771774,-84.657764,20.144403
308718,-0.22919,-0.210482,-0.070678,-17.877248,-84.786089,20.118355
308818,-0.222701,-0.224942,-0.079379,-17.956088,-84.923832,20.069299
308918,-0.208904,-0.25238,-0.077008,-18.09895,-85.076106,20.092455
309018,-0.192766,-0.282357,-0.069207,-18.353128,-85.243274,20.236602
309118,-0.185689,-0.3001,-0.054938,-18.754756,-85.417391,20.532725
309218,-0.183739,-0.325823,-0.037916,-19.365382,-85.602022,21.039539
309318,-0.183759,-0.350015,-0.022223,-20.204266,-85.79613,21.775117
309418,-0.185181,-0.374992,-0.015558,-21.244446,-86.001341,22.711498
309518,-0.184282,-0.387317,-0.019009,-22.403237,-86.212519,23.767035
309618,-0.174561,-0.38902,-0.029937,-23.600433,-86.42552,24.866368
309718,-0.147882,-0.380242,-0.038709,-24.812551,-86.634459,25.995695
309818,-0.122133,-0.370889,-0.049736,-26.017427,-86.839777,27.132286
309918,-0.106677,-0.354805,-0.056786,-27.223124,-87.037254,28.278328
310018,-0.09484,-0.329297,-0.058312,-28.428426,-87.220877,29.430552
310118,-0.082244,-0.303564,-0.052325,-29.69637,-87.388649,30.652527
310218,-0.062666,-0.277663,-0.040129,-31.083141,-87.5387,32.004512
310318,-0.042097,-0.259352,-0.027234,-32.648073,-87.674342,33.546458
310418,-0.029685,-0.247545,-0.017625,-34.415099,-87.799371,35.297627
310518,-0.032865,-0.23886,-0.004354,-36.480328,-87.913553,37.345237
310618,-0.032452,-0.220563,0.008921,-38.761054,-88.011799,39.608569
310718,-0.009577,-0.203928,0.023628,-41.260635,-88.093871,42.103867
310818,0.029741,-0.169211,0.041051,-43.749933,-88.150735,44.611308
310918,0.055793,-0.101495,0.064726,-45.790374,-88.167164,46.684545
311018,0.038182,-0.011589,0.098316,-47.098169,-88.132156,48.014668
311118,-0.002645,0.060426,0.137989,-47.915924,-88.051699,48.831118
311218,-0.032309,0.105762,0.170167,-48.480381,-87.939851,49.377146
311318,-0.030313,0.159598,0.192146,-48.594798,-87.798026,49.473999
311418,-0.016676,0.217324,0.191757,-48.082266,-87.634394,48.951214
311518,-0.001128,0.286546,0.176912,-46.839593,-87.449896,47.706449
311618,0.026309,0.377869,0.162473,-44.85292,-87.233412,45.732413
311718,0.086441,0.491916,0.161165,-42.266984,-86.96654,43.192435
311818,0.173921,0.603216,0.172623,-39.435577,-86.641285,40.456115
311918,0.249521,0.674976,0.188936,-36.791706,-86.270954,37.950126
312018,0.265775,0.726299,0.209505,-34.509995,-85.863524,35.815395
312118,0.246669,0.760193,0.23616,-32.666512,-85.426462,34.108063
312218,0.194856,0.728178,0.269343,-31.456821,-84.991605,33.005931
312318,0.105131,0.626427,0.291617,-30.91155,-84.598758,32.518652
312418,-0.000475,0.475315,0.26977,-30.826746,-84.286553,32.432926
312518,-0.086405,0.251324,0.202544,-31.114663,-84.104382,32.672292
312618,-0.108144,0.04188,0.138406,-31.697305,-84.043739,33.195466
312718,-0.077304,-0.078792,0.09656,-32.410528,-84.053912,33.867691
312818,-0.015177,-0.15945,0.065465,-33.190257,-84.111741,34.6425
312918,0.071712,-0.228975,0.038061,-34.026224,-84.210344,35.523761
313018,0.17956,-0.248274,0.007992,-34.750915,-84.326574,36.355121
313118,0.282973,-0.194772,-0.017504,-35.144092,-84.425206,36.912759
313218,0.356434,-0.085242,-0.028643,-35.080858,-84.475982,37.054077
313318,0.406258,0.040186,-0.02655,-34.573861,-84.467116,36.778266
313418,0.452437,0.164356,-0.021345,-33.660355,-84.397333,36.120617
313518,0.477961,0.257884,-0.004029,-32.545517,-84.276124,35.275267
313618,0.468781,0.322539,0.016587,-31.386927,-84.115627,34.380472
313718,0.438678,0.347115,0.051259,-30.395092,-83.931213,33.635745
313818,0.376332,0.309057,0.093799,-29.782493,-83.752418,33.236291
313918,0.279649,0.235232,0.143299,-29.658122,-83.596062,33.272198
314018,0.173595,0.158805,0.199144,-30.027819,-83.461804,33.744193
314118,0.073535,0.109658,0.235405,-30.71317,-83.340918,34.476337
314218,-0.046022,0.0936,0.21395,-31.393143,-83.233338,35.13424
314318,-0.176885,0.07201,0.136738,-31.868692,-83.158792,35.510857
314418,-0.258252,0.026138,0.049425,-32.146776,-83.132812,35.641646
314518,-0.275835,-0.02016,-0.020972,-32.267699,-83.150751,35.603981
314618,-0.238345,-0.055181,-0.068633,-32.263489,-83.200241,35.461921
314718,-0.172671,-0.074283,-0.103991,-32.124341,-83.269747,35.221888
314818,-0.104944,-0.076308,-0.139421,-31.799543,-83.350828,34.834049
314918,-0.035859,-0.057305,-0.166024,-31.263862,-83.430208,34.27384
315018,0.032061,-0.024943,-0.180968,-30.528116,-83.497303,33.551527
315118,0.08758,0.008782,-0.198639,-29.582802,-83.551486,32.65042
315218,0.127333,0.026436,-0.200238,-28.549028,-83.59548,31.683317
315318,0.141172,0.016917,-0.18679,-27.577837,-83.638744,30.78726
315418,0.148878,-0.015875,-0.168622,-26.750223,-83.692389,30.0402
315518,0.147843,-0.057847,-0.149105,-26.098296,-83.761508,29.46939
315618,0.129572,-0.10844,-0.127709,-25.661958,-83.850739,29.105006
315718,0.092056,-0.168757,-0.108231,-25.470809,-83.966088,28.965674
315818,0.048854,-0.222839,-0.090054,-25.51803,-84.104876,29.041174
315918,0.013362,-0.263388,-0.073794,-25.772537,-84.260519,29.304594
316018,-0.010759,-0.283685,-0.057801,-26.192311,-84.4224,29.720147
316118,-0.031135,-0.295333,-0.048202,-26.732522,-84.58741,30.244868
316218,-0.045025,-0.301796,-0.050489,-27.320209,-84.755762,30.809153
316318,-0.054354,-0.335733,-0.054015,-28.034355,-84.941609,31.494902
316418,-0.050809,-0.377089,-0.058641,-28.906807,-85.148611,32.341405
316518,-0.01339,-0.387403,-0.07083,-29.795166,-85.362966,33.225139
316618,0.042709,-0.36602,-0.081879,-30.584968,-85.568744,34.042003
316718,0.099451,-0.316293,-0.097273,-31.117641,-85.753747,34.633403
316818,0.141464,-0.245684,-0.118906,-31.231507,-85.910218,34.828903
316918,0.15562,-0.168293,-0.13087,-30.93164,-86.032202,34.617754
317018,0.140332,-0.117699,-0.142681,-30.319447,-86.132501,34.084811
317118,0.118293,-0.10072,-0.143856,-29.607658,-86.22422,33.439471
317218,0.110961,-0.083247,-0.138346,-28.834441,-86.305037,32.728446
317318,0.115438,-0.063253,-0.134392,-27.972277,-86.373977,31.930943
317418,0.126118,-0.039856,-0.1342,-26.975806,-86.430093,31.005071
317518,0.135851,-0.026704,-0.136932,-25.86708,-86.479039,29.972386
317618,0.150324,-0.028875,-0.140363,-24.699854,-86.528633,28.889474
317718,0.165094,-0.022898,-0.137679,-23.493432,-86.573052,27.775858
317818,0.184519,-0.004213,-0.127919,-22.265689,-86.603951,26.652115
317918,0.191018,0.020341,-0.118912,-21.010228,-86.618348,25.504405
318018,0.181782,0.040589,-0.117571,-19.696897,-86.619982,24.293474
318118,0.177934,0.053551,-0.140486,-18.134975,-86.61692,22.831344
318218,0.14167,0.116089,-0.16983,-16.155608,-86.581746,20.930206
318318,0.07744,0.27002,-0.191541,-13.706857,-86.460033,18.521787
318418,-0.000349,0.476475,-0.21519,-10.908878,-86.218887,15.718273
318518,-0.056887,0.659303,-0.240755,-8.067718,-85.868191,12.838008
318618,-0.086006,0.828214,-0.245699,-5.539774,-85.412784,10.253629
318718,-0.056293,0.921975,-0.237271,-3.478035,-84.896028,8.152424
318818,0.01339,0.882261,-0.258468,-1.646185,-84.39699,6.320549
318918,0.066136,0.707814,-0.27212,-0.013769,-83.993332,4.718099
319018,0.113329,0.406657,-0.258493,1.407608,-83.758427,3.354158
319118,0.154793,0.0859,-0.212524,2.591053,-83.705138,2.253098
319218,0.221791,-0.172344,-0.200874,3.820932,-83.797657,1.143965
319318,0.317772,-0.369538,-0.216872,5.323273,-83.999326,-0.183594
319418,0.355337,-0.505562,-0.249669,7.224254,-84.272219,-1.889703
319518,0.279966,-0.527102,-0.250674,9.28654,-84.551062,-3.800485
319618,0.120498,-0.420724,-0.213255,11.105546,-84.767191,-5.557937
319718,-0.062948,-0.19814,-0.144781,12.225616,-84.862014,-6.718706
319818,-0.206212,0.039112,-0.071861,12.508698,-84.8317,-7.121464
319918,-0.297265,0.183137,-0.015796,12.198206,-84.727722,-6.980618
320018,-0.341504,0.184107,0.020738,11.652676,-84.627566,-6.629153
320118,-0.326049,0.105047,0.052143,11.03953,-84.575204,-6.20083
320218,-0.27951,0.017003,0.084404,10.368812,-84.575549,-5.687867
320318,-0.221549,-0.040273,0.102478,9.68231,-84.609558,-5.125701
320418,-0.164355,-0.067226,0.104402,9.035203,-84.658454,-4.570223
320518,-0.117923,-0.09461,0.10206,8.443133,-84.722155,-4.043353
320618,-0.097287,-0.111603,0.093899,7.915107,-84.79439,-3.568989
320718,-0.090092,-0.123242,0.08211,7.461897,-84.871984,-3.165685
320818,-0.07919,-0.149897,0.064137,7.139766,-84.963196,-2.887789
320918,-0.07409,-0.188446,0.042533,6.983555,-85.074723,-2.773586
321018,-0.07598,-0.216645,0.028773,6.937147,-85.201329,-2.770729
321118,-0.084328,-0.228829,0.022228,6.941463,-85.334413,-2.823607
321218,-0.103669,-0.235125,0.023692,6.932179,-85.471174,-2.873982
321318,-0.143229,-0.2523,0.027443,6.889628,-85.617951,-2.913744
321418,-0.188041,-0.275462,0.034156,6.791191,-85.778346,-2.923221
321518,-0.218106,-0.267799,0.045753,6.571816,-85.935135,-2.82872
321618,-0.240137,-0.211979,0.063981,6.124467,-86.06123,-2.518358
321718,-0.24594,-0.148795,0.080927,5.451266,-86.152058,-1.98499
321818,-0.241136,-0.133622,0.098305,4.589658,-86.234601,-1.260086
321918,-0.219188,-0.158021,0.115767,3.563764,-86.331009,-0.358015
322018,-0.184501,-0.18639,0.131476,2.373191,-86.442988,0.728874
322118,-0.151998,-0.200391,0.14097,1.040326,-86.561629,1.976839
322218,-0.137936,-0.211006,0.139161,-0.358071,-86.684508,3.298346
322318,-0.135205,-0.223535,0.134334,-1.812231,-86.812638,4.677084
322418,-0.138269,-0.241033,0.125026,-3.295694,-86.948955,6.083198
322518,-0.137476,-0.256312,0.112171,-4.78149,-87.092458,7.491888
322618,-0.128697,-0.249512,0.100508,-6.263595,-87.230732,8.901713
322718,-0.121849,-0.227298,0.090706,-7.73307,-87.355159,10.302637
322818,-0.115891,-0.182707,0.08635,-9.190207,-87.452893,11.694481
322918,-0.110868,-0.125239,0.086807,-10.620698,-87.51647,13.062431
323018,-0.102092,-0.067568,0.093734,-12.046933,-87.545298,14.431095
323118,-0.083856,-0.019158,0.104914,-13.488913,-87.544122,15.825954
323218,-0.065535,0.023855,0.111747,-14.858611,-87.516583,17.158979
323318,-0.039006,0.034771,0.118179,-16.22301,-87.480622,18.501939
323418,-0.017687,0.032892,0.124236,-17.617145,-87.443234,19.88692
323518,-0.004615,0.03977,0.135546,-19.068891,-87.398501,21.337105
323618,0.008033,0.059524,0.150784,-20.553466,-87.338441,22.827461
323718,0.029104,0.086041,0.166927,-22.018999,-87.259065,24.310914
323818,0.057452,0.131951,0.185801,-23.373103,-87.149493,25.699175
323918,0.073062,0.191276,0.202134,-24.507095,-87.003562,26.876138
324018,0.079216,0.227632,0.217171,-25.507037,-86.833985,27.922543
324118,0.073976,0.245562,0.214317,-26.301215,-86.655002,28.76
324218,0.062077,0.252204,0.195639,-26.834795,-86.476855,29.329685
324318,0.043005,0.247281,0.169802,-27.140692,-86.307689,29.660357
324418,0.0385,0.240036,0.145067,-27.261032,-86.148596,29.802504
324518,0.051753,0.268551,0.12725,-27.125676,-85.979578,29.695954
324618,0.080176,0.361394,0.124582,-26.637621,-85.763651,29.252066
324718,0.140546,0.528972,0.140832,-25.731012,-85.456917,28.422937
324818,0.223728,0.754221,0.177294,-24.479615,-85.023125,27.295258
324918,0.29039,0.929848,0.209913,-23.144838,-84.487571,26.121422
325018,0.271023,1.023951,0.218685,-21.896914,-83.897938,25.022667
325118,0.223802,1.031744,0.233426,-20.935926,-83.299087,24.184237
325218,0.186021,0.988795,0.272861,-20.37647,-82.714273,23.727535
325318,0.118365,0.809328,0.274169,-20.192941,-82.225618,23.610368
325418,0.013321,0.448009,0.196388,-20.292933,-81.947022,23.718523
325518,-0.065398,0.011394,0.068955,-20.563493,-81.928699,23.953375
325618,-0.066274,-0.35351,-0.007959,-21.073062,-82.121555,24.428963
325718,-0.04774,-0.601405,-0.032632,-21.892041,-82.451211,25.227164
325818,-0.071774,-0.805158,-0.033987,-23.155682,-82.887185,26.459074
325918,-0.091215,-0.981244,-0.0426,-24.917943,-83.413145,28.180668
326018,-0.048665,-1.047477,-0.060114,-27.033608,-83.970428,30.280476
326118,0.07649,-0.963853,-0.081341,-29.145869,-84.482238,32.446903
326218,0.229187,-0.76908,-0.098343,-30.85176,-84.894619,34.291441
326318,0.348346,-0.498875,-0.110392,-31.732561,-85.174208,35.375379
326418,0.399968,-0.235845,-0.124262,-31.623237,-85.328997,35.495174
326518,0.389905,-0.00692,-0.124877,-30.668102,-85.371755,34.760618
326618,0.348641,0.13949,-0.107998,-29.313928,-85.335802,33.60203
326718,0.289777,0.229991,-0.072114,-27.938441,-85.242269,32.388131
326818,0.206125,0.262768,-0.022608,-26.858839,-85.11695,31.422866
326918,0.135963,0.250965,0.023846,-26.176646,-84.98469,30.815922
327018,0.058022,0.179519,0.038278,-25.85222,-84.885307,30.523151
327118,-0.043565,0.041964,0.01798,-25.8587,-84.862029,30.504089
327218,-0.143056,-0.143212,-0.01365,-26.260773,-84.942167,30.824911
327318,-0.193646,-0.300271,-0.040243,-27.015882,-85.109361,31.470915
327418,-0.188439,-0.386661,-0.050313,-28.036608,-85.322262,32.386259
327518,-0.153878,-0.401841,-0.050624,-29.181187,-85.541398,33.445432
327618,-0.114067,-0.385024,-0.053073,-30.333956,-85.751092,34.5354
327718,-0.082531,-0.345199,-0.060981,-31.36161,-85.941836,35.517783
327818,-0.057403,-0.295242,-0.066788,-32.206603,-86.108727,36.331318
327918,-0.038339,-0.255549,-0.066808,-32.925175,-86.255586,37.028987
328018,-0.025687,-0.23007,-0.063516,-33.591132,-86.38855,37.681124
328118,-0.019065,-0.223369,-0.054818,-34.335935,-86.514953,38.416
328218,-0.015005,-0.218157,-0.038242,-35.236813,-86.632766,39.309483
328318,-0.02002,-0.222676,-0.027183,-36.322225,-86.747996,40.384835
328418,-0.030832,-0.23303,-0.018343,-37.631951,-86.863571,41.678529
328518,-0.042081,-0.247572,-0.015465,-39.170806,-86.982798,43.19509
328618,-0.059735,-0.263013,-0.012373,-40.985251,-87.105182,44.977327
328718,-0.07742,-0.275653,-0.005798,-43.125462,-87.227115,47.075416
328818,-0.087055,-0.28616,0.005838,-45.65602,-87.34428,49.558584
328918,-0.080355,-0.275578,0.027732,-48.492975,-87.442394,52.352135
329018,-0.061465,-0.22741,0.042499,-51.159124,-87.509898,54.985409
329118,-0.031357,-0.153101,0.049005,-53.196894,-87.543397,57.006931
329218,-0.00255,-0.08199,0.037898,-54.40103,-87.555361,58.210584
329318,0.025372,-0.009742,0.023346,-54.691199,-87.549318,58.515487
329418,0.057006,0.068322,0.006163,-53.982772,-87.525127,57.839063
329518,0.084573,0.135473,-0.009474,-52.447822,-87.484395,56.351172
329618,0.114403,0.177053,-0.024579,-50.410808,-87.433477,54.377823
329718,0.140837,0.185152,-0.037124,-48.259518,-87.381745,52.305208
329818,0.155994,0.173033,-0.044929,-46.226248,-87.334559,50.359388
329918,0.163589,0.158948,-0.050735,-44.329968,-87.292321,48.555031
330018,0.166131,0.150103,-0.059248,-42.48849,-87.254351,46.806964
330118,0.170058,0.140729,-0.068475,-40.686269,-87.221265,45.100428
330218,0.185797,0.138596,-0.077027,-38.857125,-87.189638,43.375947
330318,0.210317,0.155594,-0.079963,-36.911205,-87.148561,41.548593
330418,0.213741,0.173473,-0.084494,-34.861173,-87.097522,39.618914
330518,0.186626,0.213451,-0.084933,-32.65332,-87.023931,37.515558
330618,0.12614,0.309,-0.08635,-30.057445,-86.899449,34.98874
330718,0.036484,0.438818,-0.090946,-27.070769,-86.704406,32.018664
330818,-0.057224,0.588073,-0.095024,-23.872884,-86.424403,28.782475
330918,-0.103148,0.739966,-0.059186,-20.996482,-86.046215,25.840895
331018,-0.070603,0.787101,-0.026218,-18.736213,-85.628035,23.534327
331118,-0.08171,0.639776,-0.030788,-17.149556,-85.285826,21.8959
331218,-0.165372,0.287166,-0.091729,-16.079691,-85.144598,20.727358
331318,-0.275641,-0.101366,-0.153492,-15.41886,-85.226091,19.905795
331418,-0.330148,-0.378922,-0.17628,-15.111774,-85.464102,19.407953
331518,-0.347496,-0.544463,-0.190061,-14.991899,-85.79577,19.088031
331618,-0.325906,-0.631947,-0.209548,-14.84853,-86.178762,18.757036
331718,-0.267343,-0.580395,-0.221321,-14.384269,-86.534731,18.138207
331818,-0.218538,-0.383856,-0.206353,-13.438485,-86.778735,17.065201
331918,-0.196143,-0.096564,-0.174833,-11.998196,-86.856709,15.509936
332018,-0.188879,0.192179,-0.12348,-10.461227,-86.764292,13.862019
332118,-0.157348,0.393323,-0.066213,-9.237083,-86.550465,12.54534
332218,-0.114615,0.478112,-0.018056,-8.45431,-86.283069,11.695141
332318,-0.078896,0.444015,0.04528,-8.319016,-86.029311,11.514192
332418,-0.082056,0.33562,0.129557,-8.982947,-85.829803,12.132676
332518,-0.145872,0.18255,0.221364,-10.510997,-85.707118,13.58114
332618,-0.229021,5e-05,0.27449,-12.683563,-85.677475,15.628327
332718,-0.259507,-0.161207,0.267251,-15.1041,-85.732473,17.906621
332818,-0.244922,-0.259229,0.228734,-17.515733,-85.840375,20.184095
332918,-0.188643,-0.281467,0.182474,-19.72285,-85.961987,22.288488
333018,-0.131364,-0.245519,0.145596,-21.628632,-86.066293,24.12338
333118,-0.085085,-0.211365,0.10832,-23.197838,-86.156717,25.647241
333218,-0.054281,-0.199798,0.070039,-24.475013,-86.247331,26.895912
333318,-0.033612,-0.185531,0.035636,-25.467713,-86.337181,27.87121
333418,-0.042364,-0.176972,0.005868,-26.233694,-86.429058,28.614179
333518,-0.073227,-0.182858,-0.0103,-26.945627,-86.52747,29.285184
333618,-0.106372,-0.20403,-0.010878,-27.807349,-86.636215,30.087134
333718,-0.135659,-0.236871,-0.007344,-28.932112,-86.759701,31.135653
333818,-0.150805,-0.268893,0.003336,-30.418235,-86.894688,32.537254
333918,-0.157879,-0.29629,0.0119,-32.27939,-87.03821,34.310161
334018,-0.169492,-0.324992,0.020616,-34.602346,-87.189192,36.538547
334118,-0.170691,-0.35287,0.027976,-37.459575,-87.345401,39.300818
334218,-0.162583,-0.383681,0.032959,-40.967291,-87.505952,42.718512
334318,-0.14207,-0.40123,0.029764,-45.063562,-87.664586,46.736616
334418,-0.113354,-0.40104,0.024966,-49.656668,-87.811889,51.267954
334518,-0.081806,-0.38664,0.024255,-54.655666,-87.938972,56.223124
334618,-0.047636,-0.359045,0.027633,-59.865615,-88.03899,61.408608
334718,-0.010613,-0.317976,0.038742,-64.990057,-88.105622,66.529501
334818,0.028283,-0.258545,0.049315,-69.491645,-88.138742,71.04936
334918,0.070477,-0.208639,0.061319,-73.309558,-88.145352,74.909322
335018,0.09914,-0.18681,0.074881,-76.798499,-88.133223,78.456573
335118,0.09814,-0.168415,0.084393,-79.941829,-88.10699,81.657483
335218,0.066684,-0.124577,0.09219,-82.282595,-88.067493,84.037391
335318,0.032654,-0.056797,0.110227,-83.457841,-88.010544,85.23163
335418,0.035925,0.012678,0.128111,-83.489254,-87.938504,85.283218
335518,0.068139,0.063994,0.138801,-82.736315,-87.856906,84.568374
335618,0.092259,0.10739,0.147558,-81.409091,-87.766475,83.292596
335718,0.080075,0.149898,0.152549,-79.611924,-87.667934,81.539414
335818,0.034686,0.194967,0.162167,-77.419079,-87.556499,79.364034
335918,-0.022198,0.23749,0.171122,-74.952694,-87.430699,76.88201
336018,-0.066807,0.285505,0.172413,-72.193204,-87.291625,74.080692
336118,-0.081492,0.354276,0.1664,-68.953696,-87.136159,70.789989
336218,-0.061425,0.456124,0.161384,-65.022026,-86.950802,66.817197
336318,-0.00845,0.583127,0.16249,-60.416222,-86.716703,62.198857
336418,0.068014,0.696184,0.174273,-55.59914,-86.422306,57.411536
336518,0.119072,0.73913,0.180321,-51.256998,-86.088542,53.127857
336618,0.134573,0.691459,0.166714,-47.803002,-85.760295,49.741801
336718,0.085339,0.583503,0.162367,-45.405475,-85.46463,47.385669
336818,-0.022601,0.413498,0.178488,-44.244621,-85.226243,46.207389
336918,-0.156015,0.218443,0.159892,-44.06969,-85.074508,45.941518
337018,-0.206126,0.090705,0.123697,-44.345554,-84.98984,46.09926
337118,-0.188368,0.002781,0.102964,-44.909176,-84.949371,46.556091
337218,-0.135668,-0.105589,0.085713,-45.857987,-84.959095,47.429926
337318,-0.07667,-0.217915,0.06646,-47.228417,-85.019589,48.760883
337418,-0.005463,-0.315272,0.03538,-48.943678,-85.127474,50.478739
337518,0.080369,-0.370259,-0.006274,-50.798036,-85.269252,52.385234
337618,0.181534,-0.345536,-0.043435,-52.406826,-85.413978,54.103141
337718,0.281817,-0.255105,-0.066549,-53.427588,-85.534709,55.288542
337818,0.37172,-0.148897,-0.070156,-53.79491,-85.61977,55.870106
337918,0.44145,-0.029686,-0.052568,-53.48908,-85.656115,55.816639
338018,0.482064,0.111239,-0.033391,-52.39563,-85.634909,54.996659
338118,0.462688,0.240295,-0.006237,-50.704342,-85.553976,53.565919
338218,0.390444,0.309835,0.027549,-48.892269,-85.429185,51.972325
338318,0.286754,0.307267,0.06783,-47.433818,-85.284653,50.673623
338418,0.188777,0.279038,0.110075,-46.447226,-85.131289,49.79182
338518,0.110189,0.273779,0.141125,-45.727933,-84.966155,49.132894
338618,0.047007,0.291492,0.155195,-45.071625,-84.787539,48.50066
338718,-0.017578,0.26801,0.13791,-44.519558,-84.624935,47.93575
338818,-0.091398,0.201455,0.091977,-44.120633,-84.507639,47.482027
338918,-0.134651,0.12295,0.042214,-43.871713,-84.442308,47.15402
339018,-0.147763,0.049254,0.007649,-43.788129,-84.421075,46.984555
339118,-0.131168,-0.000602,-0.019608,-43.782342,-84.43124,46.902817
339218,-0.092674,-0.025628,-0.049526,-43.728737,-84.46357,46.795214
339318,-0.041302,-0.025103,-0.082806,-43.49892,-84.508753,46.540183
339418,0.020429,-0.006851,-0.108432,-43.042189,-84.556177,46.092778
339518,0.083507,0.014229,-0.123103,-42.389445,-84.599953,45.484847
339618,0.141553,0.014455,-0.135141,-41.637365,-84.647489,44.810618
339718,0.174916,-0.003082,-0.13838,-40.909351,-84.70294,44.179834
339818,0.188861,-0.028459,-0.134067,-40.282203,-84.767092,43.658447
339918,0.184313,-0.047941,-0.123089,-39.775929,-84.835236,43.255885
340018,0.161961,-0.061661,-0.107654,-39.402986,-84.903484,42.974388
340118,0.127525,-0.065454,-0.087002,-39.16084,-84.965742,42.804439
340218,0.09129,-0.068818,-0.06052,-39.083676,-85.019825,42.779299
340318,0.056791,-0.070629,-0.039406,-39.141668,-85.06702,42.870006
340418,0.032844,-0.07725,-0.025069,-39.317355,-85.111873,43.065091
340518,0.007364,-0.10324,-0.012964,-39.686353,-85.16365,43.439549
340618,-0.007359,-0.137314,-0.010447,-40.235643,-85.229128,43.98647
340718,-0.007432,-0.155577,-0.017575,-40.845666,-85.30466,44.594265
340818,-0.00717,-0.136564,-0.026252,-41.339872,-85.37467,45.085975
340918,0.007366,-0.089634,-0.041252,-41.535859,-85.429878,45.286841
341018,0.025835,-0.047864,-0.065102,-41.395348,-85.476109,45.160768
341118,0.044468,-0.028149,-0.092343,-40.995807,-85.524004,44.785596
341218,0.053386,-0.014248,-0.120925,-40.354578,-85.576202,44.173168
341318,0.063331,0.009262,-0.140984,-39.464354,-85.624739,43.31678
341418,0.073156,0.030078,-0.157482,-38.353198,-85.668718,42.24454
341518,0.064648,0.037542,-0.168811,-37.121608,-85.711559,41.04672
341618,0.044693,0.035747,-0.174783,-35.84854,-85.755233,39.795935
341718,0.032385,0.042021,-0.179875,-34.496821,-85.795461,38.459307
341818,0.029176,0.065441,-0.183873,-32.99543,-85.823302,36.970844
341918,0.031734,0.082792,-0.189709,-31.363479,-85.841492,35.353019
342018,0.061553,0.080713,-0.188372,-29.719621,-85.856901,33.74046
342118,0.125132,0.10252,-0.173528,-28.051923,-85.853801,32.140592
342218,0.18219,0.167493,-0.155805,-26.254545,-85.809329,30.443498
342318,0.193153,0.259604,-0.137407,-24.325603,-85.708502,28.620684
342418,0.163918,0.375721,-0.127724,-22.240132,-85.539546,26.623813
342518,0.108587,0.519102,-0.127682,-19.990122,-85.288148,24.429519
342618,0.049916,0.667947,-0.136847,-17.64495,-84.950763,22.105044
342718,0.009924,0.80657,-0.148252,-15.327345,-84.531238,19.783851
342818,0.02041,0.879037,-0.142082,-13.277315,-84.062845,17.735832
342918,0.056515,0.827898,-0.118192,-11.680605,-83.614023,16.162825
343018,0.102684,0.664913,-0.130686,-10.34877,-83.254302,14.881797
343118,0.106472,0.445982,-0.177535,-9.094445,-83.019811,13.680209
343218,0.056095,0.213605,-0.189597,-8.041942,-82.915428,12.652424
343318,0.029779,-0.032873,-0.186725,-7.18766,-82.948946,11.809067
343418,0.071019,-0.269766,-0.18277,-6.443418,-83.11568,11.100503
343518,0.140864,-0.439632,-0.184995,-5.693512,-83.378298,10.42679
343618,0.188225,-0.500122,-0.206656,-4.771467,-83.675424,9.607467
343718,0.138012,-0.423623,-0.216046,-3.714522,-83.927599,8.623899
343818,0.017973,-0.237257,-0.194966,-2.708206,-84.070516,7.622417
343918,-0.097016,-0.035331,-0.144839,-1.964025,-84.095051,6.818391
344018,-0.175796,0.108079,-0.092239,-1.530858,-84.035737,6.28166
344118,-0.210647,0.142506,-0.044167,-1.384087,-83.955838,6.012772
344218,-0.215985,0.079433,-0.000316,-1.488675,-83.911576,5.993569
344318,-0.207581,-0.017506,0.049231,-1.868672,-83.922171,6.256193
344418,-0.185046,-0.095163,0.096577,-2.510081,-83.976086,6.794672
344518,-0.158905,-0.150443,0.119567,-3.290044,-84.06037,7.487455
344618,-0.134624,-0.203044,0.124014,-4.122752,-84.173628,8.247118
344718,-0.111805,-0.252871,0.112554,-4.932505,-84.314798,8.996666
344818,-0.076962,-0.270857,0.091216,-5.646374,-84.466373,9.66972
344918,-0.042596,-0.261237,0.066033,-6.220242,-84.613207,10.221725
345018,-0.022265,-0.240378,0.040976,-6.642709,-84.749294,10.63322
345118,-0.023578,-0.208245,0.016242,-6.905554,-84.868514,10.883566
345218,-0.052287,-0.177374,-0.006045,-7.027291,-84.971619,10.975654
345318,-0.095063,-0.138743,-0.023384,-7.031592,-85.053937,10.925204
345418,-0.143875,-0.104155,-0.042435,-6.907175,-85.117884,10.717457
345518,-0.183765,-0.082805,-0.049777,-6.734121,-85.170128,10.437944
345618,-0.204247,-0.074419,-0.04685,-6.580788,-85.217339,10.166442
345718,-0.204222,-0.083973,-0.034671,-6.514054,-85.269153,9.981862
345818,-0.183314,-0.110053,-0.018117,-6.568306,-85.334735,9.930711
345918,-0.145214,-0.143389,0.000995,-6.763788,-85.418035,10.043165
346018,-0.096544,-0.190396,0.01833,-7.10459,-85.526832,10.329366
346118,-0.048751,-0.231911,0.031657,-7.573826,-85.658081,10.771815
346218,-0.001603,-0.25912,0.039795,-8.13696,-85.803815,11.335442
346318,0.041028,-0.275903,0.042673,-8.759577,-85.95836,11.983094
346418,0.074101,-0.288741,0.047145,-9.468249,-86.119188,12.735874
346518,0.104471,-0.292366,0.050865,-10.259823,-86.280975,13.589024
346618,0.122433,-0.289999,0.053822,-11.13729,-86.440244,14.538374
346718,0.122065,-0.27398,0.054715,-12.075253,-86.589415,15.54793
346818,0.110649,-0.259934,0.051622,-13.045128,-86.730046,16.58271
346918,0.102718,-0.243307,0.045741,-14.006001,-86.861135,17.603744
347018,0.10478,-0.20857,0.045064,-14.945383,-86.972044,18.604285
347118,0.114881,-0.154022,0.05186,-15.856652,-87.050857,19.582354
347218,0.138163,-0.09187,0.059403,-16.683145,-87.09345,20.488816
347318,0.171468,-0.036196,0.064684,-17.381753,-87.104,21.286292
347418,0.19802,-3.8e-05,0.064893,-17.944785,-87.094293,21.96323
347518,0.217144,0.015086,0.065869,-18.448101,-87.075827,22.591332
347618,0.225108,0.028434,0.07553,-18.991982,-87.048009,23.264617
347718,0.228569,0.061177,0.090048,-19.551216,-86.999358,23.955272
347818,0.22066,0.109364,0.107615,-20.093057,-86.920928,24.624003
347918,0.196524,0.161824,0.127802,-20.621519,-86.809927,25.265535
348018,0.147833,0.207247,0.150993,-21.188571,-86.669513,25.917838
348118,0.085686,0.244407,0.161252,-21.700189,-86.506777,26.479011
348218,0.023169,0.267808,0.154965,-22.066519,-86.332685,26.858777
348318,-0.011617,0.285055,0.134604,-22.200293,-86.15373,26.985533
