SampleTimeFine,Gyr_X,Gyr_Y,Gyr_Z,Roll,Pitch,Yaw
511298,-0.012779,0.050258,-0.011124,-14.645071,-75.739063,14.212325
511398,-0.012415,0.05111,-0.011558,-14.594142,-75.713353,14.185776
511498,-0.007367,0.052386,-0.010444,-14.542731,-75.686755,14.144659
511598,-0.002533,0.054216,-0.008294,-14.492854,-75.658837,14.091478
511698,-0.004657,0.060355,-0.005399,-14.446921,-75.626851,14.059796
511798,-0.009359,0.062033,-0.005177,-14.404269,-75.594084,13.996527
511898,-0.017004,0.052411,-0.003545,-14.374704,-75.566311,13.956378
511998,-0.017465,0.040865,-0.003761,-14.351419,-75.544986,13.922792
512098,-0.018605,0.024559,-0.007186,-14.330459,-75.533154,13.892615
512198,-0.016958,0.01542,-0.012736,-14.301769,-75.527206,13.851758
512298,-0.012777,0.021392,-0.013248,-14.266427,-75.518014,13.803968
512398,-0.009723,0.032772,-0.014891,-14.21962,-75.502711,13.747937
512498,-0.005864,0.032616,-0.013676,-14.173418,-75.487321,13.694278
512598,-0.008082,0.025005,-0.00961,-14.141406,-75.47557,13.654657
512698,-0.002934,0.024311,-0.003184,-14.12066,-75.463304,13.629219
512798,0.005002,0.032779,0.00237,-14.102764,-75.445554,13.610945
512898,0.010211,0.034877,-0.001272,-14.072995,-75.427148,13.583913
512998,0.011765,0.032281,-0.004657,-14.036585,-75.410658,13.550394
513098,0.015036,0.028702,-0.00784,-13.99347,-75.396588,13.512602
513198,0.008373,0.016142,-0.011758,-13.952551,-75.390034,13.473111
513298,0.005725,0.014904,-0.009082,-13.919561,-75.383792,13.439879
513398,0.015805,0.030337,-0.005898,-13.87946,-75.368519,13.405755
513498,0.02548,0.049649,-0.002707,-13.830572,-75.342061,13.367946
513598,0.034067,0.044993,-0.002613,-13.779538,-75.318173,13.333149
513698,0.03639,0.037535,-0.003532,-13.729225,-75.298552,13.300547
513798,0.033376,0.025452,-0.006998,-13.679645,-75.28612,13.266707
513898,0.028313,0.011593,-0.012147,-13.629244,-75.282094,13.229114
513998,0.029257,0.002064,-0.016783,-13.573384,-75.283991,13.186324
514098,0.032118,0.010796,-0.018862,-13.507013,-75.28129,13.134359
514198,0.037134,0.028232,-0.017717,-13.431378,-75.268702,13.075929
514298,0.034098,0.049618,-0.014377,-13.353913,-75.243732,13.013675
514398,0.025753,0.059855,-0.012211,-13.280928,-75.212748,12.951053
514498,0.015442,0.047274,-0.008129,-13.228955,-75.188227,12.904297
514598,0.003724,0.033431,-0.007211,-13.192622,-75.1713,12.866573
514698,-0.000836,0.021482,-0.011485,-13.155862,-75.161589,12.825779
514798,0.001087,0.016483,-0.015838,-13.111342,-75.155227,12.778019
514898,0.006728,0.02005,-0.021315,-13.050364,-75.147573,12.716548
514998,0.016723,0.030066,-0.02399,-12.973236,-75.134651,12.644385
515098,0.028124,0.040674,-0.025357,-12.881733,-75.115953,12.564067
515198,0.03277,0.047789,-0.024497,-12.786196,-75.093137,12.482281
515298,0.034504,0.043199,-0.021611,-12.698145,-75.072488,12.409381
515398,0.030259,0.041854,-0.02201,-12.612542,-75.052613,12.336348
515498,0.025647,0.046113,-0.022218,-12.527368,-75.030353,12.261148
515598,0.016266,0.045792,-0.02214,-12.448122,-75.008235,12.186428
515698,0.010736,0.045207,-0.018412,-12.380317,-74.985959,12.120309
515798,0.008066,0.050795,-0.017887,-12.312794,-74.96047,12.052891
515898,0.006116,0.059696,-0.016403,-12.245684,-74.929797,11.984674
515998,0.000818,0.061429,-0.017215,-12.179415,-74.898233,11.914258
516098,-0.007591,0.051225,-0.013218,-12.13106,-74.871885,11.857352
516198,-0.015122,0.033218,-0.012178,-12.097324,-74.85549,11.811127
516298,-0.018572,0.020056,-0.012178,-12.071466,-74.846464,11.770944
516398,-0.018009,0.01295,-0.012703,-12.047366,-74.841477,11.732999
516498,-0.012239,0.007836,-0.012277,-12.023117,-74.839301,11.698275
516598,-0.007818,0.012183,-0.013057,-11.992821,-74.834776,11.659999
516698,-0.008237,0.01843,-0.009694,-11.967011,-74.826345,11.626038
516798,-0.010417,0.023164,-0.005268,-11.949559,-74.814732,11.599443
516898,-0.009528,0.020078,-0.000277,-11.943277,-74.804256,11.584989
516998,-0.01386,0.013765,0.00414,-11.951356,-74.796796,11.582799
517098,-0.013107,-0.000669,0.00645,-11.970064,-74.797154,11.592096
517198,-0.007986,-0.01746,0.00854,-11.997503,-74.806674,11.613506
517298,-0.003477,-0.023773,0.002519,-12.012729,-74.820446,11.624899
517398,-0.005501,-0.019296,0.000749,-12.023512,-74.83192,11.630454
517498,-0.005428,-0.015621,-0.000793,-12.029458,-74.841517,11.631069
517598,-0.003377,-0.012816,-0.000301,-12.034016,-74.849483,11.631537
517698,0.004753,-0.006773,-0.000316,-12.031223,-74.854064,11.629216
517798,0.013951,-0.005687,0.000987,-12.025382,-74.857881,11.629075
517898,0.025595,-0.003491,0.000627,-12.011152,-74.86051,11.627186
517998,0.032945,-0.006886,0.000473,-11.993882,-74.86506,11.626535
518098,0.030125,-0.009651,0.000254,-11.978987,-74.871184,11.626687
518198,0.023322,-0.014875,0.002645,-11.975247,-74.879949,11.634378
518298,0.012964,-0.021996,0.003674,-11.982725,-74.892584,11.647468
518398,0.009446,-0.020644,0.008255,-12.001164,-74.903914,11.6698
518498,0.0217,0.005093,0.015613,-12.016508,-74.899942,11.696256
518598,0.035315,0.017584,0.016513,-12.020377,-74.888863,11.719004
518698,0.038509,0.018875,0.017486,-12.023844,-74.876946,11.743158
518798,0.036664,0.01132,0.015409,-12.027382,-74.869514,11.766187
518898,0.027954,-0.008561,0.012968,-12.039624,-74.873513,11.793112
518998,0.015133,-0.029946,0.016339,-12.0757,-74.889089,11.837086
519098,0.011489,-0.025648,0.0161,-12.111535,-74.902275,11.878632
519198,0.015389,-0.00718,0.018557,-12.142045,-74.904814,11.917027
519298,0.019209,0.00459,0.017612,-12.163144,-74.90087,11.948028
519398,0.023284,0.015095,0.014646,-12.171038,-74.8914,11.967683
519498,0.029877,0.010207,0.017156,-12.182533,-74.884364,11.994981
519598,0.03408,-0.01049,0.013758,-12.193838,-74.88933,12.024568
519698,0.031967,-0.036099,0.011984,-12.214196,-74.908849,12.062292
519798,0.024853,-0.051365,0.011665,-12.244937,-74.936949,12.106562
519898,0.020346,-0.05452,0.010476,-12.277356,-74.966953,12.149893
519998,0.012069,-0.038031,0.01009,-12.306349,-74.987765,12.184754
520098,0.007325,-0.020643,0.013117,-12.336524,-74.998469,12.218033
520198,0.005274,-0.006801,0.01469,-12.364864,-75.001229,12.248187
520298,0.007233,0.000175,0.016777,-12.39325,-74.999825,12.279568
520398,0.008987,-0.008581,0.018241,-12.427715,-75.003138,12.318258
520498,0.008575,-0.020196,0.019974,-12.471419,-75.012728,12.366274
520598,0.001244,-0.031578,0.022059,-12.52903,-75.028415,12.424335
520698,-0.004764,-0.03478,0.01976,-12.586888,-75.046163,12.479086
520798,-0.012562,-0.032095,0.018748,-12.645963,-75.062521,12.530474
520898,-0.017257,-0.022143,0.017565,-12.700662,-75.073452,12.574544
520998,-0.016394,-0.011569,0.015011,-12.744565,-75.078785,12.607953
521098,-0.011126,-0.009758,0.015033,-12.784663,-75.083098,12.640545
521198,-0.000196,-0.004268,0.008887,-12.803012,-75.085121,12.657107
521298,0.002369,-0.01274,0.008218,-12.822543,-75.09196,12.676408
521398,0.004716,-0.025852,0.008101,-12.846784,-75.106137,12.701972
521498,0.002787,-0.036116,0.00935,-12.87974,-75.125884,12.73541
521598,0.002445,-0.028228,0.009758,-12.910031,-75.141166,12.765885
521698,-0.003356,-0.019948,0.012016,-12.94446,-75.15153,12.797201
521798,-0.006996,-0.011409,0.010544,-12.973772,-75.157311,12.821064
521898,-0.010635,-0.014665,0.010782,-13.007275,-75.164876,12.847109
521998,-0.007537,-0.022826,0.009098,-13.039466,-75.17721,12.873628
522098,-0.008285,-0.026818,0.006153,-13.067872,-75.19215,12.89579
522198,-0.007472,-0.026149,0.004301,-13.091621,-75.206954,12.913614
522298,-0.008005,-0.020147,0.00152,-13.106882,-75.218768,12.922342
522398,-0.008027,-0.018914,0.002497,-13.123634,-75.229765,12.932601
522498,-0.006494,-0.015079,0.001114,-13.134706,-75.238801,12.937893
522598,-0.009329,-0.018694,0.005182,-13.157822,-75.249323,12.953959
522698,-0.009846,-0.025265,0.005485,-13.18517,-75.26347,12.974092
522798,-0.011836,-0.033515,0.006104,-13.219132,-75.282135,12.999883
522898,-0.010268,-0.032152,0.006012,-13.251396,-75.300048,13.024846
522998,-0.007048,-0.028519,0.002121,-13.271783,-75.316443,13.039432
523098,-0.010245,-0.02788,0.004779,-13.299384,-75.332129,13.059581
523198,-0.01659,-0.030423,0.001797,-13.325597,-75.349626,13.074536
523298,-0.016515,-0.033017,0.002458,-13.354539,-75.368478,13.092356
523398,-0.017902,-0.033648,0.001726,-13.383088,-75.387778,13.108948
523498,-0.015645,-0.034057,-0.001555,-13.403587,-75.407739,13.118556
523598,-0.010676,-0.035124,-0.007518,-13.409037,-75.429085,13.115557
523698,-0.007897,-0.031966,-0.009844,-13.406288,-75.448981,13.105732
523798,-0.003538,-0.021526,-0.012498,-13.389974,-75.463408,13.084475
523898,-0.011858,-0.016381,-0.011979,-13.376883,-75.474896,13.061623
523998,-0.027959,-0.018583,-0.006986,-13.384868,-75.486948,13.051016
524098,-0.041267,-0.023169,-0.004008,-13.409247,-75.501163,13.049468
524198,-0.041436,-0.012048,-0.002294,-13.431713,-75.508952,13.045846
524298,-0.036756,0.000511,-0.001804,-13.446086,-75.509678,13.036637
524398,-0.030004,0.006986,-0.006726,-13.44264,-75.507455,13.013016
524498,-0.025567,-0.003878,-0.010603,-13.433891,-75.511802,12.986542
524598,-0.026066,-0.021371,-0.013405,-13.428384,-75.52627,12.963117
524698,-0.036088,-0.044234,-0.016485,-13.433734,-75.553887,12.944979
524798,-0.040421,-0.038691,-0.014536,-13.442908,-75.578153,12.928225
524898,-0.031343,-0.019321,-0.012893,-13.440391,-75.591405,12.904774
524998,-0.015865,-0.004484,-0.009298,-13.429099,-75.59591,12.881417
525098,-0.00493,-0.002296,-0.010712,-13.407331,-75.599383,12.853711
525198,0.001234,-0.012103,-0.009404,-13.389927,-75.608147,12.834156
525298,0.004794,-0.034365,-0.010473,-13.379647,-75.629463,12.82406
525398,0.009971,-0.052229,-0.012286,-13.371672,-75.660976,12.819405
525498,0.011843,-0.059783,-0.017337,-13.355482,-75.697369,12.807378
525598,0.016063,-0.049987,-0.020884,-13.32394,-75.728766,12.782005
525698,0.023008,-0.035766,-0.020716,-13.281284,-75.752206,12.749274
525798,0.031372,-0.022619,-0.017502,-13.233976,-75.767885,12.71669
525898,0.039355,-0.017587,-0.011485,-13.192655,-75.779963,12.695003
525998,0.040407,-0.021026,-0.009308,-13.157248,-75.793672,12.680038
526098,0.040727,-0.02713,-0.00557,-13.133002,-75.810298,12.676775
526198,0.037405,-0.027188,-0.003548,-13.115129,-75.826693,12.678122
526298,0.03189,-0.022041,-0.003892,-13.096986,-75.84026,12.675931
526398,0.026893,-0.01742,-0.001571,-13.084444,-75.850948,12.676566
526498,0.021657,-0.015692,-0.000403,-13.076585,-75.860522,12.678938
526598,0.017446,-0.015845,-0.000261,-13.071526,-75.870163,12.68171
526698,0.019689,-0.01507,-0.002737,-13.059285,-75.879693,12.678401
526798,0.026462,-0.022208,-0.001856,-13.048782,-75.893093,12.680888
526898,0.030491,-0.017091,-0.004219,-13.028075,-75.903942,12.675234
526998,0.030605,-0.006445,-0.008436,-12.992428,-75.90939,12.654246
527098,0.019554,-0.003719,-0.006646,-12.965676,-75.913083,12.635902
527198,0.005232,-0.007921,-0.007487,-12.947393,-75.919229,12.617833
527298,-0.007208,-0.015979,-0.006426,-12.942701,-75.929737,12.60643
527398,-0.016357,-0.022538,-0.011563,-12.935139,-75.944568,12.586668
527498,-0.021186,-0.022682,-0.011908,-12.929617,-75.959524,12.566156
527598,-0.021781,-0.0262,-0.013429,-12.922811,-75.97664,12.543971
527698,-0.021014,-0.030076,-0.015699,-12.912436,-75.99621,12.518562
527798,-0.021849,-0.032933,-0.013825,-12.908159,-76.017135,12.498947
527898,-0.02726,-0.033077,-0.011925,-12.911288,-76.037897,12.483771
527998,-0.029535,-0.027177,-0.013893,-12.908236,-76.055616,12.460885
528098,-0.032878,-0.022532,-0.016613,-12.898548,-76.071088,12.429189
528198,-0.026466,-0.012066,-0.018918,-12.874554,-76.081008,12.38654
528298,-0.021904,-0.009356,-0.020393,-12.843184,-76.089596,12.338983
528398,-0.017585,-0.011041,-0.015206,-12.821872,-76.098461,12.304334
528498,-0.012924,-0.018047,-0.011833,-12.809071,-76.11081,12.281203
528598,-0.009524,-0.023063,-0.011848,-12.796835,-76.125961,12.260662
528698,-0.006817,-0.017677,-0.010104,-12.784196,-76.137881,12.241303
528798,-0.003445,-0.014493,-0.007654,-12.773515,-76.147709,12.225953
528898,-0.001119,-0.010958,-0.005863,-12.763729,-76.155334,12.212897
528998,0.001158,-0.008262,-0.005579,-12.751886,-76.161415,12.199067
529098,0.009918,-0.007033,-0.003817,-12.738381,-76.166587,12.188695
529198,0.015698,-0.007965,-0.005402,-12.718437,-76.172479,12.175101
529298,0.017611,-0.010414,-0.004359,-12.701009,-76.179607,12.165226
529398,0.022215,-0.011554,-0.004276,-12.681704,-76.187361,12.156133
529498,0.02659,-0.015698,-0.001797,-12.667636,-76.197119,12.155014
529598,0.028328,-0.023485,-0.00099,-12.658384,-76.211128,12.15988
529698,0.023733,-0.029939,0.002087,-12.662083,-76.228358,12.175372
529798,0.015058,-0.034537,0.001565,-12.671948,-76.248223,12.192095
529898,0.007001,-0.039645,0.001424,-12.688777,-76.27096,12.211234
529998,0.000216,-0.039237,0.002138,-12.710978,-76.293376,12.231902
530098,0.001476,-0.023912,0.003655,-12.728059,-76.307035,12.248044
530198,0.012213,-0.004559,0.003563,-12.728763,-76.309889,12.253664
530298,0.018732,0.004675,-0.000995,-12.710493,-76.308159,12.243595
530398,0.017167,-0.004581,-0.003147,-12.69297,-76.311874,12.233371
530498,0.001947,-0.036578,-0.007272,-12.691233,-76.333992,12.230419
530598,-0.017003,-0.064777,-0.008206,-12.712846,-76.371988,12.240326
530698,-0.020113,-0.056182,-0.00532,-12.738512,-76.404813,12.252569
530798,-0.01387,-0.033932,-0.004989,-12.749796,-76.425161,12.253697
530898,-0.004753,-0.019088,-0.005602,-12.746669,-76.437291,12.245372
530998,0.002474,-0.014678,-0.00496,-12.738567,-76.446876,12.236189
531098,-0.000597,-0.024164,-0.002853,-12.742074,-76.461497,12.237136
531198,-0.002415,-0.049118,-0.003651,-12.757899,-76.490166,12.24968
531298,-0.007307,-0.077884,-0.00713,-12.78369,-76.535348,12.269587
531398,-0.006614,-0.088174,-0.013112,-12.800705,-76.587037,12.280875
531498,-0.003004,-0.083794,-0.013408,-12.812721,-76.636314,12.289147
531598,-0.005636,-0.070593,-0.013534,-12.818941,-76.678231,12.28991
531698,-0.005352,-0.055253,-0.007457,-12.831135,-76.710804,12.296981
531798,-0.005026,-0.047024,-0.008893,-12.835342,-76.738962,12.296036
531898,-0.002297,-0.038843,-0.006832,-12.838457,-76.762286,12.295577
531998,0.000529,-0.030292,-0.006308,-12.836567,-76.780767,12.29164
532098,0.000334,-0.032794,-0.004612,-12.840176,-76.80043,12.293239
532198,0.001784,-0.032886,-0.005779,-12.840227,-76.820292,12.292036
532298,0.000942,-0.032271,-0.003922,-12.844861,-76.839575,12.295044
532398,0.00175,-0.035226,-0.00184,-12.855641,-76.860243,12.304837
532498,-0.001402,-0.042978,-0.000601,-12.875476,-76.885083,12.322073
532598,-0.001863,-0.046213,0.002168,-12.904075,-76.911373,12.348034
532698,0.00149,-0.050635,-0.000397,-12.927127,-76.940458,12.370272
532798,0.012768,-0.033957,-0.005176,-12.923048,-76.960842,12.371289
532898,0.019548,-0.02314,-0.006476,-12.905953,-76.97535,12.362932
532998,0.024884,-0.025651,-0.005408,-12.889748,-76.991123,12.358623
533098,0.028886,-0.029441,-0.003985,-12.876773,-77.008831,12.359982
533198,0.036102,-0.032697,-0.002554,-12.864918,-77.028175,12.366733
533298,0.03688,-0.030569,-0.001035,-12.855114,-77.046138,12.376047
533398,0.034518,-0.029266,-0.001509,-12.844783,-77.063434,12.383431
533498,0.034102,-0.029703,-0.000694,-12.836912,-77.080872,12.393095
533598,0.033771,-0.029701,-0.003003,-12.823603,-77.098602,12.396983
533698,0.028107,-0.025964,-0.00478,-12.807115,-77.114471,12.394282
533798,0.019621,-0.023939,-0.004986,-12.793844,-77.129233,12.389892
533898,0.01738,-0.020523,-0.001662,-12.788075,-77.141663,12.391882
533998,0.012744,-0.017128,0.003153,-12.794861,-77.151586,12.404027
534098,0.013336,-0.009104,0.00611,-12.804094,-77.15665,12.419033
534198,0.018052,0.001844,0.007173,-12.807128,-77.155463,12.430455
534298,0.018122,0.010248,0.006634,-12.804117,-77.149649,12.43572
534398,0.012104,0.018801,0.003571,-12.792296,-77.139444,12.428412
534498,0.00126,0.025455,0.000514,-12.775538,-77.125908,12.409667
534598,-0.005762,0.026208,-0.001572,-12.757325,-77.112213,12.385304
534698,-0.007674,0.030308,-0.001825,-12.73737,-77.096255,12.358033
534798,-0.009374,0.039229,-0.001236,-12.714976,-77.075235,12.32726
534898,-0.011386,0.052228,-0.002218,-12.684316,-77.047068,12.286823
534998,-0.01979,0.061555,-0.00131,-12.655742,-77.013569,12.243582
535098,-0.026863,0.062184,-0.000322,-12.63345,-76.979591,12.202622
535198,-0.028963,0.058844,0.000331,-12.615903,-76.947395,12.165292
535298,-0.03074,0.050194,0.000625,-12.604864,-76.919998,12.133592
535398,-0.030859,0.043194,-0.004413,-12.585632,-76.897142,12.093408
535498,-0.028637,0.04162,-0.009713,-12.553356,-76.875823,12.041136
535598,-0.027427,0.045057,-0.013556,-12.509493,-76.853053,11.977671
535698,-0.017708,0.045188,-0.015385,-12.45581,-76.830424,11.909833
535798,-0.013214,0.040323,-0.017206,-12.397972,-76.810727,11.840363
535898,-0.011058,0.048484,-0.017974,-12.333008,-76.78654,11.764835
535998,-0.012263,0.069425,-0.008721,-12.280176,-76.749482,11.701049
536098,-0.006903,0.09353,-0.002135,-12.22784,-76.698113,11.640915
536198,-0.00697,0.099802,0.003957,-12.187152,-76.642485,11.592698
536298,-0.003559,0.084593,0.004319,-12.15342,-76.595325,11.553628
536398,-0.008294,0.0499,-0.001808,-12.125748,-76.568333,11.517995
536498,-0.021129,0.009233,-0.002179,-12.125117,-76.564163,11.502602
536598,-0.024711,0.001055,-0.002827,-12.129139,-76.564651,11.489886
536698,-0.01362,0.02555,-0.000697,-12.119477,-76.551161,11.469632
536798,0.003534,0.049411,-0.00152,-12.086144,-76.524401,11.435138
536898,0.015691,0.050014,0.002025,-12.053962,-76.496874,11.408985
536998,0.020416,0.031177,0.003516,-12.032025,-76.479724,11.396145
537098,0.020379,-0.014384,0.004012,-12.033916,-76.488047,11.40779
537198,0.012651,-0.06524,0.001891,-12.060649,-76.52512,11.440428
537298,0.003227,-0.087585,-0.001003,-12.097388,-76.575057,11.4778
537398,-0.002627,-0.083001,-0.009698,-12.114953,-76.623465,11.49201
537498,-0.004204,-0.055408,-0.01371,-12.110049,-76.656897,11.482199
537598,-0.005932,-0.024189,-0.0177,-12.08083,-76.673316,11.446385
537698,-0.007274,-1.8e-05,-0.018515,-12.038173,-76.676284,11.39597
537798,-0.003713,0.010637,-0.016701,-11.9924,-76.673055,11.344447
537898,-0.00026,0.012929,-0.011177,-11.956597,-76.667875,11.305202
537998,-0.000834,0.010183,-0.008301,-11.929332,-76.663888,11.274389
538098,-0.001862,0.003744,-0.003902,-11.916285,-76.662988,11.257581
538198,0.00044,-0.004748,-0.003499,-11.90711,-76.666801,11.246108
538298,0.005377,-0.011371,-0.002558,-11.900634,-76.674216,11.240314
538398,0.013541,-0.008981,-0.006719,-11.878431,-76.680781,11.223163
538498,0.024872,-0.001453,-0.010324,-11.837438,-76.683546,11.193372
538598,0.035757,-0.001939,-0.008663,-11.79438,-76.686384,11.167864
538698,0.046701,0.002443,-0.006615,-11.747734,-76.686521,11.14511
538798,0.05342,-0.000644,-0.00122,-11.711552,-76.687757,11.137062
538898,0.048806,-0.009904,0.002502,-11.691382,-76.693755,11.142754
538998,0.04561,-0.023282,0.006398,-11.688854,-76.706808,11.164693
539098,0.045449,-0.029562,0.007977,-11.693278,-76.7232,11.193683
539198,0.043786,-0.02583,0.007081,-11.694718,-76.737604,11.218626
539298,0.03711,-0.016289,0.005019,-11.690391,-76.746896,11.233713
539398,0.032574,-0.005866,0.002044,-11.67644,-76.750686,11.23624
539498,0.027534,-0.001834,0.004444,-11.669115,-76.751936,11.242603
539598,0.026103,-0.006237,0.008714,-11.674959,-76.755163,11.261651
539698,0.019558,-0.017614,0.015905,-11.707329,-76.763937,11.304096
539798,0.014916,-0.034855,0.016169,-11.751599,-76.782346,11.356031
539898,0.013055,-0.042968,0.016147,-11.801071,-76.805297,11.412212
539998,0.009408,-0.041597,0.015436,-11.850418,-76.827551,11.466118
540098,0.006974,-0.031359,0.012804,-11.889844,-76.844365,11.508399
540198,0.007181,-0.015967,0.008318,-11.910681,-76.853074,11.531712
540298,0.008771,-0.004097,0.003809,-11.913793,-76.855661,11.537756
540398,0.007983,-0.001623,0.002798,-11.913681,-76.856982,11.540022
540498,0.001723,-0.012142,0.006898,-11.93234,-76.863715,11.557878
540598,0.001292,-0.024769,0.007163,-11.95833,-76.877494,11.583006
540698,-0.002112,-0.034056,0.00684,-11.990294,-76.896513,11.612264
540798,-0.005974,-0.035657,0.00808,-12.028374,-76.916277,11.645527
540898,-0.007513,-0.032201,0.007542,-12.06436,-76.934164,11.675734
540998,-0.00101,-0.024693,0.006082,-12.089292,-76.948016,11.698416
541098,0.004536,-0.019133,0.00488,-12.105301,-76.958894,11.7152
541198,0.005404,-0.01203,0.002478,-12.111337,-76.966082,11.722256
541298,0.003545,-0.011456,-0.000555,-12.110808,-76.973313,11.721478
541398,-0.001664,-0.017137,-0.000871,-12.115454,-76.983765,11.722947
541498,-0.005925,-0.023743,-0.003727,-12.119064,-76.99826,11.720845
541598,-0.015121,-0.031988,-0.002734,-12.134662,-77.017256,11.725639
541698,-0.024242,-0.035704,-0.004566,-12.153009,-77.038553,11.72789
541798,-0.021861,-0.021785,-0.00324,-12.165947,-77.051894,11.72599
541898,-0.011237,0.005302,-0.002197,-12.161122,-77.049939,11.712107
541998,-0.005367,0.022179,-0.003146,-12.141789,-77.038646,11.686783
542098,0.005092,0.029714,-0.001899,-12.115612,-77.022981,11.660579
542198,0.010415,0.017037,0.002613,-12.104012,-77.013873,11.652461
542298,-0.00515,-0.007649,0.00389,-12.117308,-77.018439,11.66074
542398,-0.011915,-0.017447,0.008895,-12.151777,-77.027888,11.686774
542498,-0.009635,-0.007183,0.012249,-12.187748,-77.031178,11.715691
542598,0.000429,0.009032,0.013054,-12.211389,-77.025288,11.737874
542698,0.006915,0.016517,0.011312,-12.223122,-77.015417,11.751649
542798,0.013187,0.014341,0.010121,-12.229501,-77.006911,11.763615
542898,0.014034,-0.002618,0.008405,-12.24015,-77.00811,11.780456
542998,0.011052,-0.03108,0.010099,-12.271656,-77.025039,11.816943
543098,0.008454,-0.059684,0.011059,-12.322281,-77.057857,11.871516
543198,0.00865,-0.068787,0.015499,-12.388783,-77.095214,11.942486
543298,0.009363,-0.060788,0.012383,-12.443311,-77.128461,12.001585
543398,0.004689,-0.046136,0.010143,-12.487343,-77.153778,12.047167
543498,0.001805,-0.039947,0.007281,-12.522787,-77.175981,12.082244
543598,0.001457,-0.04253,0.006176,-12.557245,-77.199764,12.116099
543698,0.003064,-0.044046,0.00567,-12.590497,-77.224454,12.149656
543798,0.003706,-0.046932,0.007717,-12.630173,-77.250499,12.19017
543898,0.00419,-0.05029,0.013625,-12.686239,-77.277672,12.247761
543998,0.004928,-0.058352,0.018006,-12.757528,-77.308785,12.32138
544098,0.004439,-0.066424,0.023469,-12.84762,-77.343691,12.413972
544198,0.006025,-0.073532,0.026079,-12.947887,-77.382199,12.517911
544298,0.003491,-0.077356,0.02416,-13.047641,-77.423049,12.619824
544398,0.004966,-0.075029,0.023288,-13.143647,-77.462677,12.718749
544498,0.004861,-0.067794,0.019234,-13.225843,-77.498765,12.803453
544598,0.009436,-0.045801,0.016307,-13.285409,-77.52295,12.867652
544698,0.005465,-0.038488,0.014528,-13.338628,-77.54328,12.923012
544798,0.006011,-0.045712,0.015767,-13.399196,-77.567461,12.98621
544898,0.006076,-0.060425,0.021713,-13.483966,-77.599032,13.07422
544998,0.007246,-0.067712,0.023748,-13.578143,-77.634359,13.172535
545098,0.00671,-0.066346,0.027141,-13.680968,-77.668432,13.279375
545198,0.009078,-0.054225,0.026231,-13.773101,-77.695843,13.376649
545298,0.017808,-0.038968,0.026043,-13.850551,-77.714762,13.464002
545398,0.024987,-0.025618,0.021631,-13.904395,-77.726841,13.531398
545498,0.021971,-0.029539,0.020898,-13.960713,-77.74119,13.599549
545598,0.017219,-0.040343,0.022467,-14.030845,-77.761311,13.679042
545698,0.022632,-0.050816,0.022961,-14.106149,-77.787163,13.766992
545798,0.02824,-0.05287,0.029072,-14.195642,-77.813271,13.872735
545898,0.035556,-0.050489,0.032876,-14.289596,-77.837485,13.98732
545998,0.039862,-0.045447,0.037689,-14.390573,-77.858174,14.111605
546098,0.043952,-0.041621,0.036722,-14.484528,-77.876835,14.231097
546198,0.043573,-0.039569,0.037132,-14.578699,-77.894259,14.350581
546298,0.042723,-0.036841,0.033898,-14.663438,-77.910602,14.459913
546398,0.036979,-0.034016,0.028388,-14.735529,-77.926151,14.552937
546498,0.032123,-0.03612,0.029616,-14.815247,-77.942662,14.650905
546598,0.027366,-0.042986,0.03157,-14.907757,-77.962658,14.759157
546698,0.022738,-0.048248,0.035262,-15.016527,-77.984982,14.881311
546798,0.021178,-0.050423,0.036535,-15.13147,-78.00827,15.008851
546898,0.019536,-0.049181,0.036052,-15.245681,-78.03089,15.134671
546998,0.01405,-0.045788,0.035053,-15.358444,-78.051734,15.255788
547098,0.013332,-0.03348,0.028899,-15.447035,-78.066673,15.351773
547198,0.010023,-0.016556,0.024603,-15.514223,-78.072899,15.423941
547298,0.007099,-0.005919,0.017912,-15.557919,-78.074266,15.470384
547398,-0.000555,-0.013233,0.014023,-15.601191,-78.080264,15.511904
547498,-0.012515,-0.032466,0.013045,-15.662909,-78.097018,15.565267
547598,-0.011566,-0.041375,0.019062,-15.746591,-78.117738,15.641626
547698,-0.01028,-0.039271,0.024817,-15.84335,-78.136376,15.732095
547798,-0.012564,-0.033047,0.024394,-15.935933,-78.151619,15.816956
547898,-0.012939,-0.033022,0.02124,-16.020654,-78.167319,15.893557
547998,-0.009319,-0.045262,0.015497,-16.097699,-78.190645,15.964429
548098,-0.014366,-0.060648,0.011572,-16.179351,-78.223042,16.037047
548198,-0.012554,-0.066835,0.013057,-16.269087,-78.258582,16.118978
548298,-0.009913,-0.04818,0.012155,-16.34092,-78.283983,16.184163
548398,-0.005285,-0.025806,0.012322,-16.39335,-78.297044,16.232238
548498,-0.002146,-0.020441,0.010854,-16.435986,-78.307389,16.272144
548598,0.006587,-0.039139,0.010595,-16.487707,-78.328044,16.326432
548698,0.014202,-0.068048,0.008348,-16.55215,-78.364935,16.39816
548798,0.013576,-0.09839,0.007108,-16.63833,-78.418671,16.491697
548898,0.011149,-0.116136,0.009933,-16.748706,-78.481649,16.608493
548998,0.00342,-0.118526,0.00723,-16.859414,-78.546338,16.721084
549098,-0.000571,-0.099253,0.008837,-16.962056,-78.600151,16.823091
549198,0.001988,-0.068223,0.005581,-17.029363,-78.637478,16.890533
549298,0.009171,-0.032012,0.004847,-17.060592,-78.65508,16.925364
549398,0.017619,-0.010495,0.0029,-17.063703,-78.661223,16.936448
549498,0.02181,-0.008862,0.001845,-17.060175,-78.66665,16.943203
549598,0.027467,-0.025867,0.001931,-17.067934,-78.681378,16.96477
549698,0.029786,-0.046653,0.006917,-17.105602,-78.706648,17.018187
549798,0.024583,-0.062323,0.011657,-17.172796,-78.739686,17.098665
549898,0.020207,-0.06427,0.015598,-17.255464,-78.7731,17.192355
549998,0.017123,-0.055277,0.016864,-17.336158,-78.801352,17.282226
550098,0.017354,-0.041803,0.016564,-17.404618,-78.822266,17.359754
550198,0.018622,-0.029292,0.015387,-17.458449,-78.836527,17.423106
550298,0.016224,-0.027873,0.017592,-17.51867,-78.849622,17.491571
550398,0.020783,-0.025301,0.01605,-17.569885,-78.861566,17.553516
550498,0.025102,-0.037537,0.016296,-17.630231,-78.880139,17.627283
550598,0.028934,-0.056737,0.017083,-17.707856,-78.909039,17.720891
550698,0.025099,-0.068575,0.018724,-17.803317,-78.944083,17.830425
550798,0.017377,-0.072786,0.017539,-17.904348,-78.981595,17.941116
550898,0.00408,-0.066117,0.017872,-18.008569,-79.015375,18.047286
550998,-0.004365,-0.052971,0.016226,-18.101546,-79.042251,18.137068
551098,-0.009519,-0.037827,0.013862,-18.177238,-79.061279,18.206233
551198,-0.006857,-0.012877,0.008199,-18.21252,-79.067728,18.235792
551298,5.8e-05,0.004192,0.003777,-18.215579,-79.065679,18.236563
551398,0.008912,-0.003562,0.002492,-18.217151,-79.06808,18.240979
551498,0.01411,-0.023965,0.006255,-18.245323,-79.080908,18.275514
551598,0.014026,-0.040987,0.012617,-18.30749,-79.101846,18.344616
551698,0.009852,-0.042884,0.018387,-18.390419,-79.122757,18.432421
551798,0.002237,-0.038359,0.024673,-18.491556,-79.140042,18.534323
551898,-0.008338,-0.03131,0.026687,-18.598056,-79.153095,18.635515
551998,-0.017271,-0.020743,0.027844,-18.703048,-79.160165,18.729963
552098,-0.026034,-0.020402,0.023351,-18.800113,-79.167847,18.811232
552198,-0.028639,-0.025197,0.018341,-18.88923,-79.179033,18.88289
552298,-0.026019,-0.024338,0.01066,-18.954367,-79.191162,18.931663
552398,-0.020649,-0.017384,0.002472,-18.986494,-79.20104,18.949961
552498,-0.013702,-0.013214,0.001563,-19.008027,-79.208826,18.961524
552598,-0.013799,-0.015772,0.004318,-19.039989,-79.217481,18.983645
552698,-0.013475,-0.020997,0.008035,-19.087531,-79.228265,19.021815
552798,-0.015397,-0.023979,0.01443,-19.157417,-79.239456,19.081609
552898,-0.016365,-0.025748,0.017528,-19.238575,-79.251004,19.152313
552998,-0.016358,-0.03217,0.021424,-19.337412,-79.265266,19.241018
553098,-0.018773,-0.035695,0.018334,-19.432605,-79.281993,19.324605
553198,-0.015324,-0.030651,0.011139,-19.500423,-79.297347,19.382341
553298,-0.008916,-0.019256,0.005382,-19.536707,-79.307638,19.411723
553398,0.000823,0.002125,0.004208,-19.542394,-79.306606,19.415644
553498,0.013139,0.03318,0.003119,-19.506457,-79.289011,19.384383
553598,0.021697,0.057819,0.00564,-19.448113,-79.25762,19.335301
553698,0.023311,0.064896,0.010448,-19.395746,-79.221482,19.293232
553798,0.020914,0.046374,0.017203,-19.382623,-79.194065,19.289709
553898,0.011427,0.018058,0.024851,-19.424768,-79.180495,19.336919
553998,0.002575,-0.001474,0.030784,-19.508141,-79.176331,19.420946
554098,0.00537,0.017036,0.034304,-19.581192,-79.161474,19.496104
554198,0.01817,0.055239,0.032021,-19.601972,-79.126421,19.525515
554298,0.040214,0.067355,0.026641,-19.58284,-79.085863,19.527142
554398,0.051231,0.044739,0.022764,-19.569109,-79.05826,19.540691
554498,0.05102,0.004719,0.015023,-19.573605,-79.05375,19.572678
554598,0.04814,-0.022517,0.008014,-19.58724,-79.065289,19.612289
554698,0.049997,-0.030336,0.003743,-19.595708,-79.08187,19.647721
554798,0.051239,-0.018789,0.005541,-19.597033,-79.091871,19.676603
554898,0.052818,0.001205,0.009937,-19.589838,-79.090236,19.697731
554998,0.051815,0.018039,0.016775,-19.585576,-79.0782,19.721264
555098,0.052287,0.027278,0.019001,-19.578055,-79.060748,19.741755
555198,0.046706,0.033008,0.019192,-19.568559,-79.040166,19.75698
555298,0.041622,0.032747,0.018767,-19.56104,-79.019805,19.771254
555398,0.039249,0.037403,0.019365,-19.55193,-78.996816,19.782523
555498,0.038476,0.046747,0.014404,-19.520323,-78.969734,19.770423
555598,0.034886,0.0492,0.015439,-19.49133,-78.941129,19.758888
555698,0.03474,0.04089,0.015068,-19.469603,-78.917085,19.75467
555798,0.040075,0.018014,0.018957,-19.477852,-78.904657,19.78411
555898,0.046036,-0.016284,0.022846,-19.526821,-78.910007,19.858523
555998,0.055781,-0.041304,0.027248,-19.606965,-78.928005,19.970392
556098,0.071411,-0.05712,0.033113,-19.710306,-78.953369,20.115015
556198,0.087008,-0.053162,0.032721,-19.800236,-78.976627,20.25507
556298,0.100086,-0.044139,0.033635,-19.876628,-78.994803,20.388959
556398,0.108483,-0.049105,0.029355,-19.94169,-79.016456,20.516198
556498,0.120317,-0.060454,0.026691,-20.004444,-79.044715,20.647986
556598,0.128756,-0.063808,0.024246,-20.059462,-79.075233,20.776807
556698,0.139909,-0.066086,0.025786,-20.11523,-79.10665,20.912889
556798,0.152302,-0.07536,0.031753,-20.190736,-79.141848,21.076286
556898,0.161468,-0.081935,0.039175,-20.289456,-79.179064,21.268648
556998,0.168799,-0.080412,0.044894,-20.399484,-79.214256,21.476778
557098,0.174676,-0.076977,0.05176,-20.522931,-79.246148,21.701975
557198,0.182809,-0.069367,0.053392,-20.639228,-79.27354,21.924617
557298,0.193714,-0.064452,0.056872,-20.754704,-79.297508,22.152766
557398,0.206568,-0.057679,0.055093,-20.851181,-79.318129,22.369062
557498,0.219209,-0.04617,0.054509,-20.926802,-79.332647,22.571497
557598,0.231425,-0.036772,0.052031,-20.97847,-79.3426,22.756675
557698,0.240299,-0.037352,0.052434,-21.02705,-79.352751,22.943881
557798,0.246989,-0.037799,0.051775,-21.070632,-79.363248,23.129899
557898,0.253665,-0.037703,0.053632,-21.115792,-79.373284,23.321411
557998,0.256155,-0.034328,0.052379,-21.152439,-79.38175,23.505708
558098,0.259004,-0.049743,0.054842,-21.211767,-79.397914,23.714735
558198,0.259837,-0.070626,0.058458,-21.304685,-79.424426,23.958408
558298,0.258434,-0.075713,0.063268,-21.418748,-79.452566,24.222756
558398,0.253393,-0.076649,0.065539,-21.544284,-79.480628,24.495815
558498,0.248046,-0.074644,0.066057,-21.673138,-79.507402,24.76911
558598,0.244619,-0.067446,0.067976,-21.802185,-79.529827,25.040585
558698,0.245268,-0.066571,0.068971,-21.933564,-79.551464,25.314789
558798,0.244575,-0.070028,0.071621,-22.07788,-79.574249,25.601722
558898,0.242955,-0.080556,0.073169,-22.241011,-79.602148,25.906817
558998,0.246131,-0.089104,0.075842,-22.421549,-79.63383,26.231429
559098,0.245817,-0.094267,0.0802,-22.622699,-79.667094,26.576778
559198,0.24258,-0.097891,0.081457,-22.835563,-79.70177,26.932112
559298,0.233626,-0.102352,0.085364,-23.072388,-79.737677,27.306545
559398,0.23861,-0.086811,0.090992,-23.3053,-79.763855,27.679872
559498,0.243958,-0.072872,0.091863,-23.521475,-79.782246,28.039279
559598,0.238868,-0.070412,0.088103,-23.727486,-79.799976,28.385372
559698,0.235051,-0.066742,0.087691,-23.930685,-79.815659,28.726365
559798,0.227974,-0.072626,0.082468,-24.131273,-79.835427,29.060563
559898,0.204884,-0.085558,0.081459,-24.360331,-79.861965,29.410215
559998,0.193563,-0.081373,0.087229,-24.608636,-79.884692,29.772801
560098,0.189914,-0.06606,0.094396,-24.860561,-79.897453,30.136918
560198,0.183178,-0.054448,0.098798,-25.114043,-79.902838,30.498684
560298,0.176051,-0.054354,0.099639,-25.374237,-79.907685,30.863117
560398,0.163911,-0.063415,0.097124,-25.647023,-79.917543,31.23327
560498,0.143886,-0.081154,0.089461,-25.934734,-79.938147,31.606917
560598,0.12256,-0.097081,0.081561,-26.235894,-79.968605,31.98179
560698,0.110325,-0.098876,0.068924,-26.511983,-80.002872,32.324052
560798,0.10327,-0.085157,0.057384,-26.740462,-80.032815,32.613838
560898,0.09649,-0.073467,0.049288,-26.933444,-80.058694,32.863619
560998,0.086288,-0.066967,0.043235,-27.106053,-80.082693,33.086764
561098,0.076053,-0.070873,0.039565,-27.28066,-80.109528,33.305968
561198,0.066422,-0.075273,0.038295,-27.464835,-80.138818,33.529266
561298,0.062804,-0.072589,0.037404,-27.645562,-80.166857,33.746943
561398,0.054479,-0.063903,0.037203,-27.81816,-80.190429,33.951517
561498,0.048733,-0.052735,0.034899,-27.970781,-80.208863,34.132469
561598,0.043496,-0.045954,0.034788,-28.116059,-80.223818,34.302922
561698,0.040109,-0.046637,0.030731,-28.252926,-80.240146,34.462866
561798,0.039154,-0.050643,0.026506,-28.384779,-80.259579,34.617165
561898,0.02995,-0.049295,0.016184,-28.48998,-80.281095,34.739067
561998,0.028247,-0.047374,0.010478,-28.576764,-80.30317,34.841295
562098,0.023813,-0.039124,0.001086,-28.625519,-80.323649,34.902366
562198,0.018062,-0.024473,-0.006649,-28.631288,-80.338879,34.916491
562298,0.004411,-0.02821,-0.011934,-28.635304,-80.357439,34.920909
562398,-0.007087,-0.040733,-0.017371,-28.650081,-80.383788,34.929565
562498,-0.014532,-0.048689,-0.022113,-28.668006,-80.415439,34.937096
562598,-0.02177,-0.053579,-0.023875,-28.692884,-80.450032,34.947476
562698,-0.02376,-0.055585,-0.028746,-28.707704,-80.486973,34.946507
562798,-0.024289,-0.057862,-0.030248,-28.722108,-80.525472,34.94481
562898,-0.020192,-0.062897,-0.030857,-28.740715,-80.566669,34.949754
562998,-0.015524,-0.072535,-0.030934,-28.772578,-80.612727,34.970843
563098,-0.008833,-0.089569,-0.032281,-28.825361,-80.667706,35.017013
563198,0.004817,-0.105277,-0.031922,-28.898628,-80.730457,35.091852
563298,0.019959,-0.116768,-0.027401,-28.997881,-80.797695,35.201791
563398,0.03313,-0.126366,-0.024158,-29.117851,-80.868798,35.340334
563498,0.045384,-0.13682,-0.017761,-29.271236,-80.943285,35.519795
563598,0.064295,-0.140953,-0.008525,-29.453031,-81.017152,35.73895
563698,0.084034,-0.143001,0.002622,-29.665911,-81.088766,36.000971
563798,0.103015,-0.139904,0.014017,-29.902431,-81.155431,36.297867
563898,0.125109,-0.143884,0.027508,-30.181006,-81.21999,36.650065
563998,0.151244,-0.158453,0.039658,-30.516036,-81.28794,37.074456
564098,0.182067,-0.174945,0.048464,-30.899748,-81.361027,37.565867
564198,0.217606,-0.18939,0.056908,-31.326505,-81.438167,38.121301
564298,0.249723,-0.19397,0.058589,-31.758442,-81.516406,38.700466
564398,0.270587,-0.18558,0.05955,-32.173527,-81.589629,39.274573
564498,0.279671,-0.162999,0.05867,-32.54153,-81.651605,39.806262
564598,0.283718,-0.128881,0.056879,-32.83503,-81.697226,40.264939
564698,0.279221,-0.101344,0.053836,-33.065715,-81.730244,40.657508
564798,0.274456,-0.0857,0.047066,-33.245177,-81.75767,40.995548
564898,0.263836,-0.09975,0.040662,-33.442019,-81.793673,41.344993
564998,0.269211,-0.144197,0.038387,-33.729286,-81.851395,41.788881
565098,0.282867,-0.205093,0.036696,-34.146285,-81.93821,42.371649
565198,0.297415,-0.25676,0.031246,-34.667847,-82.050533,43.068298
565298,0.317808,-0.279648,0.030963,-35.249123,-82.17275,43.836845
565398,0.329029,-0.288766,0.029718,-35.86359,-82.298518,44.645163
565498,0.337561,-0.308104,0.028535,-36.542214,-82.432379,45.522906
565598,0.338048,-0.326796,0.033271,-37.314762,-82.571676,46.495393
565698,0.323744,-0.351346,0.03995,-38.220294,-82.717867,47.593396
565798,0.303514,-0.371378,0.051205,-39.276116,-82.866539,48.830848
565898,0.317018,-0.387488,0.066568,-40.475882,-83.013559,50.220751
565998,0.326124,-0.391603,0.088274,-41.81547,-83.150344,51.75634
566098,0.33191,-0.424004,0.094047,-43.337994,-83.293898,53.47905
566198,0.328637,-0.472528,0.093588,-45.10159,-83.451673,55.442047
566298,0.340207,-0.507274,0.08516,-47.049041,-83.619319,57.596125
566398,0.354018,-0.527564,0.06801,-49.117931,-83.79344,59.879647
566498,0.363382,-0.513671,0.048805,-51.179589,-83.961765,62.160577
566598,0.359364,-0.462864,0.034216,-53.089416,-84.110273,64.285897
566698,0.357105,-0.382025,0.029123,-54.709255,-84.226957,66.117943
566798,0.352192,-0.30043,0.03475,-56.027848,-84.309592,67.644107
566898,0.342757,-0.247783,0.036697,-57.140669,-84.37142,68.957899
566998,0.321919,-0.215916,0.036792,-58.132831,-84.421027,70.13836
567098,0.29314,-0.193989,0.033167,-59.038131,-84.463935,71.214921
567198,0.258051,-0.172766,0.022429,-59.837195,-84.504395,72.16451
567298,0.228859,-0.142839,0.008196,-60.467352,-84.542247,72.92759
567398,0.207437,-0.116209,-0.004634,-60.941094,-84.578335,73.521209
567498,0.189853,-0.094839,-0.012886,-61.293868,-84.612237,73.983203
567598,0.176287,-0.078652,-0.021208,-61.548172,-84.645655,74.338494
567698,0.16335,-0.067383,-0.033552,-61.716576,-84.6821,74.600081
567798,0.157234,-0.047483,-0.048973,-61.737437,-84.72088,74.709987
567898,0.169011,-0.022852,-0.061249,-61.580509,-84.759156,74.648153
567998,0.173598,0.005856,-0.071372,-61.230146,-84.794618,74.394752
568098,0.171843,0.042625,-0.086329,-60.627122,-84.827132,73.886685
568198,0.160241,0.064428,-0.095644,-59.873751,-84.857523,73.221042
568298,0.140299,0.07234,-0.100797,-59.062936,-84.887324,72.486315
568398,0.121647,0.09017,-0.104002,-58.145299,-84.912365,71.63368
568498,0.104602,0.112432,-0.107159,-57.096762,-84.930786,70.639889
568598,0.090147,0.124095,-0.11077,-55.973487,-84.945566,69.562814
568698,0.074044,0.125563,-0.119512,-54.812745,-84.962081,68.438928
568798,0.057427,0.121613,-0.130237,-53.633611,-84.982871,67.287089
568898,0.05246,0.117575,-0.148106,-52.397506,-85.011085,66.075283
568998,0.057217,0.119323,-0.165878,-51.062506,-85.044279,64.767039
569098,0.056288,0.120282,-0.186758,-49.615985,-85.083556,63.346434
569198,0.049384,0.149924,-0.195538,-47.963917,-85.112092,61.715668
569298,0.027723,0.176676,-0.194954,-46.179015,-85.125733,59.939211
569398,0.01388,0.170858,-0.183983,-44.473874,-85.132622,58.234885
569498,0.049658,0.150401,-0.15939,-42.959945,-85.134159,56.743045
569598,0.121934,0.137943,-0.124724,-41.634734,-85.124458,55.482145
569698,0.194554,0.108138,-0.080527,-40.628637,-85.108772,54.583228
569798,0.234783,0.0337,-0.048356,-40.09039,-85.112611,54.176956
569898,0.242784,-0.045126,-0.036131,-39.949687,-85.146322,54.174238
569998,0.242356,-0.09148,-0.041693,-39.98211,-85.202432,54.344983
570098,0.239554,-0.104324,-0.063414,-39.96081,-85.272174,54.460168
570198,0.224452,-0.098593,-0.091671,-39.771251,-85.349789,54.397829
570298,0.191145,-0.060802,-0.120441,-39.265611,-85.421158,53.999252
570398,0.1313,-0.011263,-0.149323,-38.391945,-85.4804,53.197148
570498,0.055966,0.031446,-0.169835,-37.229805,-85.526376,52.062468
570598,-0.034546,0.057959,-0.186335,-35.882487,-85.563825,50.690122
570698,-0.127409,0.065339,-0.204306,-34.424703,-85.60113,49.153701
570798,-0.213274,0.058103,-0.222014,-32.909484,-85.644438,47.510423
570898,-0.277754,0.028163,-0.22936,-31.471686,-85.701272,45.907839
570998,-0.300806,-0.017425,-0.225537,-30.209717,-85.776559,44.468448
571098,-0.29399,-0.069523,-0.215936,-29.161771,-85.872898,43.247701
571198,-0.281321,-0.128437,-0.207576,-28.33931,-85.995078,42.260432
571298,-0.274795,-0.178115,-0.190025,-27.782413,-86.136805,41.543241
571398,-0.256532,-0.204916,-0.16693,-27.455572,-86.28563,41.067207
571498,-0.218316,-0.209218,-0.14857,-27.241058,-86.431672,40.725746
571598,-0.18025,-0.18906,-0.138359,-26.980208,-86.564684,40.359767
571698,-0.16151,-0.1403,-0.131593,-26.527304,-86.67087,39.81221
571798,-0.163833,-0.088739,-0.123377,-25.889302,-86.748163,39.077977
571898,-0.155983,-0.038369,-0.109947,-25.118559,-86.795575,38.215348
571998,-0.149936,0.004239,-0.096942,-24.261616,-86.817003,37.269882
572098,-0.157449,0.017533,-0.086249,-23.444054,-86.828218,36.359554
572198,-0.186298,-0.017126,-0.0762,-22.872675,-86.85482,35.679236
572298,-0.222066,-0.063252,-0.066768,-22.588672,-86.903432,35.266219
572398,-0.257887,-0.111033,-0.060637,-22.571839,-86.975916,35.100229
572498,-0.280185,-0.151731,-0.061009,-22.733679,-87.070013,35.10039
572598,-0.285401,-0.173748,-0.058953,-23.024914,-87.175273,35.227137
572698,-0.277271,-0.174509,-0.058106,-23.34039,-87.280706,35.382827
572798,-0.266311,-0.163039,-0.056577,-23.628334,-87.379719,35.51725
572898,-0.2625,-0.148397,-0.053423,-23.891085,-87.470292,35.628648
572998,-0.262521,-0.139973,-0.052835,-24.128618,-87.556293,35.714802
573098,-0.253371,-0.132821,-0.05001,-24.367371,-87.637876,35.807432
573198,-0.248348,-0.134011,-0.045722,-24.678152,-87.719039,35.975036
573298,-0.253067,-0.140671,-0.043792,-25.077311,-87.803153,36.228378
573398,-0.263519,-0.152999,-0.037538,-25.67877,-87.892023,36.678164
573498,-0.27296,-0.172937,-0.031815,-26.559544,-87.989482,37.402016
573598,-0.275034,-0.193795,-0.025326,-27.787739,-88.095381,38.472271
573698,-0.264836,-0.211954,-0.022314,-29.354245,-88.208674,39.886807
573798,-0.249425,-0.220094,-0.025699,-31.136659,-88.325595,41.526114
573898,-0.224861,-0.225029,-0.030795,-33.125649,-88.444772,43.386084
573998,-0.199241,-0.209807,-0.036838,-35.102886,-88.556783,45.248903
574098,-0.163771,-0.16598,-0.041736,-36.638512,-88.648534,46.690249
574198,-0.131492,-0.11107,-0.037146,-37.593414,-88.712818,47.569192
574298,-0.093399,-0.049289,-0.029935,-37.760153,-88.746351,47.681616
574398,-0.049046,0.00034,-0.018542,-37.342618,-88.753362,47.235066
574498,0.001164,0.017983,-0.00901,-36.813212,-88.748928,46.705415
574598,0.048243,0.014321,-0.007482,-36.349307,-88.745551,46.268282
574698,0.080014,0.011317,-0.012578,-35.807425,-88.745195,45.771384
574798,0.09434,0.029642,-0.016686,-34.894893,-88.737493,44.911984
574898,0.092552,0.074762,-0.011637,-33.459595,-88.706383,43.528685
574998,0.088664,0.133494,5e-05,-31.577411,-88.642407,41.696159
575098,0.079313,0.177878,0.01543,-29.669971,-88.550681,39.832979
575198,0.063658,0.200758,0.034062,-28.11702,-88.440983,38.31538
575298,0.048594,0.199183,0.049178,-27.053546,-88.327195,37.278762
575398,0.032779,0.185959,0.060533,-26.427499,-88.216828,36.670667
575498,0.021417,0.166037,0.067971,-26.1474,-88.114669,36.402174
575598,0.007012,0.140583,0.070527,-26.126245,-88.024936,36.384526
575698,-0.007717,0.11673,0.067863,-26.244369,-87.948142,36.497829
575798,-0.008094,0.126114,0.06179,-26.206124,-87.868057,36.454487
575898,0.001108,0.186062,0.056818,-25.71304,-87.758324,35.961294
575998,0.021806,0.27858,0.063822,-24.801308,-87.598702,35.060974
576098,0.058318,0.372358,0.079839,-23.687374,-87.385686,33.979106
576198,0.087391,0.445064,0.108479,-22.703813,-87.127077,33.044249
576298,0.112968,0.48165,0.129483,-21.925733,-86.843844,32.329619
576398,0.10964,0.493207,0.145188,-21.371854,-86.550717,31.837455
576498,0.094954,0.500459,0.156447,-20.977472,-86.251163,31.496515
576598,0.092234,0.486672,0.160634,-20.710345,-85.958029,31.281436
576698,0.090745,0.41643,0.143117,-20.539284,-85.706062,31.161723
576798,0.053122,0.298146,0.096784,-20.389621,-85.526871,31.041779
576898,-0.00269,0.162874,0.024935,-20.134627,-85.434638,30.784032
576998,-0.028916,0.018706,-0.035463,-19.849278,-85.431787,30.480702
577098,-0.027854,-0.113868,-0.076776,-19.603404,-85.50833,30.217565
577198,-0.009541,-0.2139,-0.106812,-19.374041,-85.644572,29.981523
577298,0.006798,-0.248519,-0.130358,-19.034942,-85.803899,29.644854
577398,0.024883,-0.206985,-0.14214,-18.461102,-85.942661,29.083271
577498,0.036604,-0.158542,-0.140641,-17.72886,-86.054303,28.369702
577598,0.064301,-0.113567,-0.136593,-16.860194,-86.139944,27.53536
577698,0.125608,-0.036178,-0.120908,-15.864693,-86.179569,26.609139
577798,0.201497,0.086944,-0.089128,-14.798565,-86.145217,25.655685
577898,0.261253,0.203817,-0.058766,-13.730249,-86.040494,24.734244
577998,0.268883,0.259758,-0.023746,-12.88338,-85.898932,24.039009
578098,0.242113,0.262431,0.013923,-12.382952,-85.750597,23.675599
578198,0.182245,0.228676,0.047782,-12.245544,-85.616882,23.641751
578298,0.097341,0.16251,0.068131,-12.408703,-85.517726,23.86055
578398,0.012591,0.089033,0.067826,-12.725295,-85.459638,24.184556
578498,-0.043733,0.032202,0.04358,-12.988438,-85.436269,24.422576
578598,-0.063818,-0.004512,0.007545,-13.068993,-85.437999,24.465879
578698,-0.048609,-0.028921,-0.023038,-12.966042,-85.457306,24.333831
578798,-0.032035,-0.051498,-0.044559,-12.736554,-85.491939,24.084378
578898,-0.02538,-0.078488,-0.055516,-12.463827,-85.542946,23.795388
578998,-0.025878,-0.107235,-0.057717,-12.214105,-85.610209,23.529205
579098,-0.024186,-0.130965,-0.055635,-12.008256,-85.69043,23.308015
579198,-0.022089,-0.143074,-0.0467,-11.880188,-85.776329,23.166044
579298,-0.013303,-0.135145,-0.032125,-11.841568,-85.856046,23.118819
579398,0.008176,-0.118766,-0.009226,-11.942218,-85.923876,23.223559
579498,0.037742,-0.109205,0.010351,-12.169308,-85.983983,23.47202
579598,0.060962,-0.117217,0.023892,-12.514221,-86.046828,23.851893
579698,0.066912,-0.141604,0.02569,-12.928297,-86.1229,24.304462
579798,0.060714,-0.185939,0.026851,-13.462237,-86.223293,24.873543
579898,0.049775,-0.207937,0.031178,-14.117979,-86.334934,25.558326
579998,0.046427,-0.212391,0.039319,-14.900893,-86.447305,26.368522
580098,0.032479,-0.205502,0.0478,-15.803694,-86.553817,27.290728
580198,0.019248,-0.204168,0.054652,-16.832747,-86.657522,28.331717
580298,0.003985,-0.175046,0.059619,-17.893849,-86.743303,29.395957
580398,-0.00508,-0.131715,0.059721,-18.873408,-86.804392,30.373256
580498,-0.014178,-0.108357,0.047628,-19.694643,-86.854256,31.186728
580598,-0.010228,-0.087713,0.038053,-20.368591,-86.894287,31.854939
580698,-0.001098,-0.075977,0.026261,-20.892105,-86.930013,32.377725
580798,0.011199,-0.085086,0.016858,-21.362045,-86.972296,32.853909
580898,0.024331,-0.102054,0.005326,-21.789381,-87.025841,33.294956
580998,0.02949,-0.095296,-0.006221,-22.080933,-87.07811,33.602992
581098,0.020071,-0.067542,-0.016383,-22.161575,-87.117777,33.694448
581198,0.014264,-0.037498,-0.026697,-22.007679,-87.143708,33.547754
581298,-0.004938,-0.018232,-0.037188,-21.66663,-87.161586,33.202684
581398,-0.015456,0.030765,-0.044063,-21.048083,-87.154599,32.573756
581498,-0.024876,0.06396,-0.058258,-20.153418,-87.13225,31.662966
581598,-0.027834,0.067992,-0.06837,-19.151322,-87.108919,30.642896
581698,-0.01091,0.061624,-0.07038,-18.157052,-87.088517,29.640349
581798,0.038435,0.067821,-0.063208,-17.205118,-87.062618,28.708472
581898,0.095593,0.0775,-0.060939,-16.231676,-87.030233,27.787817
581998,0.150472,0.117908,-0.058177,-15.161266,-86.974278,26.801506
582098,0.151109,0.175653,-0.049754,-14.06551,-86.884109,25.790122
582198,0.082024,0.22542,-0.054155,-12.910693,-86.765733,24.67987
582298,-0.028797,0.289638,-0.06514,-11.666525,-86.611454,23.416418
582398,-0.140397,0.398701,-0.093383,-10.160017,-86.39713,21.825912
582498,-0.204859,0.55943,-0.128655,-8.36522,-86.092409,19.909115
582598,-0.233326,0.723217,-0.164533,-6.437502,-85.693306,17.841978
582698,-0.259017,0.834894,-0.208978,-4.496207,-85.228124,15.745339
582798,-0.264819,0.879642,-0.230968,-2.768118,-84.733072,13.857947
582898,-0.196869,0.871519,-0.205185,-1.462137,-84.237949,12.432225
582998,-0.054182,0.82689,-0.134543,-0.666238,-83.765245,11.600334
583098,0.048247,0.651595,-0.078292,-0.206116,-83.391843,11.164633
583198,-0.033481,0.343126,-0.044118,0.000678,-83.194918,10.936475
583298,-0.207356,0.03478,-0.043103,0.096141,-83.174644,10.719934
583398,-0.318092,-0.156465,-0.080833,0.313951,-83.263839,10.316221
583498,-0.314344,-0.247363,-0.144137,0.861038,-83.404448,9.583206
583598,-0.273676,-0.258504,-0.20133,1.750915,-83.549628,8.528829
583698,-0.241835,-0.241574,-0.233915,2.868095,-83.68224,7.264406
583798,-0.241038,-0.170506,-0.244687,4.066075,-83.770954,5.919465
583898,-0.286684,-0.020861,-0.233369,5.141321,-83.771775,4.671823
583998,-0.333544,0.15026,-0.203684,5.940139,-83.674428,3.675166
584098,-0.350825,0.296905,-0.155835,6.375532,-83.495319,3.033987
584198,-0.356174,0.360842,-0.105332,6.497685,-83.282716,2.704784
584298,-0.352607,0.308787,-0.050128,6.376948,-83.103314,2.622075
584398,-0.360488,0.177491,0.009708,6.042812,-83.002469,2.749711
584498,-0.382422,0.02464,0.060622,5.538707,-82.991611,3.035893
584598,-0.384778,-0.104866,0.088209,4.959802,-83.055779,3.396017
584698,-0.360199,-0.175369,0.083975,4.432851,-83.159594,3.717908
584798,-0.29701,-0.179849,0.053339,4.079177,-83.264372,3.901683
584898,-0.232539,-0.146773,0.017937,3.917061,-83.348735,3.929744
584998,-0.17895,-0.111332,-0.017839,3.948807,-83.41143,3.793554
585098,-0.135609,-0.088987,-0.0438,4.128741,-83.460277,3.533214
585198,-0.094816,-0.092238,-0.055914,4.397591,-83.510349,3.206935
585298,-0.076879,-0.105218,-0.053859,4.67643,-83.56775,2.880983
585398,-0.090428,-0.113801,-0.036735,4.869206,-83.630717,2.633858
585498,-0.1212,-0.122421,-0.009929,4.914081,-83.699857,2.517835
585598,-0.145772,-0.123787,0.018886,4.796531,-83.771187,2.551057
585698,-0.148895,-0.123647,0.046915,4.527,-83.843732,2.73534
585798,-0.14998,-0.133496,0.074701,4.106295,-83.922985,3.071005
585898,-0.143821,-0.142803,0.09642,3.564174,-84.00809,3.532258
585998,-0.146007,-0.142905,0.110118,2.930716,-84.093198,4.084013
586098,-0.144123,-0.145754,0.110221,2.281247,-84.179295,4.652868
586198,-0.138927,-0.153282,0.096199,1.697946,-84.268795,5.158126
586298,-0.111823,-0.168048,0.076243,1.230824,-84.365991,5.562162
586398,-0.065741,-0.17515,0.049311,0.935074,-84.466694,5.820484
586498,-0.005382,-0.15475,0.029542,0.781504,-84.555435,5.970689
586598,0.050417,-0.116324,0.017961,0.723096,-84.622042,6.05742
586698,0.094892,-0.086725,0.024334,0.647306,-84.671717,6.187213
586798,0.122446,-0.092926,0.039565,0.491314,-84.725003,6.413406
586898,0.140132,-0.137304,0.058574,0.223331,-84.803703,6.762216
586998,0.160253,-0.182173,0.078182,-0.169029,-84.90793,7.247436
587098,0.190182,-0.193305,0.101205,-0.714461,-85.018071,7.903464
587198,0.205398,-0.154321,0.123825,-1.423322,-85.104996,8.732194
587298,0.172205,-0.077869,0.143968,-2.294691,-85.146767,9.704873
587398,0.088364,-0.03268,0.156541,-3.29754,-85.160965,10.761272
587498,0.016194,-0.026234,0.162994,-4.387706,-85.169591,11.863807
587598,-0.00683,-0.004763,0.164691,-5.491967,-85.164088,12.967278
587698,0.023845,0.043234,0.151047,-6.447425,-85.130367,13.939115
587798,0.052631,0.10082,0.138309,-7.239854,-85.063499,14.76398
587898,0.05501,0.134317,0.121633,-7.870893,-84.977989,15.428327
587998,0.024904,0.127062,0.112642,-8.447035,-84.89672,16.020342
588098,-0.026575,0.100778,0.110397,-9.046101,-84.83,16.605838
588198,-0.06608,0.074414,0.105153,-9.647721,-84.778127,17.171233
588298,-0.078414,0.06799,0.105211,-10.252252,-84.729336,17.732509
588398,-0.057815,0.087007,0.102775,-10.797658,-84.669573,18.246318
588498,-0.0025,0.145407,0.106849,-11.254828,-84.576103,18.703412
588598,0.068025,0.206087,0.115512,-11.634078,-84.447253,19.122925
588698,0.126444,0.264702,0.126485,-11.953847,-84.283986,19.516436
588798,0.180721,0.324959,0.14229,-12.237772,-84.084843,19.90534
588898,0.232551,0.37314,0.171117,-12.564755,-83.854961,20.367602
588998,0.27818,0.455222,0.208248,-12.928467,-83.574202,20.893386
589098,0.328077,0.548804,0.237643,-13.261064,-83.23704,21.416985
589198,0.34197,0.601856,0.246359,-13.526778,-82.868832,21.88163
589298,0.292048,0.624539,0.236635,-13.719917,-82.489086,22.244646
589398,0.253751,0.578271,0.219787,-13.8863,-82.137261,22.558798
589498,0.220053,0.436351,0.176906,-14.023039,-81.870201,22.823686
589598,0.134089,0.228457,0.098669,-14.09805,-81.729559,22.976487
589698,0.032838,0.014083,-0.002519,-14.048123,-81.722199,22.944345
589798,-0.039169,-0.195117,-0.088931,-13.907059,-81.843145,22.778357
589898,-0.077136,-0.369805,-0.149514,-13.712126,-82.069533,22.536001
589998,-0.079047,-0.513924,-0.187065,-13.492927,-82.381139,22.26815
590098,-0.057221,-0.641749,-0.211107,-13.266499,-82.767056,22.005795
590198,0.019161,-0.748039,-0.230594,-12.990988,-83.214674,21.738288
590298,0.147644,-0.803912,-0.23486,-12.642798,-83.693869,21.471957
590398,0.296848,-0.721989,-0.22681,-12.102355,-84.125973,21.098482
590498,0.436226,-0.515362,-0.212605,-11.245472,-84.439968,20.487492
590598,0.523237,-0.289142,-0.188813,-10.143793,-84.622977,19.680918
590698,0.549267,-0.127998,-0.138815,-9.107785,-84.708697,18.955437
590798,0.539744,-0.035147,-0.073818,-8.366383,-84.735122,18.520377
590898,0.513998,0.016949,-0.003359,-8.023602,-84.725874,18.470798
590998,0.479031,0.057854,0.077599,-8.161399,-84.686892,18.883707
591098,0.428011,0.060035,0.154399,-8.786311,-84.639948,19.756494
591198,0.360515,0.044834,0.195871,-9.699599,-84.596715,20.880124
591298,0.28108,-0.003354,0.180998,-10.607597,-84.580513,21.952743
591398,0.19287,-0.088257,0.127811,-11.347043,-84.61644,22.805237
591498,0.133011,-0.174695,0.07813,-11.943839,-84.705695,23.479898
591598,0.118262,-0.220129,0.031809,-12.347614,-84.825441,23.952109
591698,0.135369,-0.248853,0.008079,-12.653126,-84.963934,24.335397
591798,0.149081,-0.270912,-0.003657,-12.926769,-85.11607,24.694489
591898,0.160338,-0.287084,-0.003573,-13.240491,-85.277058,25.100186
591998,0.165012,-0.275626,0.006263,-13.626029,-85.430139,25.580534
592098,0.170019,-0.240464,0.014605,-14.03518,-85.562239,26.087354
592198,0.184176,-0.196262,0.022942,-14.441406,-85.668325,26.599298
592298,0.203522,-0.169597,0.027352,-14.83934,-85.758712,27.113977
592398,0.215749,-0.165965,0.033894,-15.292286,-85.845826,27.69078
592498,0.221725,-0.175497,0.043297,-15.857775,-85.936376,28.383779
592598,0.213146,-0.202828,0.062095,-16.670308,-86.038341,29.319409
592698,0.193193,-0.239245,0.08476,-17.818524,-86.155254,30.579906
592798,0.165909,-0.256371,0.10199,-19.250336,-86.276378,32.108765
592898,0.145179,-0.254785,0.117269,-20.917297,-86.390872,33.861141
592998,0.123975,-0.205263,0.132349,-22.658264,-86.472424,35.675303
593098,0.102974,-0.138732,0.138511,-24.28666,-86.514241,37.36451
593198,0.068122,-0.091484,0.133024,-25.731708,-86.530061,38.84998
593298,0.039439,-0.065236,0.124439,-27.019989,-86.532436,40.161922
593398,0.028847,-0.054235,0.119364,-28.223996,-86.528846,41.383356
593498,0.046786,-0.030772,0.114714,-29.26826,-86.5133,42.455062
593598,0.071981,0.004916,0.098866,-29.992981,-86.483468,43.221108
593698,0.080053,-0.001233,0.088864,-30.650083,-86.459011,43.924046
593798,0.069042,-0.025376,0.07795,-31.334054,-86.44913,44.647579
593898,0.054585,-0.020233,0.078064,-31.998273,-86.436182,45.343014
593998,0.039707,-0.027689,0.065332,-32.604732,-86.430268,45.972024
594098,0.025637,-0.065444,0.038418,-33.200432,-86.450487,46.582151
594198,0.035952,-0.099024,0.014108,-33.783038,-86.494051,47.185041
594298,0.053441,-0.091459,-0.014413,-34.106814,-86.542848,47.538618
594398,0.103715,-0.041122,-0.037162,-33.959278,-86.575005,47.448863
594498,0.154202,0.060252,-0.050743,-33.134577,-86.563004,46.7097
594598,0.159045,0.233412,-0.063011,-31.355713,-86.469824,45.017351
594698,0.09205,0.426944,-0.075558,-28.763379,-86.280377,42.471195
594798,-0.032871,0.573429,-0.094933,-25.814066,-86.013827,39.494867
594898,-0.172994,0.644231,-0.127679,-22.87621,-85.708119,36.4485
594998,-0.237271,0.676193,-0.161054,-20.076764,-85.381759,33.502753
595098,-0.219201,0.70653,-0.151618,-17.650455,-85.027143,30.940406
595198,-0.139775,0.707992,-0.123415,-15.679818,-84.659185,28.87982
595298,-0.108029,0.606854,-0.136135,-14.022501,-84.343482,27.151048
595398,-0.159652,0.410455,-0.160073,-12.681321,-84.136265,25.709415
595498,-0.247921,0.204241,-0.160216,-11.708718,-84.04172,24.587006
595598,-0.323686,0.025153,-0.174855,-10.916154,-84.0477,23.601813
595698,-0.33785,-0.117219,-0.206451,-10.094832,-84.135763,22.579603
595798,-0.269459,-0.176321,-0.239417,-9.07403,-84.258666,21.39646
595898,-0.185075,-0.149528,-0.252374,-7.860606,-84.365122,20.068575
595998,-0.152223,-0.047778,-0.251556,-6.516864,-84.410707,18.628842
596098,-0.167776,0.077108,-0.230339,-5.218319,-84.3806,17.225601
596198,-0.183908,0.192484,-0.190738,-4.125403,-84.279901,16.019554
596298,-0.157099,0.248568,-0.156111,-3.234224,-84.143815,15.031462
596398,-0.126739,0.253558,-0.129974,-2.510129,-84.002738,14.228582
596498,-0.113663,0.209083,-0.09634,-2.001091,-83.885493,13.649289
596598,-0.115261,0.114808,-0.054559,-1.747445,-83.821058,13.325823
596698,-0.13181,-0.011154,-0.017657,-1.721787,-83.828045,13.222103
596798,-0.168424,-0.100028,-0.002461,-1.812038,-83.885673,13.213855
596898,-0.214624,-0.155173,-0.012766,-1.883478,-83.975075,13.160064
596998,-0.244151,-0.194411,-0.034765,-1.857744,-84.087364,12.991564
597098,-0.251254,-0.20547,-0.059399,-1.695177,-84.206396,12.681453
597198,-0.227647,-0.187752,-0.090507,-1.32739,-84.315605,12.17874
597298,-0.180016,-0.169258,-0.121718,-0.73051,-84.414116,11.473331
597398,-0.122624,-0.154857,-0.146221,0.068844,-84.503607,10.597641
597498,-0.076018,-0.144312,-0.151382,0.952827,-84.58578,9.663884
597598,-0.046964,-0.143347,-0.147234,1.855726,-84.666066,8.727967
597698,-0.03335,-0.158788,-0.128844,2.684428,-84.754276,7.874522
597798,-0.037846,-0.188039,-0.101624,3.377637,-84.858996,7.154669
597898,-0.055058,-0.232869,-0.076988,3.950551,-84.989528,6.54581
597998,-0.075589,-0.277984,-0.062929,4.472781,-85.145911,5.976144
598098,-0.090794,-0.316831,-0.056044,4.998388,-85.324348,5.394486
598198,-0.104744,-0.341496,-0.053072,5.555724,-85.516551,4.773128
598298,-0.119601,-0.339926,-0.056169,6.179363,-85.707156,4.07689
598398,-0.112481,-0.31339,-0.057219,6.851405,-85.881972,3.336373
598498,-0.086924,-0.27221,-0.055039,7.537989,-86.032878,2.596104
598598,-0.052006,-0.225126,-0.048759,8.190252,-86.15693,1.91041
598698,-0.011159,-0.18859,-0.041893,8.801797,-86.260334,1.289069
598798,0.026906,-0.165642,-0.033097,9.35863,-86.351122,0.744478
598898,0.0542,-0.157455,-0.02644,9.886023,-86.437585,0.245112
598998,0.055548,-0.157857,-0.018521,10.366913,-86.52479,-0.206844
599098,0.033224,-0.145267,-0.01263,10.780082,-86.605302,-0.603728
599198,0.000256,-0.117541,-0.010971,11.124805,-86.670236,-0.950938
599298,-0.026858,-0.080284,0.003756,11.249511,-86.715777,-1.093302
599398,-0.020716,-0.036698,0.03716,10.965514,-86.740507,-0.82276
599498,0.008839,0.016837,0.07782,10.192588,-86.739214,-0.045531
599598,0.026378,0.074233,0.114503,8.976322,-86.708222,1.18585
599698,0.020348,0.124821,0.142085,7.445546,-86.649115,2.728869
599798,-0.025041,0.162445,0.156779,5.766421,-86.567077,4.394563
599898,-0.090798,0.192069,0.168765,3.998608,-86.46578,6.111525
599998,-0.154976,0.225063,0.180081,2.179695,-86.342737,7.843052
600098,-0.186256,0.25533,0.182544,0.436659,-86.199073,9.480833
600198,-0.178886,0.280293,0.176434,-1.123192,-86.038117,10.939525
600298,-0.146606,0.305614,0.17273,-2.508103,-85.860244,12.241682
600398,-0.104151,0.341512,0.1806,-3.79955,-85.659481,13.474828
600498,-0.066038,0.402813,0.20753,-5.111767,-85.420474,14.751078
600598,-0.029981,0.48955,0.235709,-6.399678,-85.128207,16.024149
600698,0.014177,0.574031,0.257816,-7.58585,-84.784156,17.22109
600798,0.044269,0.599556,0.272233,-8.66881,-84.422451,18.332341
600898,0.035715,0.534319,0.267798,-9.659035,-84.096236,19.346091
600998,-0.026277,0.374074,0.233169,-10.554121,-83.862293,20.228931
601098,-0.097844,0.144178,0.182437,-11.40161,-83.761841,21.022877
601198,-0.117587,-0.105377,0.145448,-12.321831,-83.804394,21.878604
601298,-0.114781,-0.315232,0.119682,-13.37673,-83.965877,22.871191
601398,-0.121382,-0.489513,0.085031,-14.547841,-84.226992,23.976384
601498,-0.13036,-0.635052,0.046811,-15.848585,-84.571825,25.206049
601598,-0.101992,-0.696953,0.008274,-17.183806,-84.954096,26.485901
601698,-0.022481,-0.642671,-0.029224,-18.315421,-85.310687,27.6064
601798,0.110539,-0.508473,-0.06377,-18.975264,-85.599208,28.329581
601898,0.25186,-0.359611,-0.079502,-19.139659,-85.80963,28.63688
601998,0.352619,-0.20792,-0.07254,-18.917056,-85.936597,28.613992
602098,0.393316,-0.048964,-0.053044,-18.396794,-85.973688,28.316081
602198,0.390055,0.079247,-0.021967,-17.790162,-85.935215,27.92971
602298,0.340443,0.137236,0.024011,-17.431941,-85.856878,27.763857
602398,0.23989,0.148241,0.087998,-17.588003,-85.761479,28.055876
602498,0.113478,0.137669,0.153657,-18.302242,-85.660094,28.835036
602598,0.01918,0.142394,0.21773,-19.469662,-85.54332,30.014634
602698,-0.075814,0.133035,0.250609,-20.874336,-85.423084,31.377811
602798,-0.133609,0.093387,0.234715,-22.242043,-85.324765,32.670875
602898,-0.158146,0.036345,0.187234,-23.4246,-85.264835,33.764196
602998,-0.154106,0.000524,0.131583,-24.330266,-85.234959,34.582057
603098,-0.133934,-0.015622,0.082021,-24.952987,-85.224433,35.12761
603198,-0.101326,-0.024756,0.043415,-25.342358,-85.227642,35.457752
603298,-0.054741,-0.054454,0.023826,-25.672569,-85.250866,35.755313
603398,-0.009373,-0.094648,0.020664,-26.082595,-85.295438,36.159036
603498,0.022476,-0.124077,0.036216,-26.672618,-85.350863,36.761643
603598,0.027966,-0.140959,0.061799,-27.491196,-85.407615,37.596667
603698,0.026036,-0.137572,0.088253,-28.487618,-85.454465,38.608938
603798,0.013183,-0.119554,0.112733,-29.602192,-85.483983,39.732298
603898,0.008688,-0.109392,0.123323,-30.762141,-85.503646,40.898561
603998,0.011575,-0.057383,0.148204,-31.88374,-85.488607,42.028021
604098,0.014956,-0.026466,0.169124,-33.000611,-85.450454,43.154735
604198,0.019689,-0.016939,0.158005,-33.991922,-85.409629,44.15828
604298,0.035545,0.018451,0.146911,-34.749235,-85.354436,44.936259
604398,0.060031,0.070299,0.144016,-35.249454,-85.27517,45.470445
604498,0.080773,0.103212,0.144634,-35.593586,-85.180008,45.860006
604598,0.091601,0.093755,0.134661,-35.900559,-85.092393,46.218566
604698,0.09545,0.059143,0.12303,-36.266545,-85.024548,46.638626
604798,0.100437,0.020827,0.105811,-36.678176,-84.979972,47.10742
604898,0.110291,0.001598,0.087879,-37.05889,-84.95009,47.550885
604998,0.115691,0.021805,0.062706,-37.223634,-84.919497,47.780671
605098,0.124321,0.064933,0.03078,-37.051313,-84.880246,47.677038
605198,0.117521,0.089085,0.001111,-36.642388,-84.840065,47.331938
605298,0.11118,0.083807,-0.029912,-36.104755,-84.8126,46.853949
605398,0.122021,0.051109,-0.047555,-35.595845,-84.805844,46.411039
605498,0.149612,0.036134,-0.052704,-35.100138,-84.807435,45.997272
605598,0.17451,0.028135,-0.0445,-34.661159,-84.809788,45.654807
605698,0.176988,0.022128,-0.025362,-34.341481,-84.808554,45.433572
605798,0.17465,0.049094,-0.008328,-34.017,-84.788938,45.206179
605898,0.159442,0.085063,0.001789,-33.631162,-84.748841,44.908425
605998,0.135434,0.092582,0.00117,-33.235507,-84.705156,44.586989
606098,0.099874,0.074228,-0.001902,-32.911423,-84.671055,44.316961
606198,0.076574,0.038414,-0.006143,-32.700819,-84.655399,44.147495
606298,0.075967,0.003796,-0.01454,-32.562312,-84.658991,44.050096
606398,0.093161,-0.006123,-0.026532,-32.384301,-84.671039,43.922921
606498,0.107538,0.007692,-0.041272,-32.075274,-84.680842,43.672444
606598,0.104488,0.036847,-0.058042,-31.584689,-84.681353,43.237884
606698,0.071826,0.085393,-0.068265,-30.905222,-84.660702,42.594837
606798,0.012585,0.166766,-0.075145,-29.980096,-84.601006,41.670939
606898,-0.055577,0.276961,-0.082921,-28.755753,-84.486845,40.407123
606998,-0.106613,0.38687,-0.10065,-27.227673,-84.318971,38.808455
607098,-0.136842,0.448965,-0.123872,-25.540751,-84.120814,37.032233
607198,-0.144682,0.464581,-0.138982,-23.864176,-83.912975,35.261259
607298,-0.12431,0.450773,-0.140276,-22.31216,-83.707586,33.626642
607398,-0.092889,0.41461,-0.106697,-21.067013,-83.510106,32.318294
607498,-0.083315,0.332559,-0.05601,-20.263392,-83.343806,31.459434
607598,-0.064114,0.173921,-0.04818,-19.781741,-83.260288,30.935602
607698,-0.083741,-0.025152,-0.045031,-19.65816,-83.283223,30.76095
607798,-0.149827,-0.159675,-0.053599,-19.753647,-83.38038,30.768741
607898,-0.208975,-0.237356,-0.059444,-19.989981,-83.520539,30.884173
607998,-0.255701,-0.303051,-0.062113,-20.365711,-83.696493,31.112878
608098,-0.279326,-0.342585,-0.064376,-20.83591,-83.893921,31.422891
608198,-0.283839,-0.326448,-0.059763,-21.326107,-84.081488,31.750283
608298,-0.301555,-0.246545,-0.035873,-21.811094,-84.221154,32.062119
608398,-0.352641,-0.111663,0.005196,-22.270684,-84.280093,32.318939
608498,-0.421554,0.022747,0.048666,-22.710893,-84.258153,32.516568
608598,-0.453668,0.127354,0.080788,-23.103119,-84.173705,32.647472
608698,-0.429905,0.16682,0.096358,-23.466912,-84.064884,32.763477
608798,-0.364847,0.151441,0.088392,-23.779085,-83.965904,32.865061
608898,-0.300915,0.12482,0.07688,-24.049846,-83.883496,32.96184
608998,-0.240219,0.08207,0.061043,-24.297613,-83.827108,33.070479
609098,-0.186754,0.003305,0.036373,-24.565452,-83.817606,33.230128
609198,-0.134552,-0.06883,0.012873,-24.850033,-83.851198,33.436699
609298,-0.066161,-0.125621,-0.003202,-25.149222,-83.918062,33.697354
609398,0.017376,-0.183147,-0.010911,-25.503396,-84.016451,34.06139
609498,0.069608,-0.242369,-0.009635,-25.990104,-84.144804,34.588679
609598,0.065842,-0.277591,0.002901,-26.65595,-84.287511,35.29372
609698,0.006555,-0.274757,0.015455,-27.448902,-84.424587,36.092171
609798,-0.076019,-0.241471,0.027186,-28.296889,-84.540525,36.898197
609898,-0.152999,-0.191079,0.036923,-29.127149,-84.627315,37.641963
609998,-0.204406,-0.136906,0.029631,-29.807072,-84.688206,38.205048
610098,-0.225343,-0.101789,0.020189,-30.352114,-84.733837,38.620568
610198,-0.227073,-0.092145,0.009297,-30.816872,-84.777548,38.954433
610298,-0.219275,-0.101542,-0.004357,-31.240751,-84.829669,39.251708
610398,-0.197393,-0.118074,-0.021671,-31.620342,-84.894855,39.517076
610498,-0.159427,-0.128444,-0.039779,-31.922044,-84.970414,39.726057
610598,-0.111168,-0.114347,-0.064676,-32.014732,-85.046609,39.752956
610698,-0.058106,-0.099542,-0.08611,-31.90394,-85.122109,39.606135
610798,-0.017156,-0.092745,-0.092039,-31.706701,-85.196056,39.396121
610898,0.010674,-0.111093,-0.084344,-31.59898,-85.276589,39.291959
610998,0.026815,-0.148581,-0.061839,-31.75245,-85.368634,39.459156
611098,0.041506,-0.171138,-0.028392,-32.194885,-85.461422,39.924669
611198,0.045067,-0.165749,-0.001049,-32.801939,-85.542843,40.557302
611298,0.038031,-0.146145,0.016821,-33.466623,-85.608704,41.24363
611398,0.029208,-0.133021,0.026873,-34.163948,-85.664477,41.957567
611498,0.027523,-0.128949,0.026948,-34.863089,-85.717636,42.672304
611598,0.044339,-0.117138,0.02553,-35.508015,-85.765096,43.342291
611698,0.086015,-0.093093,0.038812,-36.116643,-85.796382,43.999792
611798,0.129888,-0.063645,0.060434,-36.70712,-85.806225,44.664284
611898,0.148996,-0.036768,0.086416,-37.323455,-85.794295,45.365683
611998,0.136765,-0.004954,0.112838,-37.952578,-85.758127,46.072901
612098,0.111446,0.023747,0.138544,-38.601289,-85.699345,46.78526
612198,0.094231,0.040341,0.166325,-39.323705,-85.62253,47.561708
612298,0.090734,0.054367,0.193246,-40.107009,-85.528909,48.397308
612398,0.097187,0.070698,0.209302,-40.863663,-85.421338,49.210005
612498,0.090298,0.088586,0.214633,-41.532971,-85.30325,49.931244
612598,0.058518,0.10877,0.218949,-42.115697,-85.174261,50.547466
612698,0.007029,0.137851,0.217572,-42.559508,-85.033032,50.994783
612798,-0.047142,0.185388,0.216173,-42.795645,-84.872096,51.202562
612898,-0.099159,0.246623,0.209014,-42.75778,-84.688162,51.105318
612998,-0.137884,0.29752,0.197809,-42.492296,-84.487097,50.757103
613098,-0.155154,0.328116,0.18127,-42.070351,-84.279243,50.241594
613198,-0.127035,0.360275,0.17188,-41.509023,-84.06081,49.601971
613298,-0.065118,0.395823,0.176345,-40.849918,-83.824679,48.899435
613398,0.012366,0.423904,0.198552,-40.191496,-83.567209,48.241932
613498,0.07718,0.442419,0.2204,-39.57192,-83.292778,47.660582
613598,0.099656,0.444412,0.24669,-39.076531,-83.007283,47.216956
613698,0.083377,0.410762,0.265911,-38.788968,-82.729513,46.973109
613798,0.009611,0.316628,0.237247,-38.720421,-82.504,46.907335
613898,-0.122941,0.188227,0.146513,-38.771105,-82.368414,46.885162
613998,-0.243528,0.066564,0.043662,-38.873376,-82.3241,46.845278
614098,-0.293271,-0.033095,-0.027023,-39.036201,-82.349677,46.837698
614198,-0.288285,-0.114967,-0.065902,-39.289276,-82.425708,46.924024
614298,-0.256643,-0.21525,-0.091911,-39.71894,-82.555489,47.206714
614398,-0.218629,-0.313216,-0.099294,-40.397155,-82.730597,47.761876
614498,-0.155764,-0.344651,-0.092449,-41.188184,-82.915852,48.466831
614598,-0.056559,-0.297532,-0.081834,-41.850289,-83.075725,49.098911
614698,0.050836,-0.193965,-0.073154,-42.175793,-83.187504,49.453772
614798,0.149287,-0.077061,-0.069373,-42.087087,-83.248062,49.448267
614898,0.238815,0.02043,-0.05894,-41.667169,-83.263031,49.160915
614998,0.304799,0.093739,-0.051314,-41.001657,-83.243252,48.664341
615098,0.333543,0.156743,-0.046922,-40.143157,-83.193641,47.98998
615198,0.318349,0.216454,-0.048858,-39.117604,-83.117085,47.138515
615298,0.266453,0.263822,-0.041077,-38.034076,-83.014678,46.198533
615398,0.172746,0.289718,-0.016608,-37.051335,-82.88994,45.305768
615498,0.059418,0.30095,-0.00329,-36.18408,-82.75374,44.463686
615598,-0.033656,0.288376,-0.004579,-35.428925,-82.622346,43.680594
615698,-0.093997,0.247101,-0.013931,-34.803998,-82.512194,42.993745
615798,-0.115155,0.194288,-0.024205,-34.301448,-82.429438,42.417953
615898,-0.097395,0.140396,-0.037334,-33.881988,-82.375867,41.936166
615998,-0.058361,0.09406,-0.048143,-33.516938,-82.347382,41.531802
616098,-0.011408,0.077968,-0.053192,-33.147333,-82.327843,41.149976
616198,0.046518,0.097446,-0.054745,-32.696329,-82.299052,40.719495
616298,0.092254,0.125091,-0.056741,-32.153221,-82.257003,40.222488
616398,0.106911,0.124632,-0.05034,-31.63125,-82.212619,39.755248
616498,0.08606,0.090198,-0.034143,-31.258967,-82.179731,39.427007
616598,0.059846,0.036308,-0.016179,-31.084149,-82.167719,39.282917
616698,0.040599,-0.00311,-0.001015,-31.059454,-82.170531,39.279236
616798,0.026428,-0.003865,0.005663,-31.068331,-82.171739,39.301248
616898,0.002261,0.003843,-0.008332,-31.024513,-82.173298,39.256095
616998,-0.032216,0.007526,-0.025873,-30.929809,-82.178213,39.139642
617098,-0.067189,-0.009225,-0.041957,-30.833182,-82.196066,39.001033
617198,-0.090794,-0.050348,-0.05373,-30.795328,-82.237586,38.908113
617298,-0.098853,-0.100242,-0.060352,-30.845395,-82.305597,38.899286
617398,-0.090225,-0.127749,-0.065501,-30.932424,-82.388645,38.93276
617498,-0.069315,-0.123136,-0.072722,-30.971611,-82.471544,38.93007
617598,-0.046323,-0.097432,-0.082748,-30.902394,-82.544758,38.831347
617698,-0.018506,-0.086564,-0.098629,-30.730572,-82.617252,38.645258
617798,0.019633,-0.062383,-0.107207,-30.445494,-82.680218,38.367057
617898,0.045152,-0.020731,-0.111875,-30.028876,-82.723686,37.971037
617998,0.052248,0.002992,-0.12434,-29.501613,-82.758479,37.467633
618098,0.064264,0.008062,-0.129398,-28.931367,-82.791532,36.927902
618198,0.07718,-0.002494,-0.130796,-28.365907,-82.829597,36.400523
618298,0.080523,-0.028069,-0.125688,-27.868205,-82.878584,35.943439
618398,0.077084,-0.040001,-0.120294,-27.413406,-82.931711,35.527683
618498,0.068151,-0.028642,-0.117362,-26.94538,-82.977856,35.093511
618598,0.053066,-0.003975,-0.116726,-26.431325,-83.010743,34.604317
618698,0.034376,0.028639,-0.124069,-25.825539,-83.028112,34.011964
618798,0.008534,0.065357,-0.140904,-25.086919,-83.029778,33.270902
618898,0.011669,0.097003,-0.152108,-24.237494,-83.01639,32.420021
618998,0.009582,0.117284,-0.169475,-23.280819,-82.994743,31.459861
619098,0.014235,0.092291,-0.189636,-22.284988,-82.988778,30.462919
619198,0.024475,0.029326,-0.205177,-21.324477,-83.017537,29.507509
619298,0.057109,-0.015403,-0.210939,-20.385451,-83.069484,28.59268
619398,0.097778,-0.016671,-0.205528,-19.435572,-83.119221,27.690511
619498,0.133456,0.030377,-0.204355,-18.386254,-83.141332,26.708867
619598,0.1425,0.090163,-0.195463,-17.281105,-83.127052,25.676247
619698,0.115345,0.130262,-0.190825,-16.164429,-83.087602,24.616324
619798,0.064501,0.187712,-0.195016,-15.000624,-83.014548,23.479488
619898,-0.01924,0.266051,-0.207799,-13.765185,-82.89695,22.221931
619998,-0.09961,0.382134,-0.222208,-12.440171,-82.713004,20.827282
620098,-0.160091,0.544748,-0.230184,-11.047334,-82.434652,19.328578
620198,-0.179014,0.666534,-0.232977,-9.672446,-82.083334,17.835952
620298,-0.152447,0.698204,-0.229455,-8.40073,-81.70923,16.461594
620398,-0.101508,0.624873,-0.20294,-7.349115,-81.370831,15.338007
620498,-0.05065,0.435415,-0.170743,-6.545541,-81.135347,14.494
620598,-0.035426,0.168512,-0.156572,-5.924818,-81.049451,13.843525
620698,-0.053943,-0.098761,-0.143162,-5.46629,-81.114253,13.346461
620798,-0.057816,-0.300167,-0.138016,-5.087599,-81.293148,12.928083
620898,-0.015108,-0.403882,-0.154823,-4.635434,-81.531615,12.460348
620998,0.063408,-0.428473,-0.17117,-4.053317,-81.784207,11.906997
621098,0.111989,-0.383693,-0.167367,-3.411482,-82.010183,11.321731
621198,0.070874,-0.268113,-0.133994,-2.873409,-82.168122,10.817672
621298,-0.058651,-0.073656,-0.082779,-2.569578,-82.212858,10.475221
621398,-0.19415,0.133978,-0.02085,-2.56228,-82.137032,10.353673
621498,-0.259999,0.282146,0.032744,-2.784901,-81.975008,10.426106
621598,-0.267936,0.32493,0.070546,-3.147407,-81.787342,10.635247
621698,-0.233463,0.30165,0.099842,-3.596694,-81.611809,10.95213
621798,-0.164766,0.241632,0.11344,-4.058996,-81.469719,11.322096
621898,-0.112793,0.137324,0.123122,-4.545315,-81.386375,11.746582
621998,-0.088602,0.011638,0.127605,-5.067292,-81.374032,12.221214
622098,-0.081959,-0.090741,0.101886,-5.524528,-81.420858,12.634203
622198,-0.065829,-0.139146,0.071074,-5.879079,-81.496598,12.952632
622298,-0.043312,-0.133147,0.049373,-6.14077,-81.569966,13.190154
622398,-0.015961,-0.087769,0.046893,-6.361849,-81.617494,13.402417
622498,0.00359,-0.056313,0.055293,-6.59263,-81.646448,13.635774
622598,0.010361,-0.052808,0.070816,-6.879798,-81.672209,13.930011
622698,0.003045,-0.056456,0.093645,-7.263642,-81.698183,14.317679
622798,-0.016185,-0.062965,0.111631,-7.734531,-81.72609,14.782134
622898,-0.042072,-0.067021,0.126881,-8.285341,-81.754483,15.312312
622998,-0.061661,-0.069186,0.137314,-8.893271,-81.782438,15.888815
623098,-0.063103,-0.068176,0.136868,-9.50357,-81.808984,16.46683
623198,-0.048455,-0.074661,0.125551,-10.069267,-81.839446,17.008216
623298,-0.028723,-0.07739,0.110084,-10.568745,-81.872317,17.49408
623398,-0.004691,-0.072202,0.092218,-10.983735,-81.90363,17.908461
623498,0.019304,-0.063311,0.077276,-11.321824,-81.931218,18.259016
623598,0.042298,-0.059727,0.060938,-11.581212,-81.958395,18.543353
623698,0.062084,-0.064707,0.04951,-11.789681,-81.989529,18.787683
623798,0.084703,-0.07438,0.036277,-11.942185,-82.027537,18.988555
623898,0.105407,-0.080569,0.031117,-12.06905,-82.069557,19.17549
623998,0.133408,-0.070757,0.037073,-12.19694,-82.105303,19.379633
624098,0.163231,-0.046401,0.050419,-12.341598,-82.125715,19.617938
624198,0.183947,-0.019807,0.06703,-12.518629,-82.129101,19.900896
624298,0.184615,-0.002258,0.081874,-12.739345,-82.120677,20.22834
624398,0.180898,0.00297,0.085533,-12.971441,-82.108685,20.565127
624498,0.17652,-0.00554,0.092953,-13.243024,-82.100271,20.939248
624598,0.165053,-0.008455,0.09979,-13.550679,-82.092311,21.343153
624698,0.15212,-0.003526,0.10168,-13.86765,-82.081045,21.74898
624798,0.138708,-0.013044,0.104142,-14.21068,-82.074405,22.173355
624898,0.133025,-0.026014,0.115863,-14.616399,-82.072904,22.657733
624998,0.146163,-0.022203,0.133017,-15.078403,-82.066264,23.206544
625098,0.167048,-0.005724,0.146795,-15.563823,-82.047801,23.791099
625198,0.192129,0.002587,0.150287,-16.036649,-82.023529,24.377489
625298,0.215983,0.001067,0.148105,-16.485799,-81.999781,24.953819
625398,0.22442,0.015232,0.145667,-16.900748,-81.968048,25.500546
625498,0.216899,0.048502,0.146512,-17.279301,-81.917412,26.006234
625598,0.196565,0.092508,0.14852,-17.618002,-81.841926,26.459983
625698,0.168298,0.135097,0.147188,-17.908479,-81.743077,26.848738
625798,0.146781,0.169138,0.136694,-18.122807,-81.627293,27.148163
625898,0.150326,0.200583,0.125219,-18.248321,-81.496312,27.359929
625998,0.188118,0.218801,0.112542,-18.280127,-81.357647,27.498882
626098,0.26946,0.235336,0.101973,-18.206455,-81.211881,27.578314
626198,0.37248,0.253974,0.089299,-18.009034,-81.058242,27.592272
626298,0.474707,0.303041,0.086544,-17.693401,-80.878326,27.545864
626398,0.539865,0.41325,0.101087,-17.280747,-80.635623,27.438984
626498,0.589363,0.570396,0.15072,-16.858045,-80.29837,27.350622
626598,0.642749,0.685429,0.204451,-16.48219,-79.889048,27.340797
626698,0.629956,0.712413,0.235894,-16.19804,-79.459823,27.416731
626798,0.56022,0.664718,0.274203,-16.109422,-79.050801,27.651099
626898,0.500372,0.475242,0.286165,-16.234484,-78.744148,28.068508
626998,0.446054,0.141013,0.221152,-16.468925,-78.631527,28.565935
627098,0.333092,-0.242868,0.096757,-16.738487,-78.749666,29.033067
627198,0.23789,-0.535843,-0.020625,-16.994374,-79.047575,29.430251
627298,0.156927,-0.695402,-0.094322,-17.24573,-79.444967,29.77507
627398,0.054955,-0.764242,-0.139209,-17.5094,-79.887404,30.072502
627498,-0.011359,-0.788137,-0.155604,-17.809679,-80.34548,30.368089
627598,0.01072,-0.79684,-0.136482,-18.200518,-80.804605,30.767904
627698,0.123724,-0.771694,-0.115676,-18.609951,-81.245829,31.251619
627798,0.26142,-0.603561,-0.094234,-18.851566,-81.591435,31.644955
627898,0.354562,-0.347833,-0.07085,-18.820153,-81.793923,31.816091
627998,0.368208,-0.133658,-0.039974,-18.623466,-81.874558,31.828159
628098,0.357251,0.000788,-0.018038,-18.343274,-81.878156,31.749575
628198,0.34523,0.055995,0.000807,-18.072638,-81.848284,31.673699
628298,0.32716,0.057828,0.012637,-17.856215,-81.815283,31.642113
628398,0.277505,0.025252,0.008834,-17.694235,-81.800717,31.636745
628498,0.184214,-0.040333,-0.017154,-17.566384,-81.826482,31.611802
628598,0.047744,-0.116781,-0.048193,-17.489862,-81.899377,31.55967
628698,-0.077107,-0.179833,-0.083475,-17.423823,-82.012797,31.445849
628798,-0.181051,-0.199946,-0.118276,-17.302172,-82.143147,31.215752
628898,-0.259004,-0.181805,-0.140568,-17.107187,-82.267261,30.866609
628998,-0.305668,-0.147805,-0.148144,-16.857127,-82.373828,30.435008
629098,-0.325451,-0.109636,-0.147001,-16.566644,-82.458987,29.951293
629198,-0.322759,-0.07447,-0.145482,-16.229426,-82.524219,29.422088
629298,-0.306141,-0.040825,-0.137538,-15.868457,-82.569244,28.878613
629398,-0.285853,-0.019915,-0.129328,-15.500796,-82.601012,28.340174
629498,-0.266612,-0.022755,-0.113587,-15.188857,-82.63155,27.869092
629598,-0.257021,-0.046112,-0.094057,-14.978893,-82.671821,27.506422
629698,-0.262287,-0.085654,-0.075174,-14.895918,-82.731077,27.268789
629798,-0.26867,-0.131545,-0.055959,-14.951475,-82.812898,27.167161
629898,-0.269623,-0.174997,-0.042098,-15.120439,-82.916728,27.179313
629998,-0.269125,-0.204168,-0.03478,-15.360855,-83.035576,27.263756
630098,-0.277387,-0.21175,-0.034117,-15.624445,-83.15846,27.366772
630198,-0.297824,-0.205721,-0.033334,-15.902247,-83.277835,27.472307
630298,-0.304007,-0.189382,-0.02569,-16.204469,-83.386932,27.598865
630398,-0.288713,-0.179374,-0.017708,-16.529305,-83.489151,27.757012
630498,-0.263712,-0.16987,-0.005196,-16.894488,-83.583976,27.970186
630598,-0.229953,-0.14489,0.002215,-17.247333,-83.663713,28.190404
630698,-0.193647,-0.096995,0.007419,-17.537315,-83.716228,28.368309
630798,-0.168186,-0.068548,-0.001497,-17.726712,-83.754669,28.459711
630898,-0.126122,-0.048637,0.001588,-17.87703,-83.781673,28.536065
630998,-0.08345,-0.026672,-0.007195,-17.924063,-83.798229,28.533138
631098,-0.051503,-0.010547,-0.022895,-17.847791,-83.80875,28.424618
631198,-0.03237,-0.003976,-0.045171,-17.63741,-83.819541,28.192255
631298,0.01187,0.01714,-0.053787,-17.324,-83.820158,27.881781
631398,0.009813,0.053859,-0.063866,-16.904209,-83.802151,27.463131
631498,0.027125,0.114592,-0.057237,-16.420113,-83.74936,26.989759
631598,0.023173,0.12946,-0.054696,-15.937843,-83.687552,26.515908
631698,0.009222,0.090299,-0.058457,-15.50796,-83.647514,26.08669
631798,0.011421,0.037911,-0.058702,-15.151064,-83.636138,25.73217
631898,0.048185,0.022442,-0.055309,-14.811551,-83.632581,25.416349
631998,0.10688,0.05947,-0.050469,-14.415489,-83.607567,25.077478
632098,0.161986,0.133138,-0.042111,-13.94145,-83.540167,24.691907
632198,0.209685,0.196948,-0.040688,-13.381817,-83.436656,24.247654
632298,0.220698,0.258603,-0.042914,-12.753877,-83.298497,23.740905
632398,0.192375,0.340316,-0.045364,-12.071538,-83.114246,23.162881
632498,0.131237,0.449236,-0.04687,-11.350492,-82.86823,22.51031
632598,0.094598,0.552455,-0.054738,-10.577657,-82.563986,21.783967
632698,0.106379,0.607352,-0.058815,-9.800709,-82.227979,21.059738
632798,0.155931,0.608872,-0.057926,-9.060733,-81.889794,20.400902
632898,0.20534,0.528815,-0.065674,-8.364644,-81.596518,19.814486
632998,0.179415,0.348854,-0.076288,-7.778809,-81.405273,19.324154
633098,0.120957,0.130834,-0.06659,-7.3896,-81.336524,18.998651
633198,0.088334,-0.054827,-0.068111,-7.104953,-81.373137,18.759981
633298,0.109095,-0.195743,-0.094043,-6.771778,-81.491507,18.4843
633398,0.119832,-0.299905,-0.119779,-6.369578,-81.67059,18.145148
633498,0.079099,-0.339688,-0.13524,-5.929665,-81.872916,17.74445
633598,0.003493,-0.300426,-0.123661,-5.543983,-82.051776,17.354929
633698,-0.098842,-0.188927,-0.087813,-5.306567,-82.164795,17.055998
633798,-0.220576,-0.062854,-0.042893,-5.272161,-82.203419,16.891589
633898,-0.287547,0.021412,-0.006788,-5.393562,-82.19207,16.845674
633998,-0.281331,0.02999,0.017025,-5.606701,-82.174547,16.89591
634098,-0.21575,-0.041216,0.035615,-5.888701,-82.19653,17.053555
634198,-0.118221,-0.142228,0.068275,-6.298338,-82.273954,17.396389
634298,-0.018508,-0.242689,0.091392,-6.806882,-82.406685,17.896592
634398,0.042449,-0.334213,0.103989,-7.404469,-82.589918,18.521665
634498,0.068747,-0.393169,0.095662,-8.017734,-82.806399,19.177466
634598,0.081176,-0.418861,0.063777,-8.533368,-83.039248,19.741747
634698,0.091642,-0.406951,0.021423,-8.868076,-83.268502,20.129564
634798,0.093724,-0.385957,-0.016066,-9.024335,-83.489013,20.338753
634898,0.08866,-0.374272,-0.029987,-9.115259,-83.704118,20.479178
634998,0.073121,-0.375658,-0.02728,-9.238964,-83.919729,20.643553
635098,0.038994,-0.374592,-0.020299,-9.430554,-84.134038,20.856443
635198,0.000218,-0.35933,-0.013142,-9.686034,-84.338955,21.11112
635298,-0.039657,-0.334664,-0.014127,-9.95252,-84.529924,21.353797
635398,-0.068523,-0.318878,-0.015992,-10.225493,-84.712063,21.586288
635498,-0.083435,-0.323143,-0.008361,-10.578267,-84.895695,21.890256
635598,-0.086031,-0.342835,-0.000454,-11.0337,-85.089364,22.295692
635698,-0.083934,-0.357923,-1.6e-05,-11.547116,-85.291157,22.760405
635798,-0.069063,-0.375861,-0.007686,-12.068235,-85.503549,23.241253
635898,-0.059334,-0.375131,-0.018168,-12.553771,-85.716467,23.691858
635998,-0.049359,-0.359594,-0.033768,-12.931957,-85.922406,24.040422
636098,-0.040762,-0.335123,-0.050705,-13.156943,-86.116741,24.240252
636198,-0.032548,-0.299774,-0.062858,-13.222485,-86.292908,24.284944
636298,-0.018482,-0.252184,-0.069686,-13.123192,-86.443417,24.172522
636398,0.001043,-0.195396,-0.065347,-12.921547,-86.561646,23.968772
636498,0.02534,-0.144806,-0.055608,-12.675425,-86.650321,23.734429
636598,0.052545,-0.104143,-0.040832,-12.457203,-86.714353,23.543665
636698,0.083475,-0.071404,-0.021029,-12.338507,-86.757594,23.470349
636798,0.103378,-0.047224,-0.000646,-12.356633,-86.784798,23.5455
636898,0.104369,-0.031941,0.013544,-12.483412,-86.801696,23.730042
636998,0.077028,-0.018553,0.017827,-12.640355,-86.810546,23.929096
637098,0.03429,-0.012228,0.0189,-12.819073,-86.815693,24.125425
637198,-0.004562,-0.02244,0.020646,-13.061973,-86.826278,24.363723
637298,-0.013265,-0.037881,0.024272,-13.385023,-86.844934,24.677283
637398,0.000422,-0.040725,0.023034,-13.698399,-86.865243,24.98899
637498,0.006066,-0.01565,0.021254,-13.930774,-86.871761,25.222801
637598,-0.007437,0.046975,0.024328,-14.043515,-86.842993,25.329046
637698,-0.038518,0.116117,0.031932,-14.074925,-86.774727,25.335993
637798,-0.079657,0.181262,0.04012,-14.050671,-86.669111,25.263562
637898,-0.120106,0.247314,0.046711,-13.961482,-86.525855,25.102839
637998,-0.136207,0.322209,0.050773,-13.765838,-86.340355,24.826163
638098,-0.101809,0.402957,0.054792,-13.447269,-86.109267,24.445965
638198,-0.022404,0.483774,0.06287,-13.041254,-85.831887,24.023593
638298,0.075067,0.567154,0.076887,-12.599346,-85.505925,23.621076
638398,0.171771,0.647432,0.106268,-12.239985,-85.131212,23.356804
638498,0.238776,0.732291,0.147341,-12.027913,-84.703907,23.278818
638598,0.249285,0.797989,0.190799,-11.996178,-84.234582,23.388035
638698,0.202477,0.868143,0.223976,-12.077216,-83.721971,23.5838
638798,0.159354,0.970989,0.242578,-12.144126,-83.149484,23.740686
638898,0.152582,0.989177,0.246952,-12.199337,-82.566269,23.882053
638998,0.173005,0.8344,0.231425,-12.302,-82.071592,24.083256
639098,0.151034,0.549028,0.177815,-12.435122,-81.743171,24.302665
639198,0.089344,0.214181,0.089616,-12.539164,-81.612948,24.457044
639298,0.026129,-0.098802,0.015209,-12.660053,-81.667006,24.591818
639398,-0.016791,-0.322783,-0.026031,-12.844958,-81.851405,24.766358
639498,-0.069231,-0.470637,-0.052296,-13.100843,-82.121644,24.98212
639598,-0.107312,-0.559709,-0.068137,-13.418025,-82.443486,25.237567
639698,-0.078851,-0.580499,-0.071561,-13.75124,-82.777165,25.525446
639798,0.020335,-0.537195,-0.061135,-14.054395,-83.085108,25.840127
639898,0.184022,-0.399433,-0.054748,-14.153821,-83.315461,26.043945
639998,0.337425,-0.150608,-0.046161,-13.911892,-83.406332,25.992561
640098,0.395062,0.142201,-0.038121,-13.329917,-83.333019,25.632123
640198,0.37731,0.361903,-0.026466,-12.589442,-83.135056,25.101757
640298,0.337381,0.459654,0.000848,-11.936508,-82.878295,24.636299
640398,0.277845,0.460213,0.043775,-11.541571,-82.615713,24.396269
640498,0.210029,0.403142,0.10237,-11.500453,-82.378357,24.473776
640598,0.141,0.290386,0.142474,-11.75589,-82.199636,24.810648
640698,0.05116,0.144706,0.132145,-12.133029,-82.103563,25.218495
640798,-0.048183,0.007675,0.077444,-12.459854,-82.090544,25.518113
640898,-0.109993,-0.08515,0.017352,-12.663186,-82.136738,25.657285
640998,-0.139722,-0.112079,-0.029679,-12.718801,-82.203862,25.630139
641098,-0.160494,-0.114456,-0.056092,-12.680016,-82.275643,25.495715
641198,-0.165793,-0.118474,-0.064322,-12.612132,-82.350683,25.328894
641298,-0.149581,-0.131593,-0.066588,-12.535282,-82.433313,25.162434
641398,-0.120246,-0.147796,-0.060911,-12.478251,-82.524273,25.032961
641498,-0.094876,-0.163703,-0.051215,-12.461302,-82.62292,24.958603
641598,-0.079605,-0.176287,-0.046893,-12.46541,-82.72807,24.914327
641698,-0.072103,-0.185733,-0.033459,-12.533694,-82.83684,24.9391
641798,-0.078887,-0.205054,-0.019005,-12.692254,-82.954596,25.050941
641898,-0.107465,-0.233641,-0.008724,-12.949316,-83.086962,25.245512
641998,-0.127728,-0.230548,0.004626,-13.286105,-83.215738,25.508651
642098,-0.153004,-0.222144,0.007817,-13.654621,-83.339208,25.789098
642198,-0.16528,-0.228214,0.005379,-14.037982,-83.466167,26.077349
642298,-0.158048,-0.252556,0.002937,-14.449276,-83.606753,26.397816
642398,-0.140988,-0.282544,0.006103,-14.923389,-83.763214,26.791244
642498,-0.124849,-0.285934,0.019092,-15.482615,-83.919198,27.279488
642598,-0.100346,-0.264338,0.0384,-16.124488,-84.059701,27.864847
642698,-0.064306,-0.235719,0.053318,-16.809033,-84.181331,28.513757
642798,-0.023415,-0.226363,0.055487,-17.494015,-84.296663,29.186549
642898,0.008777,-0.246031,0.055281,-18.223164,-84.42191,29.922149
642998,0.018474,-0.253314,0.049679,-18.962628,-84.551194,30.673561
643098,0.007695,-0.241472,0.045211,-19.693988,-84.67398,31.410497
643198,-0.019591,-0.230679,0.034008,-20.385958,-84.792282,32.092047
643298,-0.052238,-0.22542,0.026261,-21.069982,-84.908572,32.746728
643398,-0.069668,-0.225164,0.011818,-21.70633,-85.027054,33.343417
643498,-0.068181,-0.210427,-0.007006,-22.216692,-85.141202,33.814418
643598,-0.039549,-0.178136,-0.02261,-22.5491,-85.241341,34.123242
643698,-0.000576,-0.152511,-0.036514,-22.712971,-85.330876,34.285341
643798,0.045425,-0.150067,-0.0446,-22.796528,-85.420878,34.393307
643898,0.100376,-0.199024,-0.049705,-22.95737,-85.537839,34.610394
643998,0.161439,-0.288873,-0.054278,-23.330118,-85.703084,35.075082
644098,0.226359,-0.368103,-0.062106,-23.896892,-85.911424,35.771527
644198,0.28732,-0.392734,-0.067804,-24.538482,-86.133424,36.577824
644298,0.313615,-0.358588,-0.082422,-25.003331,-86.340613,37.221923
644398,0.288633,-0.268192,-0.102389,-25.013612,-86.505514,37.39612
644498,0.204561,-0.128735,-0.119554,-24.360707,-86.601972,36.857672
644598,0.073319,7.9e-05,-0.130313,-23.147813,-86.63281,35.682984
644698,-0.076262,0.13203,-0.142581,-21.414357,-86.594543,33.900973
644798,-0.186845,0.283202,-0.150669,-19.239206,-86.473064,31.612832
644898,-0.231192,0.430598,-0.139724,-16.950359,-86.264033,29.184894
644998,-0.213823,0.492012,-0.154061,-14.661237,-86.017395,26.766005
645098,-0.099406,0.520194,-0.177169,-12.364752,-85.751833,24.404685
645198,0.039768,0.490803,-0.173261,-10.333962,-85.496152,22.389008
645298,0.156053,0.359456,-0.193724,-8.451902,-85.311557,20.588786
645398,0.18028,0.193696,-0.168839,-6.999766,-85.21507,19.23355
645498,0.078154,0.010992,-0.164809,-5.81323,-85.219828,18.086052
645598,-0.061693,-0.194563,-0.122527,-5.119022,-85.337967,17.352265
645698,-0.127511,-0.328347,-0.100218,-4.664039,-85.53079,16.820775
645798,-0.084576,-0.362401,-0.124449,-3.972114,-85.743692,16.076422
645898,-0.003741,-0.30568,-0.159032,-2.85428,-85.924415,14.951588
645998,0.006619,-0.196808,-0.183709,-1.396867,-86.041443,13.492421
646098,-0.089005,-0.048745,-0.182929,0.083742,-86.070966,11.955146
646198,-0.185515,0.107701,-0.149691,1.222307,-86.008644,10.705225
646298,-0.203937,0.228965,-0.11545,2.001443,-85.875988,9.804877
646398,-0.197023,0.269975,-0.088625,2.511595,-85.719757,9.17803
646498,-0.185432,0.232045,-0.051847,2.730496,-85.585921,8.849821
646598,-0.176979,0.179895,-0.022481,2.745027,-85.482693,8.731437
646698,-0.217259,0.146196,0.019987,2.443302,-85.399887,8.907182
646798,-0.262176,0.121479,0.053925,1.893114,-85.331873,9.306429
646898,-0.269637,0.0865,0.079927,1.177809,-85.283947,9.867106
646998,-0.239287,0.023316,0.068267,0.577744,-85.271597,10.329625
647098,-0.171768,-0.027038,0.028243,0.297743,-85.287632,10.509797
647198,-0.102595,-0.029669,-0.01691,0.37096,-85.304996,10.375302
647298,-0.038074,-0.009238,-0.056971,0.760601,-85.310382,9.960389
647398,0.004994,0.016503,-0.075254,1.299611,-85.300557,9.42034
647498,0.01959,0.031736,-0.078145,1.861385,-85.281535,8.865806
647598,0.002519,0.025444,-0.077231,2.404428,-85.265697,8.32022
647698,-0.032547,0.014205,-0.058867,2.801111,-85.256399,7.901313
647798,-0.076761,0.011951,-0.026881,2.951581,-85.249144,7.704032
647898,-0.134325,0.005868,0.013527,2.792833,-85.246533,7.783938
647998,-0.19226,-0.028782,0.046368,2.385231,-85.264573,8.080245
648098,-0.23099,-0.085139,0.068636,1.811007,-85.315141,8.52146
648198,-0.229302,-0.152857,0.077776,1.172476,-85.404248,9.02812
648298,-0.194005,-0.219471,0.071917,0.579764,-85.531022,9.509022
648398,-0.132513,-0.26805,0.059594,0.0853,-85.685224,9.926626
648498,-0.047337,-0.278882,0.047072,-0.294997,-85.845395,10.27859
648598,0.042352,-0.254427,0.03976,-0.590092,-85.991431,10.59658
648698,0.120953,-0.227998,0.034166,-0.811665,-86.122261,10.885954
648798,0.176369,-0.213783,0.034882,-1.022673,-86.244863,11.196507
648898,0.210179,-0.210312,0.040968,-1.285705,-86.365319,11.57855
648998,0.227617,-0.199821,0.047587,-1.619469,-86.479538,12.04141
649098,0.233192,-0.171258,0.054274,-2.030877,-86.577084,12.585191
649198,0.225733,-0.141198,0.067575,-2.591801,-86.656828,13.274403
649298,0.204037,-0.120638,0.084506,-3.353217,-86.723828,14.151922
649398,0.171788,-0.09262,0.103603,-4.339863,-86.773294,15.236457
649498,0.139395,-0.059381,0.120676,-5.519097,-86.801771,16.495226
649598,0.105392,-0.034949,0.127404,-6.778249,-86.814409,17.814469
649698,0.088081,-0.024538,0.12617,-8.029129,-86.81961,19.115448
649798,0.10413,-0.021209,0.119183,-9.197548,-86.821997,20.343015
649898,0.132629,-0.016393,0.117854,-10.328389,-86.820424,21.549279
649998,0.16096,0.017581,0.12466,-11.440312,-86.797685,22.752861
650098,0.174156,0.069748,0.135047,-12.515571,-86.743189,23.927341
650198,0.174788,0.111775,0.148158,-13.581109,-86.662305,25.092535
650298,0.149718,0.13503,0.160959,-14.669738,-86.565455,26.266584
650398,0.102898,0.156058,0.174537,-15.790387,-86.45361,27.44597
650498,0.079508,0.200654,0.189946,-16.869446,-86.313397,28.570415
650598,0.085373,0.270714,0.197546,-17.742951,-86.132369,29.492417
650698,0.120745,0.328776,0.197476,-18.367208,-85.918943,30.185082
650798,0.174417,0.383035,0.19763,-18.763471,-85.675595,30.680154
650898,0.232186,0.444837,0.201239,-18.959886,-85.397878,31.008127
650998,0.293393,0.511838,0.207969,-18.988039,-85.082548,31.202578
651098,0.358258,0.577157,0.224077,-18.928672,-84.728819,31.346586
651198,0.439281,0.637461,0.250882,-18.852357,-84.337433,31.520312
651298,0.500146,0.695952,0.296376,-18.865471,-83.905911,31.819157
651398,0.528488,0.717465,0.332078,-18.975944,-83.456061,32.232572
651498,0.526769,0.703081,0.35577,-19.180392,-83.009442,32.740017
651598,0.510285,0.622493,0.359071,-19.483817,-82.605518,33.338158
651698,0.495353,0.462308,0.318936,-19.81992,-82.295373,33.961068
651798,0.438635,0.239816,0.210281,-20.047994,-82.125925,34.442408
651898,0.338323,-0.002937,0.06317,-20.097939,-82.115917,34.68591
651998,0.254193,-0.261644,-0.047572,-20.135536,-82.266915,34.868177
652098,0.209924,-0.465258,-0.106826,-20.268463,-82.539102,35.120888
652198,0.170441,-0.577938,-0.134251,-20.502084,-82.877182,35.452107
652298,0.151811,-0.573599,-0.15099,-20.692056,-83.216153,35.728361
652398,0.135203,-0.468793,-0.149188,-20.736424,-83.498518,35.848301
652498,0.112994,-0.323601,-0.129342,-20.629703,-83.699045,35.803397
652598,0.139426,-0.189033,-0.102965,-20.383573,-83.822042,35.63357
652698,0.200137,-0.103874,-0.086305,-20.020636,-83.895851,35.381341
652798,0.253979,-0.037698,-0.086492,-19.498098,-83.933802,34.999704
652898,0.267257,-0.010914,-0.094715,-18.872984,-83.958404,34.522624
652998,0.263237,-0.033165,-0.095441,-18.280112,-83.994688,34.075692
653098,0.252412,-0.065983,-0.089187,-17.774933,-84.047298,33.710732
653198,0.227772,-0.093536,-0.073467,-17.405191,-84.111948,33.46776
653298,0.181649,-0.123114,-0.058527,-17.184596,-84.190113,33.348142
653398,0.09946,-0.157303,-0.057488,-17.069791,-84.286797,33.287493
653498,-0.00745,-0.222649,-0.073112,-17.03822,-84.421901,33.248899
653598,-0.078171,-0.314883,-0.098546,-17.062213,-84.611809,33.225403
653698,-0.118229,-0.335046,-0.101511,-17.129084,-84.813263,33.221921
653798,-0.153849,-0.304109,-0.082739,-17.276936,-84.994606,33.279262
653898,-0.178239,-0.281326,-0.063682,-17.523749,-85.160209,33.421907
653998,-0.191954,-0.255675,-0.036094,-17.921243,-85.306931,33.707862
654098,-0.189035,-0.236325,-0.010267,-18.471628,-85.438298,34.148849
654198,-0.187489,-0.241272,0.008847,-19.196002,-85.568408,34.76519
654298,-0.18899,-0.262612,0.01984,-20.096062,-85.707219,35.556771
654398,-0.191187,-0.276097,0.030749,-21.172311,-85.849999,36.523628
654498,-0.200808,-0.276518,0.036971,-22.374943,-85.990237,37.611507
654598,-0.207472,-0.272261,0.03903,-23.66547,-86.126049,38.783491
654698,-0.20182,-0.262361,0.036644,-24.985945,-86.255383,39.988563
654798,-0.194662,-0.243171,0.035355,-26.304473,-86.373243,41.195641
654898,-0.190667,-0.223474,0.041664,-27.671732,-86.47755,42.453714
654998,-0.180845,-0.211313,0.054178,-29.160741,-86.570325,43.839304
655098,-0.165992,-0.195704,0.069865,-30.774168,-86.648547,45.357977
655198,-0.154816,-0.173267,0.080461,-32.42401,-86.710041,46.919478
655298,-0.155398,-0.132443,0.082023,-33.916258,-86.748954,48.322761
655398,-0.159558,-0.08506,0.083735,-35.181104,-86.763003,49.495892
655498,-0.144677,-0.042231,0.087761,-36.223397,-86.754431,50.454685
655598,-0.130845,0.00036,0.089409,-37.007435,-86.724841,51.162788
655698,-0.109575,0.04191,0.091512,-37.531489,-86.675113,51.622737
655798,-0.080941,0.031952,0.096084,-38.119435,-86.628026,52.163176
655898,-0.083394,0.011011,0.081149,-38.706969,-86.595332,52.701852
655998,-0.065907,0.029997,0.068066,-39.062857,-86.55861,53.018564
656098,-0.047784,0.070302,0.052852,-39.050687,-86.509387,52.977002
656198,-0.043356,0.090029,0.039888,-38.828729,-86.456032,52.727831
656298,-0.049736,0.083246,0.029461,-38.581684,-86.409378,52.449879
656398,-0.050575,0.068997,0.012541,-38.301739,-86.375064,52.138491
656498,-0.029218,0.067562,-0.006306,-37.889794,-86.347937,51.707106
656598,0.02019,0.103804,-0.029467,-37.096516,-86.312119,50.92198
656698,0.092239,0.16113,-0.045337,-35.868533,-86.25441,49.742592
656798,0.175422,0.224022,-0.057267,-34.240183,-86.169229,48.20967
656898,0.23041,0.292973,-0.055098,-32.356715,-86.047269,46.452475
656998,0.233768,0.35421,-0.055922,-30.327293,-85.891573,44.550638
657098,0.167549,0.40973,-0.055765,-28.279404,-85.703424,42.591852
657198,0.04689,0.446559,-0.066084,-26.282608,-85.494272,40.614466
657298,-0.087546,0.467607,-0.078415,-24.400951,-85.272225,38.67471
657398,-0.169377,0.518319,-0.076285,-22.622446,-85.018171,36.790713
657498,-0.219112,0.595313,-0.059663,-20.976116,-84.714969,35.009945
657598,-0.248302,0.615314,-0.048684,-19.554556,-84.3947,33.437183
657698,-0.325831,0.474713,-0.124493,-18.181767,-84.161188,31.867951
657798,-0.451069,0.226797,-0.215758,-16.90778,-84.075361,30.325366
657898,-0.512261,-0.019422,-0.251664,-15.884594,-84.127556,28.999547
657998,-0.510468,-0.184564,-0.273166,-14.960073,-84.271933,27.774103
658098,-0.49566,-0.243799,-0.276223,-14.037643,-84.447601,26.559577
658198,-0.45495,-0.226155,-0.263528,-13.073317,-84.609749,25.326702
658298,-0.406026,-0.142294,-0.24601,-12.011968,-84.720706,24.024789
658398,-0.385989,-0.032025,-0.217515,-10.934992,-84.764212,22.718869
658498,-0.390024,0.065032,-0.159797,-10.093207,-84.744991,21.646845
658598,-0.366137,0.12246,-0.106497,-9.513079,-84.686931,20.851289
658698,-0.309739,0.125658,-0.067478,-9.147542,-84.622837,20.30366
658798,-0.244796,0.090708,-0.02826,-9.021575,-84.574751,20.034024
658898,-0.195586,0.019895,0.012483,-9.178767,-84.563046,20.077164
658998,-0.185015,-0.0723,0.037367,-9.568503,-84.601122,20.359999
659098,-0.206234,-0.146684,0.038081,-10.05839,-84.680921,20.731199
659198,-0.225958,-0.197817,0.019261,-10.515074,-84.791187,21.057653
659298,-0.241689,-0.240081,-0.004829,-10.896812,-84.92759,21.299742
659398,-0.247284,-0.267917,-0.021157,-11.22845,-85.081303,21.488258
659498,-0.239231,-0.291987,-0.028275,-11.557114,-85.249242,21.678358
659598,-0.223956,-0.313609,-0.026932,-11.936976,-85.429049,21.928539
659698,-0.198719,-0.325274,-0.021936,-12.382768,-85.614635,22.259269
659798,-0.17122,-0.317735,-0.02038,-12.845476,-85.795599,22.62266
659898,-0.147097,-0.292706,-0.021523,-13.275383,-85.962521,22.966928
659998,-0.139365,-0.272251,-0.027099,-13.647451,-86.118609,23.257585
660098,-0.150167,-0.267007,-0.024794,-14.062071,-86.271322,23.584636
660198,-0.163349,-0.277653,-0.020004,-14.583045,-86.429082,24.010636
660298,-0.1762,-0.305755,-0.015705,-15.265948,-86.601472,24.591416
660398,-0.185527,-0.332656,-0.011645,-16.137101,-86.787576,25.355295
660498,-0.179731,-0.34137,-0.011458,-17.134753,-86.977689,26.249036
660598,-0.154758,-0.340593,-0.010315,-18.253892,-87.16625,27.278577
660698,-0.138434,-0.343759,-0.011065,-19.520197,-87.355531,28.464629
660798,-0.132778,-0.341016,-0.009567,-20.976878,-87.541642,29.844291
660898,-0.118056,-0.322599,-0.006768,-22.591104,-87.715646,31.389872
660998,-0.08322,-0.279848,-0.003116,-24.222803,-87.864455,32.972725
661098,-0.038187,-0.231541,-0.007781,-25.652347,-87.987603,34.378956
661198,0.001608,-0.204866,-0.011494,-26.974508,-88.096732,35.700445
661298,0.020832,-0.173803,-0.010468,-28.193305,-88.18878,36.929451
661398,0.014762,-0.144466,-0.002062,-29.41073,-88.262907,38.153543
661498,-0.001308,-0.116177,0.014622,-30.743212,-88.317352,39.48348
661598,-0.007166,-0.095501,0.02787,-32.17133,-88.356757,40.90569
661698,-0.011647,-0.079254,0.042292,-33.731801,-88.382766,42.457701
661798,-0.003112,-0.075572,0.0623,-35.627876,-88.399173,44.350315
661898,0.018876,-0.052917,0.076367,-37.493833,-88.398596,46.22539
661998,0.045568,-0.01029,0.082593,-38.892318,-88.375122,47.64811
662098,0.060271,0.019712,0.078396,-39.794925,-88.339076,48.583195
662198,0.068629,0.042654,0.070545,-40.250854,-88.295538,49.076219
662298,0.076766,0.081698,0.064992,-40.126043,-88.236917,48.992911
662398,0.076862,0.144836,0.066995,-39.314606,-88.149713,48.222679
662498,0.077776,0.22884,0.072746,-37.778785,-88.022321,46.728127
662598,0.084261,0.324088,0.079734,-35.646502,-87.847232,44.640289
662698,0.101704,0.419296,0.08495,-33.151652,-87.622524,42.199312
662798,0.123372,0.500429,0.092018,-30.629623,-87.352187,39.743101
662898,0.155022,0.564807,0.097889,-28.26963,-87.043733,37.466688
662998,0.187852,0.606588,0.111281,-26.266632,-86.706486,35.56597
663098,0.200831,0.621995,0.12264,-24.655465,-86.355386,34.064593
663198,0.186731,0.627573,0.126436,-23.336563,-85.998285,32.847442
663298,0.152065,0.612194,0.119786,-22.242371,-85.649164,31.835151
663398,0.107919,0.529953,0.104284,-21.438355,-85.345929,31.088098
663498,0.035788,0.375394,0.068385,-20.91236,-85.132058,30.578244
663598,-0.049949,0.207848,0.006804,-20.483781,-85.020131,30.116695
663698,-0.110893,0.040936,-0.054415,-20.107947,-85.009807,29.672961
663798,-0.137381,-0.072165,-0.085452,-19.808175,-85.066247,29.290327
663898,-0.145057,-0.16283,-0.100041,-19.61659,-85.174274,29.011895
663998,-0.117887,-0.25634,-0.10601,-19.576633,-85.333877,28.901287
664098,-0.047248,-0.312954,-0.118281,-19.543703,-85.526395,28.838377
664198,0.060914,-0.308547,-0.139195,-19.280974,-85.720497,28.607197
664298,0.17232,-0.231959,-0.159138,-18.581745,-85.876641,28.002437
664398,0.245322,-0.109277,-0.172322,-17.381068,-85.967499,26.93703
664498,0.283908,0.037242,-0.171945,-15.776761,-85.975947,25.489267
664598,0.289907,0.185493,-0.160394,-13.961841,-85.89755,23.833788
664698,0.26457,0.30347,-0.131857,-12.249075,-85.746027,22.265981
664798,0.214746,0.347233,-0.081988,-10.979848,-85.561276,21.11405
664898,0.156875,0.329777,-0.015584,-10.325215,-85.377889,20.54511
664998,0.100589,0.315848,0.05138,-10.21498,-85.195226,20.489922
665098,0.04405,0.308601,0.084806,-10.367098,-85.013234,20.665521
665198,-0.036674,0.266123,0.069268,-10.505354,-84.856759,20.780817
665298,-0.10919,0.208418,0.038248,-10.553774,-84.736026,20.764208
665398,-0.149395,0.124118,0.002732,-10.504986,-84.666503,20.626835
665498,-0.149509,0.04643,-0.029783,-10.349032,-84.644107,20.381746
665598,-0.122343,-0.000663,-0.0613,-10.040087,-84.65137,19.998622
665698,-0.074157,-0.02505,-0.086655,-9.574143,-84.67463,19.485552
665798,-0.016028,-0.030473,-0.110131,-8.932585,-84.702653,18.829583
665898,0.036624,-0.024113,-0.129525,-8.129126,-84.727948,18.041352
665998,0.067093,-0.022306,-0.140658,-7.230351,-84.751986,17.174974
666098,0.083092,-0.036073,-0.137958,-6.340872,-84.782428,16.327187
666198,0.083111,-0.055957,-0.12555,-5.531493,-84.822316,15.559908
666298,0.075749,-0.081008,-0.096029,-4.915421,-84.874087,14.982566
666398,0.054882,-0.112844,-0.059069,-4.553378,-84.941842,14.648343
666498,0.023456,-0.113367,-0.020239,-4.454347,-85.008026,14.56014
666598,0.031671,-0.088903,0.023057,-4.621888,-85.058276,14.744288
666698,0.039542,-0.049098,0.062556,-5.02858,-85.083812,15.173032
666798,0.045005,-0.044516,0.084537,-5.580045,-85.105258,15.750257
666898,0.039536,-0.070096,0.095018,-6.228332,-85.140143,16.421533
666998,0.033247,-0.089506,0.105277,-6.974886,-85.184699,17.187816
667098,0.025651,-0.075637,0.112811,-7.778189,-85.219937,18.006675
667198,0.013625,-0.062738,0.116297,-8.610775,-85.246589,18.847996
667298,0.008117,-0.065864,0.112538,-9.43366,-85.274331,19.676404
667398,0.010554,-0.06233,0.104182,-10.203033,-85.299934,20.452499
667498,0.026674,-0.038014,0.093431,-10.865348,-85.312162,21.13043
667598,0.04098,-0.019307,0.076198,-11.378649,-85.315203,21.667069
667698,0.052343,-0.009225,0.057692,-11.744959,-85.314369,22.062769
667798,0.046055,-0.001096,0.039382,-11.977762,-85.310959,22.320918
667898,0.021011,0.0171,0.02097,-12.072329,-85.299485,22.425993
667998,-0.011351,0.050426,0.002873,-12.013724,-85.271495,22.358802
668098,-0.040799,0.07102,-0.011995,-11.843456,-85.233706,22.16266
668198,-0.039534,0.054461,-0.024598,-11.613953,-85.206616,21.907831
668298,-0.027308,0.008379,-0.037792,-11.353973,-85.206814,21.629484
668398,0.011138,0.001317,-0.043122,-11.045538,-85.211455,21.32467
668498,0.079566,0.068547,-0.033703,-10.675342,-85.177092,20.997282
668598,0.14506,0.162076,-0.01585,-10.27832,-85.087984,20.680681
668698,0.169462,0.260206,-0.002213,-9.85773,-84.94195,20.354477
668798,0.153962,0.351392,0.006744,-9.428133,-84.743333,20.010277
668898,0.09384,0.426273,0.006719,-8.990018,-84.502128,19.62282
668998,0.025697,0.494404,-0.01144,-8.465183,-84.223613,19.108802
669098,0.003808,0.54772,-0.033532,-7.842819,-83.916159,18.483813
669198,0.040593,0.585929,-0.055772,-7.122708,-83.587925,17.781271
669298,0.102274,0.535222,-0.100358,-6.249376,-83.290497,16.959603
669398,0.126647,0.360176,-0.157163,-5.245721,-83.094635,16.020317
669498,0.112198,0.160342,-0.185534,-4.242281,-83.012321,15.072622
669598,0.065784,-0.000864,-0.2001,-3.263598,-83.020763,14.122995
669698,0.03299,-0.111838,-0.207124,-2.289546,-83.090948,13.159169
669798,-0.006721,-0.183463,-0.209011,-1.317524,-83.200202,12.174622
669898,-0.032981,-0.193279,-0.206691,-0.34057,-83.313046,11.170128
669998,-0.064923,-0.132372,-0.191289,0.572006,-83.389048,10.212143
670098,-0.13359,-0.025156,-0.165428,1.324528,-83.402251,9.375682
670198,-0.21537,0.072947,-0.128976,1.836305,-83.358783,8.73432
670298,-0.253851,0.128747,-0.095361,2.143852,-83.283508,8.276257
670398,-0.223234,0.115656,-0.059775,2.291901,-83.216313,7.996385
670498,-0.144922,0.05079,-0.024835,2.326669,-83.187017,7.875771
670598,-0.078373,-0.010622,0.010746,2.240574,-83.193707,7.915318
670698,-0.042148,-0.05409,0.035936,2.061641,-83.225826,8.069309
670798,-0.009352,-0.08913,0.051816,1.828394,-83.278263,8.296955
670898,0.024758,-0.121984,0.059559,1.57758,-83.349542,8.561976
670998,0.05748,-0.154352,0.052207,1.380337,-83.439136,8.791928
671098,0.08148,-0.166932,0.028476,1.312272,-83.535556,8.905678
671198,0.094963,-0.168502,0.012861,1.329559,-83.632663,8.941298
671298,0.083874,-0.17027,0.018225,1.312419,-83.730854,9.005152
671398,0.049932,-0.173337,0.031343,1.205272,-83.830956,9.139951
671498,0.007077,-0.179488,0.045528,0.993591,-83.934697,9.355127
671598,-0.030732,-0.17623,0.048208,0.737786,-84.036498,9.592807
671698,-0.063028,-0.15988,0.039913,0.500296,-84.12877,9.793385
671798,-0.088761,-0.143651,0.029329,0.300412,-84.211621,9.941277
671898,-0.107952,-0.133631,0.021892,0.12694,-84.288665,10.051527
671998,-0.110871,-0.119327,0.015113,-0.012723,-84.357478,10.126095
672098,-0.102885,-0.097645,0.011271,-0.127632,-84.413856,10.180369
672198,-0.08111,-0.09812,0.005484,-0.197463,-84.470507,10.201873
672298,-0.066318,-0.116095,-0.002468,-0.212506,-84.537474,10.176836
672398,-0.061889,-0.15962,-0.010179,-0.178813,-84.629394,10.105385
672498,-0.050025,-0.20081,-0.010934,-0.132245,-84.744911,10.027832
672598,-0.019504,-0.222002,-0.004071,-0.10913,-84.872558,9.99139
672698,0.035573,-0.223166,0.005818,-0.117277,-85.000857,10.018005
672798,0.100548,-0.207666,0.010407,-0.119165,-85.120267,10.075684
672898,0.156139,-0.177448,0.014807,-0.119935,-85.222354,10.164181
672998,0.184201,-0.136723,0.023003,-0.16272,-85.301087,10.310948
673098,0.18742,-0.107868,0.028976,-0.248116,-85.363257,10.502292
673198,0.182274,-0.096005,0.029593,-0.34404,-85.418598,10.701213
673298,0.179946,-0.092347,0.030746,-0.452982,-85.471806,10.911823
673398,0.174107,-0.088952,0.033445,-0.588521,-85.523015,11.145722
673498,0.159223,-0.062223,0.038121,-0.768662,-85.558824,11.415768
673598,0.13439,-0.016813,0.044777,-1.010002,-85.568479,11.732896
673698,0.114811,0.025585,0.055492,-1.335612,-85.553596,12.123282
673798,0.105455,0.057665,0.072711,-1.783071,-85.519863,12.630512
673898,0.11263,0.070012,0.091758,-2.353632,-85.478311,13.265372
673998,0.12945,0.078995,0.108184,-3.017862,-85.430636,14.003905
674098,0.151133,0.092263,0.120591,-3.736761,-85.374243,14.8098
674198,0.158431,0.122274,0.133186,-4.504157,-85.29934,15.668618
674298,0.137625,0.163789,0.146247,-5.32026,-85.199132,16.564442
674398,0.096464,0.214292,0.157125,-6.160355,-85.06844,17.460803
674498,0.049663,0.258692,0.157388,-6.948718,-84.911386,18.278471
674598,0.029875,0.297944,0.151433,-7.630555,-84.731546,18.977962
674698,0.062581,0.339743,0.144866,-8.173379,-84.527832,19.556816
674798,0.114306,0.39203,0.133543,-8.537264,-84.294987,19.985837
674898,0.156821,0.462819,0.145945,-8.853294,-84.020719,20.391418
674998,0.204766,0.566542,0.169978,-9.148052,-83.685371,20.803468
675098,0.241692,0.705725,0.202536,-9.431445,-83.26808,21.225699
675198,0.266499,0.831446,0.222288,-9.651731,-82.777663,21.599093
675298,0.250574,0.877697,0.224859,-9.820191,-82.260727,21.911441
675398,0.221343,0.830856,0.20824,-9.942257,-81.771772,22.16039
675498,0.17706,0.727152,0.168355,-9.988896,-81.345257,22.307686
675598,0.100815,0.560521,0.100667,-9.933316,-81.019509,22.307414
675698,-0.024402,0.32795,0.024171,-9.825152,-80.832586,22.181159
675798,-0.149898,0.058977,-0.030353,-9.763809,-80.802839,22.029386
675898,-0.17262,-0.193549,-0.066777,-9.739365,-80.919226,21.901759
675998,-0.150506,-0.392828,-0.089657,-9.740143,-81.150375,21.81251
676098,-0.099005,-0.554152,-0.107796,-9.743949,-81.474392,21.756221
676198,-0.019041,-0.66208,-0.120547,-9.721429,-81.860593,21.7197
676298,0.104017,-0.680055,-0.144361,-9.53759,-82.259218,21.591579
676398,0.256091,-0.614549,-0.16107,-9.127653,-82.62226,21.323478
676498,0.401328,-0.46088,-0.164938,-8.472962,-82.898283,20.892845
676598,0.50292,-0.232983,-0.153807,-7.620854,-83.043382,20.32226
676698,0.535719,-0.010103,-0.138537,-6.665687,-83.05956,19.666991
676798,0.517259,0.121967,-0.115982,-5.7594,-82.997826,19.050371
676898,0.452948,0.142169,-0.066883,-5.12081,-82.920902,18.666329
676998,0.353244,0.105514,-0.004707,-4.847213,-82.86144,18.592513
677098,0.241231,0.061652,0.058361,-4.942813,-82.823929,18.826083
677198,0.149008,0.024153,0.098728,-5.287077,-82.805654,19.256983
677298,0.059243,-0.00235,0.085343,-5.632167,-82.802917,19.63681
677398,-0.061272,-0.022934,0.043619,-5.86721,-82.814082,19.83605
677498,-0.155929,-0.059761,3.2e-05,-5.977157,-82.848746,19.85449
677598,-0.212337,-0.079687,-0.025708,-6.01209,-82.896305,19.764731
677698,-0.236292,-0.112321,-0.036817,-6.024933,-82.963133,19.638877
677798,-0.236902,-0.164961,-0.048924,-6.006109,-83.06068,19.480785
677898,-0.211141,-0.22054,-0.062585,-5.932141,-83.190693,19.282061
677998,-0.161863,-0.246386,-0.077068,-5.766459,-83.336228,19.019484
678098,-0.11464,-0.221905,-0.086042,-5.507388,-83.468189,18.690221
678198,-0.079062,-0.184736,-0.08943,-5.181336,-83.578927,18.314164
678298,-0.053959,-0.140742,-0.085592,-4.829215,-83.664105,17.926446
678398,-0.037115,-0.119346,-0.087336,-4.439617,-83.736862,17.510816
678498,-0.036352,-0.137176,-0.087281,-4.047092,-83.819488,17.092768
678598,-0.048279,-0.168635,-0.091659,-3.637751,-83.919945,16.651035
678698,-0.071955,-0.207435,-0.090427,-3.246524,-84.042216,16.213994
678798,-0.106933,-0.233494,-0.080851,-2.919226,-84.178807,15.82121
678898,-0.133047,-0.233693,-0.062414,-2.695882,-84.314793,15.517999
678998,-0.148607,-0.209046,-0.043381,-2.574419,-84.436071,15.308308
679098,-0.155791,-0.163104,-0.027832,-2.531217,-84.530615,15.173186
679198,-0.151923,-0.106595,-0.018183,-2.526501,-84.592554,15.079013
679298,-0.141677,-0.058749,-0.011585,-2.542364,-84.626928,15.011459
679398,-0.116472,-0.043696,-0.009635,-2.551347,-84.652629,14.951543
679498,-0.079133,-0.04867,-0.014811,-2.508213,-84.681296,14.860811
679598,-0.03526,-0.057496,-0.01767,-2.423811,-84.71507,14.753918
679698,-0.003479,-0.059207,-0.019027,-2.311925,-84.74983,14.637743
679798,0.007169,-0.055434,-0.024073,-2.159875,-84.782513,14.487387
679898,0.005509,-0.043489,-0.0272,-1.984548,-84.808374,14.312727
679998,0.004932,-0.018667,-0.032368,-1.770234,-84.820057,14.098612
680098,0.019532,-0.007885,-0.033201,-1.539495,-84.825497,13.876432
680198,0.034278,0.002914,-0.039144,-1.260725,-84.824738,13.614538
680298,0.033269,0.017406,-0.051058,-0.90586,-84.815669,13.275686
680398,0.008162,0.007675,-0.058072,-0.522995,-84.812026,12.894304
680498,0.007063,-0.039494,-0.062117,-0.116453,-84.835181,12.488552
680598,0.034521,-0.06852,-0.06423,0.323918,-84.874693,12.064676
680698,0.100861,-0.027804,-0.062941,0.797252,-84.890579,11.645921
680798,0.196774,0.075972,-0.062661,1.311844,-84.846695,11.240957
680898,0.291757,0.196188,-0.062951,1.851169,-84.733619,10.865818
680998,0.334801,0.275023,-0.062935,2.376334,-84.575085,10.529658
681098,0.253152,0.27976,-0.047579,2.739614,-84.413982,10.30911
681198,0.097442,0.244531,-0.039124,2.960695,-84.273154,10.141785
681298,-0.051864,0.29799,-0.041563,3.0854,-84.101595,9.985284
681398,-0.117682,0.483543,-0.057646,3.19522,-83.823326,9.805702
681498,-0.099837,0.675318,-0.09704,3.442963,-83.433986,9.497426
681598,-0.06193,0.791498,-0.113543,3.72252,-82.977465,9.178622
681698,-0.000941,0.785612,-0.11523,4.008635,-82.524074,8.888058
681798,0.044359,0.638416,-0.09065,4.23069,-82.15568,8.68804
681898,0.042021,0.336986,-0.104217,4.581648,-81.958789,8.356409
681998,-0.076959,-0.022746,-0.069335,4.831904,-81.968748,8.057592
682098,-0.102902,-0.315902,-0.035455,5.036048,-82.14758,7.790411
682198,-0.034734,-0.483333,-0.044391,5.395661,-82.421315,7.405874
682298,0.058099,-0.564005,-0.093476,6.093674,-82.737748,6.733912
682398,0.094797,-0.562742,-0.140975,7.096386,-83.04902,5.776458
682498,0.032696,-0.458317,-0.150426,8.12767,-83.298111,4.754874
682598,-0.09139,-0.254386,-0.115588,8.832009,-83.432696,3.991197
682698,-0.190391,-0.000957,-0.032682,8.893281,-83.430527,3.817799
682798,-0.226649,0.192652,0.0413,8.427644,-83.325145,4.153881
682898,-0.224653,0.263378,0.089597,7.698968,-83.183128,4.756046
682998,-0.178042,0.254817,0.124865,6.864398,-83.047596,5.491955
683098,-0.135382,0.194315,0.167912,5.91572,-82.947916,6.367672
683198,-0.131729,0.097025,0.199321,4.889887,-82.903617,7.323437
683298,-0.163726,-0.036436,0.190934,3.93889,-82.933181,8.185386
683398,-0.176787,-0.165718,0.161048,3.14484,-83.034011,8.881569
683498,-0.152182,-0.225214,0.127857,2.513643,-83.166892,9.427738
683598,-0.088181,-0.228301,0.095726,2.053377,-83.300178,9.83853
683698,-0.025575,-0.225296,0.067942,1.74952,-83.430887,10.127818
683798,0.009131,-0.229877,0.050114,1.544904,-83.563775,10.337113
683898,0.009148,-0.239309,0.047197,1.347937,-83.701937,10.538612
683998,-0.018433,-0.25245,0.053324,1.094973,-83.84761,10.780436
684098,-0.061256,-0.245494,0.069411,0.717209,-83.989295,11.12298
684198,-0.10587,-0.208664,0.07975,0.237719,-84.109651,11.541979
684298,-0.151702,-0.158035,0.088763,-0.33658,-84.200588,12.029782
684398,-0.184422,-0.119994,0.092623,-0.965255,-84.26918,12.553322
684498,-0.211113,-0.115779,0.094777,-1.634977,-84.334732,13.102689
684598,-0.228431,-0.137056,0.096774,-2.345485,-84.411768,13.68301
684698,-0.221551,-0.15768,0.09215,-3.048945,-84.500025,14.26014
684798,-0.192572,-0.165363,0.087024,-3.728489,-84.592171,14.829841
684898,-0.150357,-0.153541,0.082994,-4.374941,-84.67709,15.390507
684998,-0.103749,-0.13657,0.080516,-4.989322,-84.751849,15.945695
685098,-0.057022,-0.118679,0.074418,-5.54421,-84.816194,16.467942
685198,-0.013387,-0.095943,0.073355,-6.065257,-84.867189,16.981241
685298,0.025058,-0.064315,0.07278,-6.54751,-84.8998,17.477649
685398,0.054072,-0.029063,0.069275,-6.969125,-84.912236,17.929828
685498,0.079644,-0.004612,0.063821,-7.323083,-84.910884,18.328769
685598,0.098102,0.026753,0.068415,-7.668474,-84.891154,18.729716
685698,0.116858,0.069665,0.071193,-7.979594,-84.846641,19.10705
685798,0.136536,0.100894,0.086997,-8.343356,-84.782931,19.548584
685898,0.145852,0.119924,0.106744,-8.794893,-84.70647,20.083662
685998,0.147701,0.117596,0.118594,-9.304857,-84.629847,20.678537
686098,0.152513,0.103318,0.129846,-9.877857,-84.559694,21.339557
686198,0.168804,0.092067,0.142475,-10.511759,-84.49395,22.071196
686298,0.184945,0.09616,0.154886,-11.187042,-84.423766,22.853775
686398,0.197032,0.121143,0.168924,-11.886815,-84.337039,23.66802
686498,0.184381,0.154946,0.177545,-12.576609,-84.229369,24.465089
686598,0.153473,0.19489,0.181916,-13.229226,-84.097901,25.207156
686698,0.128078,0.227964,0.184234,-13.83495,-83.946869,25.88763
686798,0.104378,0.250728,0.180212,-14.372301,-83.783045,26.485861
686898,0.089368,0.273878,0.177079,-14.842937,-83.606276,27.008483
686998,0.089617,0.301108,0.175625,-15.243966,-83.41422,27.461341
687098,0.108899,0.331099,0.173083,-15.55915,-83.205661,27.83903
687198,0.151227,0.374907,0.166558,-15.744824,-82.973745,28.110824
687298,0.223754,0.418607,0.162526,-15.803701,-82.718284,28.296817
687398,0.301615,0.465412,0.165568,-15.767652,-82.43653,28.432176
687498,0.395544,0.51193,0.179264,-15.677304,-82.127004,28.567157
687598,0.47928,0.566556,0.20545,-15.579651,-81.783318,28.743357
687698,0.541938,0.609573,0.230761,-15.492261,-81.412038,28.966428
687798,0.563503,0.620242,0.241427,-15.414066,-81.033288,29.211575
687898,0.550266,0.575657,0.25165,-15.412518,-80.677644,29.52696
687998,0.505736,0.441255,0.245415,-15.526366,-80.397139,29.933761
688098,0.427078,0.233125,0.194664,-15.695931,-80.239175,30.351587
688198,0.330016,0.015751,0.089354,-15.774159,-80.217333,30.620341
688298,0.227213,-0.204989,-0.022706,-15.75247,-80.334659,30.72785
688398,0.139165,-0.427817,-0.107355,-15.711134,-80.588056,30.764163
688498,0.05447,-0.574344,-0.162281,-15.671752,-80.930808,30.753227
688598,-0.005432,-0.613413,-0.197678,-15.577338,-81.300585,30.651855
688698,-0.060519,-0.549812,-0.222819,-15.345969,-81.639037,30.380197
688798,-0.073689,-0.440988,-0.228346,-14.965497,-81.917914,29.950531
688898,-0.017765,-0.31482,-0.216733,-14.439237,-82.124681,29.406339
688998,0.085338,-0.16606,-0.21023,-13.701245,-82.247018,28.708349
689098,0.182285,-0.047518,-0.206754,-12.786433,-82.3014,27.888185
689198,0.251537,0.008898,-0.210771,-11.753665,-82.322804,26.989157
689298,0.319607,0.022179,-0.215409,-10.646832,-82.33501,26.054823
689398,0.354324,0.031012,-0.200183,-9.574863,-82.338332,25.17578
689498,0.348433,0.028525,-0.166615,-8.648676,-82.337975,24.440441
689598,0.310048,-0.02532,-0.118593,-7.979361,-82.362811,23.942119
689698,0.233173,-0.128606,-0.068119,-7.624083,-82.441768,23.71624
689798,0.124929,-0.236857,-0.039148,-7.512423,-82.579909,23.673574
689898,0.021469,-0.331301,-0.042417,-7.498454,-82.771946,23.669651
689998,-0.066289,-0.39623,-0.056218,-7.510751,-83.001903,23.641528
690098,-0.140579,-0.412523,-0.066582,-7.526443,-83.241895,23.57397
690198,-0.200999,-0.396604,-0.074887,-7.523822,-83.473468,23.453163
690298,-0.22264,-0.381651,-0.088239,-7.450544,-83.697532,23.248842
690398,-0.213456,-0.324642,-0.092951,-7.297913,-83.8895,22.970084
690498,-0.178745,-0.271235,-0.096386,-7.056279,-84.051246,22.621933
690598,-0.1405,-0.269755,-0.102343,-6.741556,-84.212379,22.222457
690698,-0.093012,-0.298473,-0.098521,-6.419509,-84.389375,21.843105
690798,-0.045285,-0.326796,-0.094827,-6.087047,-84.582052,21.48091
690898,-0.013391,-0.343444,-0.093865,-5.726815,-84.783943,21.109318
690998,-0.006221,-0.368044,-0.096395,-5.331448,-84.999767,20.706724
691098,-0.021198,-0.383735,-0.09781,-4.908456,-85.224353,20.267952
691198,-0.043039,-0.378413,-0.095667,-4.46825,-85.445507,19.799525
691298,-0.055507,-0.348976,-0.089509,-4.020002,-85.649273,19.316037
691398,-0.05453,-0.287379,-0.078283,-3.583763,-85.817095,18.84531
691498,-0.050376,-0.210623,-0.06189,-3.206024,-85.940199,18.435747
