// General information: 
//  MT Manager version: 2021.0.0 
//  XDA version: 2021.0.0 build 5908 rev 109668 built on 2021-04-19
// Device information: 
//  DeviceId: 0388442F
//  ProductCode: MTi-3-8A7G6
//  Firmware Version: 1.4.0
//  Hardware Version: 2.0.0
// Device settings: 
//  Filter Profile: general(50.9)
//  Option Flags: Orientation Smoother Disabled, Position/Velocity Smoother Disabled, Continuous Zero Rotation Update Disabled, AHS Enabled, ICC Disabled
// Coordinate system: ENU
PacketCounter,SampleTimeFine,Acc_X,Acc_Y,Acc_Z,Gyr_X,Gyr_Y,Gyr_Z,Roll,Pitch,Yaw
00264,218336,9.401801,0.699082,2.804588,-0.006903,-0.029753,-0.015086,14.259993,-72.726932,-13.641437
00265,218536,9.368407,0.737242,2.820007,-0.011826,-0.036994,-0.016809,14.339371,-72.763925,-13.738825
00266,218736,9.352461,0.747048,2.786349,-0.010676,-0.033564,-0.020320,14.429927,-72.796062,-13.846515
00267,218936,9.396811,0.731619,2.747204,-0.008000,-0.027054,-0.020851,14.519826,-72.820787,-13.950283
00268,219136,9.434348,0.681167,2.804227,-0.009365,-0.031932,-0.020469,14.611578,-72.850983,-14.057618
00269,219336,9.416260,0.681418,2.833448,-0.011846,-0.033922,-0.023258,14.712678,-72.882505,-14.177698
00270,219536,9.378303,0.742807,2.777380,-0.021765,-0.020536,-0.024552,14.794746,-72.898751,-14.289740
00271,219736,9.386479,0.720187,2.711678,-0.024530,0.005391,-0.019612,14.831282,-72.887710,-14.357452
00272,219936,9.419024,0.728970,2.638024,-0.019698,0.008954,-0.018353,14.865416,-72.873137,-14.416857
00273,220136,9.448306,0.681905,2.813460,-0.027261,-0.024316,-0.024570,14.944963,-72.893548,-14.532852
00274,220336,9.441069,0.614670,2.857879,-0.007780,-0.025313,-0.030013,15.067432,-72.913365,-14.670405
00275,220536,9.338845,0.661463,2.652885,0.010244,0.004410,-0.022750,15.155644,-72.902440,-14.750511
00276,220736,9.367058,0.820558,2.606972,-0.021967,0.000329,-0.016753,15.189480,-72.897851,-14.812330
00277,220936,9.379527,0.912314,2.605692,-0.041940,-0.026284,-0.025762,15.259209,-72.920000,-14.935614
00278,221136,9.463404,0.891369,2.691271,-0.022058,-0.025163,-0.036815,15.390906,-72.937513,-15.099852
00279,221336,9.495124,0.740621,2.756410,0.010479,0.001310,-0.051799,15.587529,-72.921078,-15.293009
00280,221536,9.461439,0.715542,2.693087,0.012243,0.012887,-0.056239,15.789928,-72.890331,-15.490121
00281,221736,9.505404,0.833823,2.649796,-0.025035,-0.002316,-0.054963,15.960054,-72.876597,-15.698173
00282,221936,9.469747,0.836097,2.711123,-0.048753,-0.007189,-0.049913,16.089802,-72.869683,-15.892417
00283,222136,9.413137,0.719412,2.681698,-0.026133,0.009228,-0.041245,16.197286,-72.847375,-16.036257
00284,222336,9.449124,0.703531,2.782412,-0.009410,0.015340,-0.033140,16.288245,-72.820867,-16.142777
00285,222536,9.510622,0.860232,2.891126,0.006872,0.010644,-0.033570,16.404004,-72.799275,-16.255738
00286,222736,9.483596,0.959618,2.913198,0.028316,0.003452,-0.046273,16.596782,-72.781288,-16.423600
00287,222936,9.434402,0.850270,2.806079,0.050529,0.011668,-0.054000,16.833181,-72.751530,-16.610504
00288,223136,9.367934,0.767309,2.745475,0.038139,0.019640,-0.047652,17.023619,-72.714952,-16.764185
00289,223336,9.386970,0.973449,2.754311,-0.000629,0.009374,-0.048546,17.183425,-72.689162,-16.932322
00290,223536,9.381740,1.132124,2.793049,-0.016905,-0.001601,-0.047876,17.334145,-72.675425,-17.110462
00291,223736,9.396911,0.989348,2.833397,0.004513,0.008343,-0.042472,17.479391,-72.652486,-17.257160
00292,223936,9.346127,0.785811,2.834036,0.018707,0.021515,-0.040640,17.619345,-72.615658,-17.381309
00293,224136,9.307123,0.790777,2.811292,0.009645,0.008476,-0.037708,17.752540,-72.593982,-17.509292
00294,224336,9.395086,0.853418,2.890806,0.007717,-0.007726,-0.035038,17.891993,-72.590783,-17.646167
00295,224536,9.432528,0.988621,2.855138,0.021168,0.001622,-0.039378,18.051389,-72.575716,-17.787787
00296,224736,9.330367,0.909606,2.790605,0.034060,0.012883,-0.045587,18.233951,-72.546030,-17.938221
00297,224936,9.279138,0.615353,2.839334,0.040493,0.012124,-0.035316,18.388276,-72.520735,-18.051390
00298,225136,9.343177,0.716930,2.872360,0.037480,0.007119,-0.013857,18.470237,-72.508569,-18.092352
00299,225336,9.315555,1.163290,2.839955,0.035152,-0.008518,-0.015556,18.573681,-72.512692,-18.158607
00300,225536,9.303106,1.164462,2.792309,0.052115,-0.008764,-0.033033,18.757413,-72.510577,-18.288630
00301,225736,9.302577,0.851653,2.784985,0.063398,0.013089,-0.027997,18.910861,-72.486507,-18.373365
00302,225936,9.318045,0.947099,2.801158,0.072146,0.019905,-0.019820,19.037898,-72.458021,-18.419904
00303,226136,9.367178,1.198626,2.784856,0.080984,0.004659,-0.021201,19.197919,-72.445453,-18.490390
00304,226336,9.376740,1.212741,2.726146,0.056010,-0.006384,-0.023741,19.351412,-72.443800,-18.584017
00305,226536,9.397530,0.980970,2.737803,0.023474,-0.007121,-0.013894,19.434867,-72.446649,-18.643286
00306,226736,9.386638,0.861417,2.755726,0.016028,-0.006272,-0.007245,19.485914,-72.451123,-18.677528
00307,226936,9.359974,0.984391,2.713633,0.024324,-0.002403,-0.008069,19.544639,-72.451114,-18.709849
00308,227136,9.319790,1.226566,2.713863,0.025996,0.005126,-0.011111,19.606849,-72.441780,-18.743786
00309,227336,9.327794,1.205453,2.772757,0.020307,-0.012238,-0.015017,19.697248,-72.449629,-18.814099
00310,227536,9.388051,1.089993,2.862052,0.031700,-0.024986,-0.016707,19.822259,-72.470485,-18.907008
00311,227736,9.427378,1.068212,2.793519,0.049642,-0.015207,-0.021906,19.973780,-72.478695,-19.006146
00312,227936,9.389622,1.063590,2.649215,0.034167,0.004337,-0.020247,20.077778,-72.466485,-19.074034
00313,228136,9.306764,1.064345,2.513834,0.013326,0.009649,-0.020450,20.152005,-72.448525,-19.135734
00314,228336,9.249360,0.971479,2.722211,0.003837,-0.021820,-0.019724,20.252122,-72.464670,-19.236000
00315,228536,9.342892,0.947035,2.828875,0.033616,-0.021413,-0.014859,20.369332,-72.482233,-19.318411
00316,228736,9.382709,1.026936,2.707367,0.060193,-0.009222,-0.005888,20.471187,-72.490260,-19.352779
00317,228936,9.433731,1.075050,2.630205,0.046675,-0.011509,-0.002425,20.548830,-72.502161,-19.377991
00318,229136,9.458137,1.068412,2.690808,0.037151,-0.024125,-0.008035,20.650935,-72.525342,-19.440286
00319,229336,9.429397,1.076528,2.762304,0.048249,-0.010070,-0.013481,20.766418,-72.531207,-19.503266
00320,229536,9.373757,1.085821,2.707227,0.061641,-0.000713,-0.020003,20.907400,-72.524353,-19.576887
00321,229736,9.324443,1.030288,2.662492,0.043943,-0.012377,-0.023728,21.055888,-72.528415,-19.679640
00322,229936,9.315208,0.956353,2.654126,0.028962,-0.025505,-0.017209,21.182273,-72.549160,-19.777222
00323,230136,9.351341,0.972185,2.725304,0.028123,-0.034172,-0.013345,21.306170,-72.580707,-19.873204
00324,230336,9.426945,1.032141,2.834688,0.037934,-0.034567,-0.013114,21.441331,-72.612672,-19.969202
00325,230536,9.445481,1.096688,2.745617,0.051978,-0.038240,-0.018055,21.614814,-72.646386,-20.088475
00326,230736,9.432099,1.077241,2.609717,0.049314,-0.042423,-0.026250,21.819495,-72.680997,-20.243603
00327,230936,9.353449,0.992535,2.626440,0.037066,-0.038011,-0.031848,22.023757,-72.708389,-20.412976
00328,231136,9.256115,1.180695,2.644933,0.017412,-0.035581,-0.028134,22.190122,-72.734622,-20.566211
00329,231336,9.325044,1.401036,2.641433,0.007046,-0.040882,-0.026407,22.347007,-72.767054,-20.721898
00330,231536,9.381034,1.227138,2.508958,-0.005563,-0.043822,-0.036157,22.527734,-72.798235,-20.917624
00331,231736,9.376905,0.953946,2.524568,-0.024501,-0.048749,-0.046432,22.729463,-72.829971,-21.158031
00332,231936,9.316756,0.980804,2.630257,-0.043580,-0.063322,-0.047265,22.933915,-72.876491,-21.424134
00333,232136,9.324671,1.209065,2.700115,-0.046022,-0.083206,-0.043619,23.153596,-72.945273,-21.709009
00334,232336,9.397914,1.191085,2.636023,-0.032022,-0.081073,-0.042545,23.384550,-73.011947,-21.988788
00335,232536,9.456248,1.054167,2.499477,-0.031015,-0.070676,-0.042089,23.601318,-73.067637,-22.252445
00336,232736,9.436104,1.026529,2.534806,-0.046536,-0.072688,-0.040474,23.799200,-73.125941,-22.514883
00337,232936,9.448975,1.249819,2.624269,-0.059889,-0.071801,-0.037812,23.972840,-73.184272,-22.767893
00338,233136,9.466336,1.361906,2.535285,-0.052679,-0.062530,-0.030559,24.116886,-73.236064,-22.981263
00339,233336,9.478822,1.319529,2.453818,-0.067569,-0.056987,-0.033221,24.245747,-73.280678,-23.196518
00340,233536,9.383933,1.242004,2.448615,-0.091247,-0.063779,-0.046409,24.405170,-73.326018,-23.471946
00341,233736,9.386917,1.167872,2.465150,-0.091589,-0.065956,-0.052851,24.591345,-73.370343,-23.775639
00342,233936,9.384221,1.116409,2.434333,-0.106985,-0.054961,-0.051376,24.738217,-73.403703,-24.056670
00343,234136,9.427270,1.171991,2.429856,-0.135961,-0.063015,-0.043618,24.838711,-73.449020,-24.323897
00344,234336,9.476363,1.255716,2.493246,-0.143182,-0.068116,-0.041949,24.934516,-73.500306,-24.594789
00345,234536,9.470681,1.340940,2.512710,-0.129750,-0.062997,-0.050853,25.069887,-73.541774,-24.890813
00346,234736,9.473608,1.221351,2.374697,-0.119220,-0.063545,-0.051960,25.223323,-73.583093,-25.193019
00347,234936,9.437670,1.100521,2.320464,-0.119949,-0.067201,-0.051093,25.380103,-73.628456,-25.499518
00348,235136,9.452072,1.109881,2.334878,-0.126331,-0.080509,-0.046130,25.535805,-73.689848,-25.812435
00349,235336,9.475256,1.128779,2.399181,-0.120563,-0.080844,-0.033171,25.654507,-73.757816,-26.079822
00350,235536,9.498855,1.095941,2.445135,-0.093227,-0.070247,-0.022932,25.751439,-73.819802,-26.291842
00351,235736,9.472661,1.100245,2.479049,-0.082286,-0.058400,-0.020843,25.833992,-73.870508,-26.475791
00352,235936,9.510406,1.184812,2.446832,-0.079173,-0.047546,-0.021896,25.905800,-73.909420,-26.644804
00353,236136,9.472697,1.284855,2.339000,-0.074600,-0.024680,-0.019271,25.934298,-73.926045,-26.763255
00354,236336,9.436392,1.305387,2.202904,-0.066558,-0.012970,-0.014657,25.935493,-73.932952,-26.843675
00355,236536,9.426882,1.214488,2.344921,-0.083978,-0.020907,-0.014460,25.929944,-73.948147,-26.937842
00356,236736,9.435372,1.269171,2.410244,-0.091192,-0.011423,-0.016415,25.906744,-73.952572,-27.022231
00357,236936,9.381119,1.305522,2.255253,-0.088926,-0.012523,-0.021398,25.906150,-73.955661,-27.127423
00358,237136,9.382868,1.232084,2.297208,-0.111505,-0.023757,-0.026853,25.918960,-73.967609,-27.273472
00359,237336,9.430651,1.213033,2.344289,-0.128212,-0.050280,-0.034501,25.986711,-74.003027,-27.496578
00360,237536,9.494628,1.272016,2.392133,-0.126380,-0.054329,-0.031648,26.054177,-74.043960,-27.717154
00361,237736,9.496163,1.245188,2.399186,-0.124225,-0.039194,-0.027039,26.081463,-74.071569,-27.893335
00362,237936,9.509011,1.150719,2.368292,-0.135121,-0.021126,-0.030371,26.076531,-74.078904,-28.048986
00363,238136,9.466577,1.142504,2.314591,-0.142244,-0.012861,-0.034100,26.062280,-74.075885,-28.203434
00364,238336,9.432673,1.348764,2.299108,-0.143048,-0.015185,-0.036291,26.059321,-74.074153,-28.370569
00365,238536,9.471078,1.389683,2.331733,-0.126263,-0.032878,-0.039003,26.116966,-74.089219,-28.580697
00366,238736,9.547729,1.153536,2.413436,-0.111753,-0.040689,-0.040955,26.212357,-74.111252,-28.812771
00367,238936,9.514662,1.011885,2.338588,-0.121557,-0.033032,-0.034628,26.260169,-74.128580,-29.007056
00368,239136,9.490088,1.121666,2.279646,-0.143860,-0.029526,-0.030252,26.260515,-74.144537,-29.178554
00369,239336,9.387873,1.278695,2.283683,-0.126486,-0.022923,-0.022200,26.240116,-74.157794,-29.307768
00370,239536,9.436047,1.268058,2.409376,-0.114429,-0.028513,-0.013550,26.212329,-74.181154,-29.414928
00371,239736,9.565087,1.146326,2.487210,-0.093370,-0.019510,-0.013349,26.191795,-74.195340,-29.504548
00372,239936,9.546991,1.081504,2.452112,-0.071869,-0.003518,-0.016634,26.179067,-74.191417,-29.576688
00373,240136,9.486946,1.145305,2.342721,-0.057775,0.004197,-0.019841,26.180259,-74.177951,-29.646518
00374,240336,9.388702,1.200828,2.328364,-0.059695,0.000092,-0.018519,26.181740,-74.169371,-29.718938
00375,240536,9.385299,1.174271,2.431586,-0.064053,-0.007737,-0.010747,26.163900,-74.172739,-29.776475
00376,240736,9.384181,1.043548,2.449076,-0.062923,-0.008381,-0.002662,26.118923,-74.180844,-29.804476
00377,240936,9.479672,1.081549,2.361878,-0.079666,-0.001027,0.003024,26.020864,-74.184266,-29.797258
00378,241136,9.512170,1.218720,2.381470,-0.068240,-0.002806,0.004234,25.934654,-74.190112,-29.788746
00379,241336,9.504615,1.247558,2.420419,-0.038344,-0.006796,0.004842,25.887560,-74.200345,-29.785279
00380,241536,9.446181,1.191671,2.427622,-0.020619,-0.007244,0.000842,25.876096,-74.209011,-29.797735
00381,241736,9.377327,1.183924,2.424683,-0.022307,-0.009473,-0.008887,25.902085,-74.215072,-29.851125
00382,241936,9.380098,1.207171,2.434219,-0.022283,-0.011684,-0.015553,25.956343,-74.220024,-29.933863
00383,242136,9.444340,1.195589,2.398476,-0.020362,-0.013335,-0.015178,26.014405,-74.226824,-30.018264
00384,242336,9.470428,1.213215,2.363963,-0.021016,-0.011929,-0.018512,26.081446,-74.230466,-30.112770
00385,242536,9.439571,1.146815,2.372209,-0.006433,-0.023348,-0.024831,26.208649,-74.242619,-30.252427
00386,242736,9.465540,1.099625,2.459887,0.001328,-0.036278,-0.020214,26.351283,-74.270286,-30.398877
00387,242936,9.481051,1.115039,2.427648,0.003524,-0.044465,-0.015725,26.495302,-74.308532,-30.544139
00388,243136,9.496034,1.183201,2.349271,0.014163,-0.053681,-0.020047,26.684910,-74.353890,-30.724060
00389,243336,9.539453,1.177297,2.323656,0.031183,-0.069533,-0.022576,26.933789,-74.413977,-30.945230
00390,243536,9.621775,1.151823,2.299150,0.034090,-0.067089,-0.016489,27.160804,-74.474519,-31.140186
00391,243736,9.612706,1.172941,2.179774,0.033530,-0.031171,-0.007753,27.288524,-74.502936,-31.232715
00392,243936,9.486367,1.375371,2.045258,0.013935,0.012412,-0.001173,27.287597,-74.490450,-31.215013
00393,244136,9.390968,1.449381,2.041697,-0.000887,0.012682,-0.002115,27.273091,-74.477224,-31.200811
00394,244336,9.511752,1.308572,2.193887,0.003270,-0.008032,-0.002192,27.302977,-74.485069,-31.227724
00395,244536,9.621097,1.136172,2.265209,0.024798,0.000634,-0.002774,27.343171,-74.483813,-31.239741
00396,244736,9.539773,1.252570,2.096061,0.050182,0.023528,-0.004029,27.373791,-74.458654,-31.211621
00397,244936,9.403567,1.414926,2.051405,0.036157,0.003513,-0.018180,27.478333,-74.446425,-31.276882
00398,245136,9.426918,1.329512,2.162147,0.005935,-0.030263,-0.017706,27.610973,-74.468741,-31.407238
00399,245336,9.481039,1.196127,2.071257,-0.000188,-0.027701,-0.008485,27.698401,-74.493360,-31.497935
00400,245536,9.508178,1.142777,2.061668,-0.020532,-0.038702,-0.006502,27.776737,-74.530235,-31.603375
00401,245736,9.416369,1.351886,2.102987,-0.025070,-0.065851,-0.000729,27.882079,-74.597681,-31.742183
00402,245936,9.299965,1.285513,2.234803,0.019902,-0.082580,0.006183,28.047546,-74.685656,-31.889847
00403,246136,9.422427,0.977380,2.291932,0.044224,-0.077819,0.031968,28.137208,-74.782653,-31.930006
00404,246336,9.584996,0.927424,2.288721,0.050909,-0.072328,0.056130,28.133600,-74.887179,-31.865607
00405,246536,9.613785,1.042709,2.199985,0.079775,-0.090401,0.070276,28.145518,-75.017645,-31.783085
00406,246736,9.502169,0.978771,2.183134,0.114873,-0.109046,0.083775,28.183412,-75.174286,-31.685902
00407,246936,9.364500,0.761842,2.258559,0.131385,-0.112703,0.098663,28.189116,-75.342705,-31.535986
00408,247136,9.411924,0.757053,2.279974,0.132024,-0.104929,0.108050,28.140293,-75.508339,-31.329129
00409,247336,9.593894,0.960030,2.278876,0.163557,-0.099263,0.109431,28.107063,-75.668934,-31.101241
00410,247536,9.512607,1.034229,2.220464,0.233179,-0.081475,0.109268,28.113644,-75.811416,-30.832283
00411,247736,9.313468,0.860677,2.176180,0.270848,-0.066280,0.114249,28.107734,-75.941215,-30.506120
00412,247936,9.397754,0.902162,2.191316,0.280121,-0.071256,0.116092,28.112237,-76.077010,-30.179952
00413,248136,9.562548,1.304162,2.097915,0.282416,-0.068263,0.091870,28.209631,-76.196693,-29.946919
00414,248336,9.505699,1.397035,1.933842,0.265764,-0.067660,0.069212,28.379680,-76.303557,-29.808416
00415,248536,9.444207,1.288914,2.024707,0.229341,-0.068118,0.068078,28.514025,-76.410297,-29.676173
00416,248736,9.339186,1.224860,2.050720,0.183177,-0.064618,0.065873,28.596644,-76.512300,-29.545189
00417,248936,9.389953,1.223664,1.983046,0.120975,-0.050327,0.065621,28.575727,-76.599757,-29.381083
00418,249136,9.495682,1.327246,1.899722,0.084894,-0.070822,0.064653,28.563956,-76.707267,-29.268917
00419,249336,9.575961,1.133278,2.033602,0.110873,-0.097491,0.052735,28.694702,-76.835042,-29.272626
00420,249536,9.555301,1.013286,2.152464,0.125797,-0.111857,0.046186,28.906319,-76.973558,-29.341820
00421,249736,9.481646,0.916903,2.111812,0.099417,-0.103780,0.042701,29.085779,-77.101939,-29.409018
00422,249936,9.498511,0.786710,1.874842,0.064077,-0.091333,0.059948,29.119841,-77.227480,-29.368612
00423,250136,9.482424,0.765606,1.725391,0.036505,-0.105135,0.085583,29.041520,-77.381191,-29.245431
00424,250336,9.452762,0.821634,1.836971,0.046716,-0.141254,0.090370,29.041289,-77.573749,-29.190355
00425,250536,9.480064,1.122611,1.986969,0.075063,-0.163338,0.066896,29.238105,-77.775246,-29.303765
00426,250736,9.561099,0.969772,1.965197,0.085890,-0.141651,0.037063,29.534629,-77.938149,-29.506405
00427,250936,9.588159,0.795503,1.837992,0.038551,-0.129422,0.045372,29.710791,-78.093402,-29.641352
00428,251136,9.529920,0.968750,1.775491,0.006387,-0.133883,0.062862,29.782488,-78.262955,-29.707148
00429,251336,9.458758,1.292082,1.724894,-0.020369,-0.158561,0.069541,29.862166,-78.460753,-29.812332
00430,251536,9.572511,1.246050,1.748193,-0.037297,-0.177633,0.042503,30.114097,-78.661853,-30.112960
00431,251736,9.597427,0.890814,1.823151,-0.048579,-0.170013,0.031325,30.396283,-78.848628,-30.457424
00432,251936,9.614806,0.741431,1.600387,-0.069252,-0.148849,0.037453,30.569997,-79.017831,-30.715300
00433,252136,9.586080,0.868560,1.509694,-0.128933,-0.117122,0.059254,30.472179,-79.168396,-30.766157
00434,252336,9.643300,1.084626,1.412088,-0.155237,-0.112622,0.061394,30.318746,-79.315788,-30.791045
00435,252536,9.846805,0.821540,1.542500,-0.117707,-0.162639,0.035166,30.502506,-79.497420,-31.115212
00436,252736,9.981427,0.395445,1.689159,-0.056741,-0.168642,0.027022,30.828015,-79.679993,-31.512310
00437,252936,9.796952,0.557536,1.521986,-0.045679,-0.157975,0.043294,31.054142,-79.861370,-31.795329
00438,253136,9.564272,0.929735,1.324274,-0.087905,-0.154891,0.064122,31.114254,-80.051931,-31.958716
00439,253336,9.433541,1.079813,1.252713,-0.076288,-0.122028,0.065732,31.070457,-80.211185,-32.003015
00440,253536,9.477784,0.783039,1.294056,-0.029172,-0.115536,0.052656,31.134023,-80.356353,-32.101443
00441,253736,9.745506,0.575374,1.554210,0.004228,-0.143336,0.060892,31.288654,-80.533618,-32.253374
00442,253936,9.850249,0.774087,1.513033,0.008653,-0.151026,0.069799,31.428846,-80.723618,-32.385456
00443,254136,9.788827,1.064808,1.208913,-0.003914,-0.122565,0.061618,31.504216,-80.880854,-32.466377
00444,254336,9.643770,1.012465,0.997689,0.002953,-0.096489,0.041792,31.614382,-81.000759,-32.574515
00445,254536,9.520613,0.591752,1.003605,0.032189,-0.079700,0.021507,31.822695,-81.092130,-32.748066
00446,254736,9.574532,0.253425,1.193393,0.063046,-0.078219,0.035526,31.975908,-81.190566,-32.830041
00447,254936,9.792269,0.644429,1.337670,0.083662,-0.068885,0.080850,31.830300,-81.307364,-32.585757
00448,255136,9.957621,1.225188,1.302787,0.086897,-0.044277,0.095160,31.493688,-81.408514,-32.144576
00449,255336,9.844931,1.125178,1.240602,0.115711,-0.041499,0.070362,31.333397,-81.491779,-31.848401
00450,255536,9.737846,0.706506,1.267899,0.140800,-0.033362,0.041995,31.352243,-81.550107,-31.704333
00451,255736,9.748235,0.282622,1.295373,0.159289,-0.006125,0.032886,31.341202,-81.576402,-31.508670
00452,255936,9.968775,0.075460,1.373694,0.190369,-0.003103,0.066264,31.129554,-81.619587,-31.074272
00453,256136,10.269890,0.270278,1.624720,0.171823,-0.026174,0.118941,30.628719,-81.716022,-30.369188
00454,256336,10.138611,0.733467,1.663304,0.123247,-0.052795,0.153338,29.925297,-81.857467,-29.515880
00455,256536,9.677324,1.153530,1.473747,0.104979,-0.073948,0.126119,29.452043,-82.003087,-28.916475
00456,256736,9.413919,1.179313,1.261905,0.117251,-0.073355,0.061071,29.442765,-82.110981,-28.771504
00457,256936,9.554179,0.883558,1.199292,0.132107,-0.089359,0.022202,29.798536,-82.212803,-28.977869
00458,257136,9.709958,0.752066,1.321512,0.142462,-0.096063,0.022979,30.196553,-82.321462,-29.214839
00459,257336,9.602710,0.779582,1.359509,0.155496,-0.101464,0.018928,30.672459,-82.432763,-29.515261
00460,257536,9.220270,0.856759,1.333833,0.182522,-0.128188,-0.003213,31.478574,-82.556621,-30.117423
00461,257736,9.160514,0.919544,1.293029,0.191829,-0.131155,-0.034382,32.568154,-82.662975,-30.994506
00462,257936,9.057162,0.930912,1.270950,0.200114,-0.146731,-0.069730,34.039397,-82.759325,-32.246584
00463,258136,9.115808,0.954477,1.366678,0.175569,-0.160939,-0.076210,35.641877,-82.860339,-33.659015
00464,258336,9.194464,1.199732,1.399684,0.101123,-0.168136,-0.076072,37.240308,-82.962884,-35.153012
00465,258536,9.400815,1.369554,1.333404,0.032025,-0.172423,-0.070909,38.791613,-83.067608,-36.678961
00466,258736,9.662671,1.279772,1.296986,-0.004900,-0.142405,-0.069606,40.152067,-83.141782,-38.054995
00467,258936,9.829739,1.112605,1.438243,-0.020606,-0.130019,-0.080727,41.524271,-83.192736,-39.460816
00468,259136,9.878263,0.912966,1.609667,-0.016670,-0.157085,-0.090889,43.170632,-83.254168,-41.138034
00469,259336,9.778780,0.897770,1.630579,-0.035998,-0.197681,-0.084716,45.060771,-83.347609,-43.082761
00470,259536,9.756410,1.082986,1.539219,-0.108021,-0.215584,-0.065733,46.920643,-83.463279,-45.079704
00471,259736,9.871347,1.171318,1.274853,-0.181601,-0.216021,-0.023941,48.484464,-83.607646,-46.863050
00472,259936,9.971991,1.245557,1.013323,-0.166471,-0.248833,-0.023647,50.404527,-83.770435,-48.986830
00473,260136,9.853902,0.884887,1.282028,-0.142603,-0.320572,-0.006051,52.959973,-83.990711,-51.721370
00474,260336,9.750227,0.717680,1.434113,-0.154381,-0.362833,0.008032,56.000891,-84.237710,-54.956374
00475,260536,9.515467,0.658640,1.368353,-0.161994,-0.364697,0.010309,59.305238,-84.469263,-58.463523
00476,260736,9.335375,0.715455,1.432431,-0.169911,-0.411282,0.021214,63.333212,-84.714829,-62.705254
00477,260936,9.472968,0.880032,1.463363,-0.177089,-0.449009,0.035966,68.107946,-84.962120,-67.703378
00478,261136,9.398142,1.008330,1.327432,-0.180669,-0.457071,0.029575,73.465356,-85.164740,-73.288754
00479,261336,9.296128,0.944204,1.349706,-0.180408,-0.478154,0.007483,79.584129,-85.299183,-79.636467
00480,261536,9.291374,0.699455,1.337585,-0.169866,-0.525274,-0.015683,86.680322,-85.352065,-86.951903
00481,261736,9.392520,0.566899,1.295759,-0.160668,-0.538968,-0.030260,94.008355,-85.312847,-94.489337
00482,261936,9.379542,0.677097,1.149149,-0.150695,-0.533319,-0.054724,100.962997,-85.170697,-101.641646
00483,262136,9.296266,0.799027,1.107547,-0.138807,-0.568967,-0.078767,107.776831,-84.921595,-108.641049
00484,262336,9.384502,0.573224,1.240080,-0.110888,-0.612361,-0.084697,114.342629,-84.579726,-115.362503
00485,262536,9.621695,0.187190,1.239562,-0.069812,-0.617024,-0.074852,120.197318,-84.181412,-121.326297
00486,262736,9.806059,-0.078387,1.172265,-0.007732,-0.604582,-0.054580,125.332507,-83.756895,-126.499467
00487,262936,9.780354,-0.017487,1.160213,0.055827,-0.593562,-0.035353,129.887608,-83.313763,-131.019866
00488,263136,9.636546,0.180244,1.151702,0.100374,-0.590947,-0.020059,133.985297,-82.849086,-135.032312
00489,263336,9.455531,0.312411,1.233638,0.112691,-0.614276,0.005411,137.880293,-82.353451,-138.830382
00490,263536,9.341487,0.230009,1.248017,0.133459,-0.636718,0.048214,141.695382,-81.838628,-142.528269
00491,263736,9.455581,0.202139,1.176742,0.166344,-0.632287,0.085033,145.296044,-81.321771,-145.976083
00492,263936,9.625990,0.415361,1.125034,0.170872,-0.641055,0.090104,148.557547,-80.770949,-149.080225
00493,264136,9.761098,0.640070,1.181979,0.141937,-0.652472,0.082261,151.410531,-80.179913,-151.808816
00494,264336,9.737471,0.610777,1.194652,0.104252,-0.634793,0.087940,153.882192,-79.590164,-154.198825
00495,264536,9.747694,0.592127,1.389311,0.077298,-0.634167,0.101981,156.133185,-78.991775,-156.400270
00496,264736,9.797499,0.681239,1.764236,0.019007,-0.647898,0.118770,158.201393,-78.372187,-158.488014
00497,264936,9.745596,0.728318,1.895273,-0.056925,-0.605803,0.150973,160.055925,-77.798053,-160.450814
00498,265136,9.319594,0.656082,1.661005,-0.119779,-0.543937,0.179479,161.705567,-77.290309,-162.281570
00499,265336,8.859179,0.585728,1.611960,-0.179469,-0.525226,0.189612,163.173864,-76.796757,-164.000038
00500,265536,8.397981,0.388071,1.558677,-0.202613,-0.501143,0.205990,164.544609,-76.326315,-165.648844
00501,265736,7.775410,0.134116,1.397676,-0.110479,-0.392082,0.221899,165.868080,-75.973202,-167.143049
00502,265936,7.260317,-0.288094,0.615575,0.089824,-0.315329,0.233528,167.324444,-75.700621,-168.539514
00503,266136,6.985755,-0.222638,-1.100968,0.170534,-0.340308,0.264175,168.972913,-75.397982,-170.040494
00504,266336,6.524902,1.015088,-3.277404,-0.083910,-0.168321,0.169104,169.733996,-75.260274,-170.927029
00505,266536,7.866725,0.370992,-6.064915,-0.091625,-0.185936,0.049745,169.978005,-75.075136,-171.288366
00506,266736,10.587786,-0.582491,-5.343166,0.433829,-0.280740,0.040862,170.843264,-74.779309,-171.669762
00507,266936,13.082083,-2.708700,-3.599863,0.796982,-0.232424,0.101888,172.321827,-74.546390,-172.255768
00508,267136,14.949162,-3.371022,-1.412658,0.646239,-0.159228,0.088676,173.512727,-74.392013,-172.722701
00509,267336,15.757174,-1.770757,-2.795576,0.364427,0.130337,0.023227,173.976073,-74.557815,-172.769493
00510,267536,14.956160,-0.470392,-4.202659,0.554890,0.309173,0.031040,174.622829,-74.928030,-172.780050
00511,267736,14.719124,-0.102915,-3.782679,0.954056,0.210426,-0.016989,175.576895,-75.180550,-172.635235
00512,267936,16.189471,-0.643216,-2.399225,1.019390,0.175579,-0.088835,176.315560,-75.388310,-172.190439
00513,268136,18.320177,-1.344228,-0.372225,0.929239,0.322742,-0.220260,176.321308,-75.756557,-171.096079
00514,268336,19.675551,-1.286750,0.481580,0.906360,0.405658,-0.226965,176.211348,-76.220297,-169.911512
00515,268536,18.259035,-0.849452,0.876582,0.894680,0.590424,-0.161793,176.289968,-76.901449,-168.937545
00516,268736,16.303893,-0.260719,0.111789,0.874751,0.722731,-0.244842,175.807135,-77.727391,-167.414593
00517,268936,14.010182,0.696443,0.199022,0.923151,0.742871,-0.311013,174.850598,-78.566562,-165.355985
00518,269136,10.425347,0.967726,0.503972,1.016006,0.697008,-0.482364,172.763662,-79.321332,-162.043284
00519,269336,6.964088,-0.215209,0.334889,0.910360,0.455835,-0.521005,170.182983,-79.769758,-158.358409
00520,269536,3.659913,-0.196450,1.057944,0.671307,0.441344,-0.537305,166.962580,-80.163917,-154.307193
00521,269736,0.762562,0.347851,1.935148,0.367555,0.529548,-0.470060,163.364763,-80.633054,-150.231770
00522,269936,-0.398913,0.721171,0.505919,0.022537,0.390132,-0.344359,160.183442,-80.953968,-146.983620
00523,270136,-0.595010,1.125789,-1.556889,-0.063882,0.338655,-0.294115,157.170086,-81.211297,-144.008479
00524,270336,-1.595807,1.525277,-3.434291,-0.217056,0.271886,-0.309550,153.926494,-81.364506,-140.979739
00525,270536,-1.088772,1.967167,-3.313676,-0.452916,0.047112,-0.440284,150.285290,-81.190548,-137.822216
00526,270736,0.931510,2.060635,-0.903120,-0.622300,0.137886,-0.475980,146.015660,-81.050035,-134.223955
00527,270936,3.336482,2.751350,-1.296159,-0.794654,0.090410,-0.436981,142.115086,-80.851720,-131.197892
00528,271136,8.212262,1.198249,-3.335463,-0.313806,-0.129156,-0.161495,141.366766,-80.631512,-130.805602
00529,271336,16.313146,2.508860,-4.462886,0.430300,0.781106,0.105549,138.750154,-81.405063,-127.658868
00530,271536,25.560150,3.326167,-1.970534,-0.186261,-0.103155,0.331303,140.919089,-81.568804,-130.069226
00531,271736,25.909099,5.822179,-2.529557,0.075887,-0.545576,-0.408603,141.128089,-80.796982,-130.194307
00532,271936,20.285948,2.538932,-1.215874,-0.793459,0.263925,-0.375856,136.929497,-80.751394,-126.863594
00533,272136,17.606271,2.716694,-0.038873,-0.944848,0.116041,0.082788,135.631676,-80.921337,-126.647522
00534,272336,16.576478,2.277132,-1.132048,-1.292624,-0.159044,0.404665,136.998194,-81.118325,-129.532361
00535,272536,15.853681,1.684031,-0.362073,-1.066319,-0.149210,0.588517,139.735030,-81.448000,-133.538968
00536,272736,16.097926,3.006541,0.943250,-0.869800,-0.038093,0.457007,141.595804,-81.756311,-136.429011
00537,272936,13.409860,3.358701,1.588485,-1.166586,0.159240,0.282182,141.156816,-82.111231,-137.337419
00538,273136,8.761493,2.737037,1.017452,-1.254542,0.070792,0.299274,141.222906,-82.400034,-138.856556
00539,273336,4.226047,0.748257,0.301734,-0.966817,0.029296,0.340988,142.210197,-82.679416,-140.971125
00540,273536,0.641564,-1.916371,-0.302385,-0.633484,0.099274,0.453468,144.189584,-83.093362,-143.698683
00541,273736,-1.262373,-3.840352,0.638641,-0.595834,0.342653,0.755129,147.804603,-83.915984,-148.025097
00542,273936,-1.545989,-2.963671,0.735636,-0.330754,0.541464,0.921346,153.727221,-84.988371,-154.356706
00543,274136,-1.722896,-1.003826,-1.963471,0.199152,0.615884,0.896714,162.742697,-86.041610,-163.170808
00544,274336,-2.321424,-0.014006,-3.808016,0.570155,0.475678,0.706336,174.262464,-86.753011,-174.058492
00545,274536,-1.643019,0.082271,-1.868884,0.521055,0.373843,0.522331,-173.746621,-87.192787,174.531994
00546,274736,-0.381568,0.381590,0.455353,0.188264,0.346584,0.514963,-159.155534,-87.454006,160.141294
00547,274936,1.109527,1.364853,1.150544,0.059926,0.473740,0.411856,-142.871635,-87.713049,143.912103
00548,275136,5.966942,-0.375258,-1.222763,0.350230,0.275052,0.176098,-133.000359,-87.820451,134.435291
00549,275336,13.361643,1.218585,2.477802,0.317079,0.604473,0.202788,-112.814729,-88.011238,114.600517
00550,275536,18.517358,-0.431571,-7.741571,-0.315711,-0.146351,-0.022263,-117.566606,-87.967200,118.993598
00551,275736,25.638048,-5.189183,-3.600169,0.003441,-0.837927,0.396293,-129.967371,-87.054464,131.409846
00552,275936,22.228984,-4.912704,2.053979,-0.079567,-0.510197,0.341547,-133.025693,-86.378118,134.382272
00553,276136,20.731951,-1.910019,5.196772,1.066416,-0.454348,-0.015624,-137.382714,-86.026885,139.974152
00554,276336,18.257274,0.178770,0.123363,1.147774,-0.017601,-0.112353,-137.517266,-86.105991,141.427961
00555,276536,16.143355,1.323753,-1.151594,1.135802,-0.112450,-0.261130,-140.727601,-86.211994,145.950472
00556,276736,17.381912,1.430764,0.032903,0.880153,-0.318634,-0.416948,-148.693122,-86.198757,154.944613
00557,276936,18.373969,-0.080524,1.879280,0.428710,-0.078771,-0.324481,-153.763718,-86.308931,160.518692
00558,277136,15.777988,0.200617,1.070149,0.417489,0.022283,-0.397557,-159.743723,-86.523645,166.989967
00559,277336,12.085226,0.056872,1.382223,0.734329,-0.113270,-0.555532,-169.632325,-86.578815,177.739543
00560,277536,7.661427,0.264295,1.548926,0.662622,0.096141,-0.648723,178.513116,-86.759950,-169.625440
00561,277736,3.428994,-0.767745,-0.126901,0.542444,0.343951,-0.717875,162.886284,-87.030761,-153.353646
00562,277936,0.073509,-1.912761,-1.276350,0.482138,0.420540,-0.669708,145.560988,-87.142768,-135.453386
00563,278136,-2.659837,-0.453422,0.113677,0.072533,0.289800,-0.495449,132.756433,-87.030512,-122.549590
00564,278336,-3.387128,1.947885,0.330516,-0.179321,0.295332,-0.466895,121.337603,-86.812446,-111.320695
00565,278536,-3.131618,2.662149,-2.455014,-0.385921,0.257008,-0.525022,111.729627,-86.407591,-102.139620
00566,278736,-0.789442,1.756040,-3.087801,-0.427628,-0.186564,-0.576566,110.538193,-85.715630,-101.437227
00567,278936,1.214821,0.453116,-1.562513,-0.059532,0.075258,-0.556500,106.784131,-85.139508,-97.740387
00568,279136,0.969296,0.096511,0.089634,0.015846,0.119934,-0.490237,103.576584,-84.633348,-94.502621
00569,279336,3.785675,1.472798,-2.223268,-0.483893,-0.612841,-0.318092,108.744482,-84.087020,-100.253555
00570,279536,10.439969,-0.556296,-6.288497,0.817101,-0.726446,-0.277596,115.600426,-83.477994,-106.208700
00571,279736,20.209415,3.371194,-4.402415,1.000549,0.068619,-0.175388,115.339355,-83.330349,-104.792318
00572,279936,29.624647,5.013925,-2.427261,-0.368801,-0.972526,-0.226680,121.787235,-82.567671,-111.715552
00573,280136,28.915243,11.787698,-1.638831,-1.198135,-1.020931,-0.321224,125.884620,-81.607712,-117.239184
00574,280336,23.236033,6.563476,2.796732,-1.134281,0.174141,-0.120862,122.880585,-81.604531,-115.517725
00575,280536,20.218593,2.258793,0.736586,-1.441384,-0.009874,0.158105,121.896303,-81.750262,-116.193531
00576,280736,17.334903,0.840147,-1.739024,-1.699763,-0.504113,0.380693,124.887153,-81.796108,-121.184686
00577,280936,15.134368,-0.049598,-1.459953,-0.983544,-0.665079,0.551960,130.588302,-81.830667,-128.084184
00578,281136,14.136083,0.142077,0.076092,-0.723452,-0.380302,0.631914,135.450535,-82.065241,-133.833095
00579,281336,12.740675,2.046755,1.561801,-1.159214,-0.150108,0.690697,139.210623,-82.478907,-138.969204
00580,281536,9.521050,2.673988,1.985928,-1.485874,0.228896,0.669808,140.770031,-83.177652,-142.258065
00581,281736,5.253271,1.678303,0.682790,-1.110234,0.470117,0.603567,141.185960,-84.036159,-143.957756
00582,281936,1.158046,0.252974,-0.634341,-0.681584,0.578303,0.440898,140.003024,-84.873217,-143.554824
00583,282136,-2.272722,-2.144630,-1.322520,-0.347666,0.639096,0.538650,139.480928,-85.835223,-143.431353
00584,282336,-4.740245,-3.744413,-0.989844,0.032971,0.580049,0.815726,144.619567,-86.940155,-148.542517
00585,282536,-4.426374,-2.603725,-1.616714,0.144308,0.376890,0.953385,161.866135,-87.833313,-165.640929
00586,282736,-2.867731,-0.620080,-2.040113,0.234453,0.519459,0.767845,-171.714704,-88.526089,168.196226
00587,282936,-1.940597,0.145945,-1.238009,0.490654,0.300137,0.492708,-144.470261,-88.643555,141.506213
00588,283136,-0.013397,0.565655,0.657709,0.334158,0.148534,0.348673,-127.671196,-88.492613,125.085088
00589,283336,0.633713,1.154300,1.153981,0.061930,0.360982,0.320535,-107.770134,-88.362315,105.247797
00590,283536,2.968875,-0.477372,0.184501,0.204230,0.442985,0.189792,-89.337135,-88.223478,87.041055
00591,283736,10.045878,-0.972796,-1.853423,0.411640,-0.201019,0.253580,-95.211807,-87.925147,93.391154
00592,283936,18.544212,0.391605,-5.528711,0.204163,-0.632279,0.307015,-110.406366,-87.419400,108.832220
00593,284136,29.982938,-5.735053,-7.583610,0.651277,-1.113248,0.378754,-126.669439,-86.418846,125.865290
00594,284336,31.898103,-7.725808,0.707207,0.290404,-0.668244,0.385168,-130.892315,-85.594901,130.432049
00595,284536,28.191015,-3.988659,7.335140,0.976421,0.225444,-0.055742,-127.582809,-85.809343,128.235600
00596,284736,22.964065,-1.261827,0.487016,1.661978,0.751103,-0.122342,-115.944624,-86.384879,118.479863
00597,284936,19.002671,0.765736,-2.082689,1.607263,0.116210,-0.138244,-113.126060,-86.585260,117.501497
00598,285136,16.988814,3.946163,-0.082558,1.063594,0.172908,-0.423431,-111.881116,-87.111597,117.475506
00599,285336,15.310944,1.949500,2.839718,0.621146,0.410626,-0.441506,-104.642732,-87.743484,110.942630
00600,285536,10.694658,-0.382242,2.572930,0.831384,0.404449,-0.461678,-92.384661,-88.340469,99.631033
00601,285736,5.683199,-1.462253,1.687618,1.023079,0.234385,-0.572070,-76.873501,-88.973386,85.288697
00602,285936,0.906244,-1.048786,0.698212,0.851455,0.179506,-0.702777,-22.401646,-89.507355,31.789059
00603,286136,-2.579784,-0.370970,0.092675,0.457258,0.318948,-0.701824,37.050251,-88.965783,-27.142690
00604,286336,-4.290406,0.500809,-0.792921,0.072589,0.361102,-0.496282,43.831833,-88.275486,-33.842999
00605,286536,-4.249399,1.802665,-1.459642,0.084804,0.091528,-0.438835,51.516160,-87.827183,-41.434583
00606,286736,-3.206836,2.665026,-1.543229,0.007560,-0.249232,-0.572003,65.566667,-87.409334,-55.488488
00607,286936,0.189923,2.216923,-0.790089,-0.494956,-0.432467,-0.606547,78.718101,-86.891800,-69.223970
00608,287136,1.150401,0.901135,-1.799406,-0.539889,0.024031,-0.660556,79.902429,-86.139024,-71.030483
00609,287336,0.817748,-0.462189,-2.064590,0.243744,0.195919,-0.669021,79.057798,-85.340813,-69.903660
00610,287536,2.146113,0.164291,0.374383,0.245072,0.032347,-0.557938,80.206428,-84.701829,-70.774975
00611,287736,8.565734,0.555857,-1.412238,-0.524898,-0.539411,-0.376539,86.502555,-84.341129,-77.704388
00612,287936,20.125887,0.788757,-7.580220,1.472915,0.062354,-0.239480,87.620094,-84.061103,-77.131204
00613,288136,30.609561,3.981535,-5.456495,0.495909,-1.095441,-0.075500,100.027167,-83.887619,-89.035184
00614,288336,28.501734,7.144014,-1.579718,-0.660011,-1.745216,-0.481606,114.248418,-82.757505,-104.113225
00615,288536,22.799194,9.251528,5.551872,-1.616318,-0.661859,-0.344233,116.258821,-82.072364,-108.010234
00616,288736,21.593536,5.818381,5.031522,-1.729725,0.174693,0.133726,113.381680,-82.291129,-107.107523
00617,288936,19.556823,2.439818,-0.739918,-1.623082,-0.142937,0.172880,113.182980,-82.404149,-108.784356
00618,289136,16.266339,0.327433,-2.926708,-1.402005,-0.484674,0.180382,115.958852,-82.357484,-113.206429
00619,289336,14.562819,-0.572994,-2.217998,-0.903126,-0.923371,0.319139,122.992728,-82.152029,-121.349850
00620,289536,13.259572,-1.219476,1.357905,-0.791688,-0.707036,0.506722,129.281353,-82.142212,-128.614284
00621,289736,10.046773,0.231599,1.879809,-1.244348,-0.242033,0.618012,132.815700,-82.494770,-133.620096
00622,289936,5.560913,1.732872,1.591936,-1.486277,0.274590,0.702701,133.651058,-83.297916,-136.178910
00623,290136,0.942308,0.595703,0.724435,-0.959894,0.540073,0.702652,133.475091,-84.308870,-137.108953
00624,290336,-2.232174,-0.267693,-0.577246,-0.664782,0.615814,0.700451,133.050090,-85.377926,-137.447609
00625,290536,-5.171941,-1.668118,-2.660102,-0.340165,0.348380,0.771633,137.345228,-86.285860,-142.145147
00626,290736,-3.873333,-1.904737,-1.867524,0.000663,0.319697,0.806568,145.966338,-87.150239,-150.779568
00627,290936,-2.636959,-1.259743,-0.888844,0.343530,0.423933,0.686634,157.072680,-87.957684,-161.501821
00628,291136,-1.545093,0.126654,-0.517985,0.310459,0.387592,0.347072,164.841757,-88.510404,-168.918643
00629,291336,0.836056,1.000603,0.982086,-0.119016,0.379038,0.156716,167.865970,-88.977408,-172.080031
00630,291536,1.866685,1.439468,0.772478,-0.268022,0.598447,0.215438,-175.224072,-89.688598,170.702023
00631,291736,5.874647,-0.994848,-3.957473,0.207414,0.587372,0.057701,-13.822553,-89.624183,9.537856
00632,291936,15.153422,-0.305093,-4.828530,0.947586,-0.112406,0.196193,-51.929668,-89.610258,48.731641
00633,292136,31.440799,-4.415209,-4.783996,0.647386,-0.696561,0.097569,-142.848038,-89.304754,140.394209
00634,292336,32.418232,-7.125188,-4.205932,0.869603,-0.415724,0.430800,-137.714259,-88.620077,136.256284
00635,292536,21.746271,-4.502805,3.614289,0.707111,0.133574,0.252848,-124.670234,-88.499804,124.018697
00636,292736,20.275384,-1.337847,5.558869,1.840144,0.748726,0.125051,-87.790414,-88.604513,89.237136
00637,292936,18.525333,0.679134,-1.644077,2.180720,0.529089,0.075463,-63.754296,-88.365192,67.692603
00638,293136,18.549386,2.621150,-1.087769,1.808705,0.052518,-0.101775,-57.777020,-88.436394,63.786378
00639,293336,16.714954,3.357275,1.242805,1.009430,0.163418,-0.346371,-40.989379,-88.616972,48.150355
00640,293536,12.818006,1.046930,1.774530,0.906446,0.267565,-0.358484,-19.179924,-88.555859,27.373425
00641,293736,7.999434,0.099770,1.591431,1.092907,0.105965,-0.467623,3.558685,-88.506226,5.880295
00642,293936,4.077462,-0.388617,2.111860,1.114400,0.155387,-0.606595,26.359756,-88.146604,-15.652652
00643,294136,0.386277,-0.533125,1.645102,1.034166,0.307521,-0.625387,38.388504,-87.460247,-26.504116
00644,294336,-2.113072,-0.090691,0.705737,0.648791,0.302700,-0.389998,41.533135,-86.905297,-28.908255
00645,294536,-3.324540,0.985857,-0.329016,0.199967,0.212221,-0.297349,43.258662,-86.493904,-30.407204
00646,294736,-3.415133,2.090471,-1.508419,-0.020676,0.000703,-0.359624,47.738334,-86.197084,-34.919772
00647,294936,-2.552653,1.856736,-2.489552,-0.275998,-0.260065,-0.388502,54.949233,-86.033227,-42.464221
00648,295136,-1.550151,0.818111,-2.496047,-0.500982,-0.505147,-0.394809,64.755783,-85.930485,-52.870261
00649,295336,0.855004,0.302501,-1.522131,-0.349432,-0.264066,-0.468198,70.846276,-85.545726,-59.379048
00650,295536,1.229419,0.368069,-1.140956,0.276236,-0.037627,-0.558018,73.989546,-84.947293,-62.215407
00651,295736,5.075399,2.711918,0.014382,-0.390760,-0.231469,-0.499203,77.827006,-84.454355,-66.518886
00652,295936,13.121262,1.956044,-4.599212,-0.348301,-0.570325,-0.320602,84.514392,-84.188779,-73.640015
00653,296136,24.064734,4.241810,-8.632525,1.090184,-0.290370,-0.062261,89.093689,-84.133230,-76.986934
00654,296336,35.738686,5.512608,-1.426426,-0.594674,-1.011884,-0.273303,99.136397,-83.732076,-87.770628
00655,296536,27.300481,10.247736,-1.851218,-1.795386,-0.972087,-0.685847,104.908295,-82.722645,-95.654077
00656,296736,22.591342,8.140756,5.706300,-1.897166,-0.098688,-0.176611,103.205289,-82.491345,-96.128861
00657,296936,21.341927,2.095878,1.740607,-2.018510,0.140417,0.208677,100.047063,-82.750894,-95.276556
00658,297136,17.766910,0.161561,-1.166258,-2.082046,-0.231059,0.308344,100.254372,-83.045655,-97.889668
00659,297336,13.777668,-0.925361,-1.763126,-1.706892,-0.481327,0.425902,103.696163,-83.403323,-103.325228
00660,297536,11.769924,-1.988084,-1.236886,-1.043735,-0.676798,0.524305,110.662137,-83.744355,-111.538598
00661,297736,10.044833,-2.379863,0.669880,-0.721259,-0.458619,0.732267,117.693036,-84.292259,-119.438820
00662,297936,6.598501,0.532322,1.965078,-1.180773,0.252400,0.856535,118.607738,-85.291073,-121.716026
00663,298136,1.910295,1.734650,1.341036,-1.221333,0.681989,0.861953,113.423126,-86.518710,-117.921650
00664,298336,-1.473144,0.888632,0.536096,-0.700418,0.701334,0.823447,103.436895,-87.667918,-108.726805
00665,298536,-2.470281,-0.067183,0.077664,-0.607173,0.649743,0.808674,80.527766,-88.633898,-86.502952
00666,298736,-2.926949,-1.221530,-1.564350,-0.371355,0.599807,0.735073,28.768887,-88.951642,-35.159813
00667,298936,-2.602414,-1.552674,-2.737579,0.196436,0.585160,0.611922,-6.769741,-88.400706,0.612551
00668,299136,-2.550094,-1.159453,-2.780034,0.448265,0.378196,0.421861,-17.881009,-87.873444,12.243556
00669,299336,-1.199159,-0.392201,-1.203433,0.139603,0.063387,0.233623,-23.512270,-87.713255,18.039139
00670,299536,0.035843,0.300554,0.742895,-0.140557,-0.065652,0.113161,-27.386847,-87.727975,21.755650
00671,299736,4.282728,-0.570923,-0.360712,0.165333,0.102434,-0.056103,-24.456624,-87.653021,19.012711
00672,299936,11.503728,-0.140979,-3.508885,0.649599,-0.453998,0.072918,-32.303366,-88.075740,27.609756
00673,300136,19.904156,-1.184250,-4.003944,0.635301,-0.822762,0.050499,-57.051678,-88.725713,53.095250
00674,300336,32.181714,-6.131957,-5.074067,0.687275,-1.201327,0.053527,-120.798168,-88.684262,117.642418
00675,300536,29.870235,-6.796507,1.703963,0.505455,-0.747552,0.344172,-134.703400,-87.837225,132.132960
00676,300736,23.694808,-2.711460,5.867318,1.084228,0.025661,-0.079761,-134.642866,-87.919523,133.315606
00677,300936,20.716609,-1.444365,1.152021,1.814132,0.736486,-0.143490,-112.769615,-88.530527,113.512135
00678,301136,19.053173,0.047161,-2.190203,1.889199,0.240555,-0.111821,-101.205946,-88.731311,104.110587
00679,301336,17.465643,2.145643,0.167711,1.374694,0.162719,-0.360098,-92.316673,-89.161971,96.795344
00680,301536,15.079239,1.774317,2.023908,1.240819,0.126542,-0.502975,-64.762565,-89.711467,70.662143
00681,301736,10.779622,1.177658,1.229188,1.071144,0.077271,-0.484516,54.753242,-89.636371,-47.627049
00682,301936,5.880612,0.692572,1.304880,1.002075,0.144679,-0.589516,69.682666,-88.957570,-61.408969
00683,302136,1.517197,-0.573987,1.197452,1.021391,0.500952,-0.721718,63.472590,-87.969480,-54.026080
00684,302336,-2.021811,-0.527468,-0.002453,1.067510,0.709491,-0.748887,58.261771,-86.823399,-47.585649
00685,302536,-5.242145,0.712933,-1.163054,0.684668,0.399519,-0.659402,59.079740,-85.940911,-47.619091
00686,302736,-2.721944,2.788138,-0.577416,0.047361,-0.331143,-0.661603,68.126586,-85.429198,-56.636968
00687,302936,0.447547,2.813238,-0.811379,-0.244197,0.041545,-0.505287,69.789311,-84.871147,-58.586355
00688,303136,-0.201686,2.433422,-2.555145,-0.515374,-0.031743,-0.393661,71.202232,-84.457093,-60.598332
00689,303336,-0.365971,1.378007,-3.553135,-0.672381,-0.502892,-0.560787,77.660740,-83.990598,-67.863734
00690,303536,0.871043,-0.205766,-1.968400,-0.005958,-0.357440,-0.691245,82.525454,-83.278808,-72.764943
00691,303736,1.467240,-0.719092,0.988893,0.205346,0.080948,-0.645960,82.805500,-82.531585,-72.809610
00692,303936,5.681950,0.622770,-0.926038,-0.661718,-0.564350,-0.375559,87.146249,-82.157872,-77.953946
00693,304136,15.618905,0.671249,-6.241484,0.746335,-0.891107,-0.194879,95.302544,-81.911084,-85.325203
00694,304336,28.854353,5.913835,-2.800191,0.481041,-0.922690,0.060678,103.266742,-81.806529,-92.812658
00695,304536,35.549607,7.629002,-5.388644,-0.947345,-1.268666,-0.285799,110.815526,-81.061268,-101.543086
00696,304736,24.277744,12.897154,0.949290,-1.275773,-0.607236,-0.342108,112.456808,-80.433557,-104.686569
00697,304936,22.340545,7.922231,7.074440,-1.811279,0.333338,0.058233,108.377586,-80.622597,-102.655086
00698,305136,21.410315,3.277172,0.134702,-1.661203,-0.014560,0.200216,106.999275,-80.829574,-103.187219
00699,305336,16.646656,0.312029,-2.213103,-1.910748,-0.144775,0.239979,106.303590,-81.039560,-104.699814
00700,305536,12.639131,-0.914106,-2.151208,-1.621724,-0.336037,0.389470,107.671056,-81.348741,-107.963876
00701,305736,10.272120,-0.956028,-1.753496,-1.049185,-0.579346,0.618970,112.322547,-81.784085,-113.881288
00702,305936,7.447549,-0.174077,1.101961,-0.882861,-0.212192,0.802876,115.640209,-82.522124,-118.251340
00703,306136,3.438832,0.828737,2.786605,-1.114219,0.296056,0.831442,115.196344,-83.524314,-119.090516
00704,306336,-1.038970,0.291535,1.575310,-1.040449,0.594132,0.848117,111.689986,-84.683204,-116.764337
00705,306536,-3.124206,-0.747106,0.436749,-0.943687,0.847495,0.985566,103.363369,-86.051670,-109.496020
00706,306736,-5.594709,-1.495180,-2.354366,-0.540744,0.583221,1.057781,94.566199,-87.353001,-101.305480
00707,306936,-4.438553,-1.148580,-4.127394,0.017967,-0.077676,0.795359,99.920742,-88.243637,-106.643118
00708,307136,-1.885105,-1.212644,-2.321157,0.406212,-0.192588,0.548948,116.035742,-88.775461,-122.297631
00709,307336,0.315998,-1.108612,0.628922,0.344000,0.039192,0.413032,128.691030,-89.198435,-134.560513
00710,307536,1.022842,-0.045947,0.997222,0.029151,0.201022,0.431045,153.931236,-89.695866,-159.768215
00711,307736,2.012723,0.501803,-0.456112,-0.109413,0.282824,0.504193,-83.767566,-89.555784,77.804208
00712,307936,6.871260,-0.626114,-3.639253,0.226755,0.057256,0.460124,-83.288666,-89.026924,77.585099
00713,308136,12.559702,1.481299,-4.347119,0.063917,-0.801457,0.718479,-114.301444,-88.038521,108.679605
00714,308336,27.252874,-1.415096,-5.457711,0.405659,-1.173328,0.306572,-134.894711,-86.966510,129.756160
00715,308536,36.685420,-7.458409,-2.851226,0.990997,-1.343846,0.485052,-142.790521,-85.432477,138.806360
00716,308736,26.359631,-6.312934,3.359823,-0.037275,-0.280599,0.262350,-142.340153,-84.990427,138.311358
00717,308936,23.159962,-0.924487,4.942064,1.478430,0.518096,0.008718,-135.930383,-85.430819,133.579174
00718,309136,20.798051,-0.088319,-2.523448,1.785605,0.357919,-0.143840,-131.516732,-85.831120,131.204652
00719,309336,18.015483,0.996589,-2.666067,1.855454,-0.045791,-0.484211,-135.449980,-86.195764,137.278573
00720,309536,16.070914,1.561129,-0.320761,1.305253,0.098236,-0.739485,-143.362092,-86.832688,146.703487
00721,309736,12.639851,1.125202,1.131561,0.870891,0.051821,-0.689841,-155.061320,-87.289324,159.417081
00722,309936,7.849194,0.950248,1.237032,0.952060,0.007723,-0.664077,-170.032298,-87.526668,175.495188
00723,310136,3.354608,-0.041530,1.785971,1.097595,0.372056,-0.746298,169.333055,-87.954090,-162.595943
00724,310336,-0.387503,-0.992137,1.043790,1.070519,0.646759,-0.736626,137.308685,-88.248356,-129.327655
00725,310536,-3.129358,-0.506228,0.027880,0.730938,0.598572,-0.591166,108.659740,-88.045946,-99.826365
00726,310736,-5.776221,1.348468,-1.297313,0.421472,0.344992,-0.496211,95.895766,-87.570170,-86.569858
00727,310936,-3.196034,3.544738,-1.751012,0.074021,-0.287792,-0.658997,100.450571,-86.773186,-91.045076
00728,311136,-0.166057,2.345493,-2.170926,-0.236203,-0.038673,-0.612958,99.012954,-86.070615,-89.875717
00729,311336,0.681431,1.034572,-2.453117,-0.371139,-0.160534,-0.519057,99.763176,-85.450668,-91.054214
00730,311536,0.633789,-0.191108,-1.699948,-0.227761,-0.351818,-0.511272,102.825455,-84.793756,-94.389221
00731,311736,1.599145,0.464132,0.209714,0.014757,-0.051017,-0.510604,102.149736,-84.206612,-93.693095
00732,311936,6.434024,0.493910,-1.742399,-0.419439,-0.408062,-0.436122,104.864274,-83.607948,-96.906014
00733,312136,15.270280,-0.924925,-7.526515,1.345462,-0.185454,-0.255890,107.512284,-83.263912,-98.018921
00734,312336,25.208850,4.514199,-2.992042,0.234808,-0.501349,0.301266,113.455802,-83.382373,-103.731422
00735,312536,35.168182,5.579349,-1.710682,-1.448994,-1.208803,0.058568,122.201551,-82.787610,-114.212841
00736,312736,26.587944,14.130094,-0.837496,-1.296555,-0.804720,-0.455228,124.319156,-81.837490,-117.848511
00737,312936,20.096755,8.206792,2.512442,-1.937847,0.370929,-0.214666,118.671112,-81.841441,-114.386031
00738,313136,19.594965,1.988169,-0.112419,-1.683839,0.166757,-0.090007,115.226191,-81.828138,-112.855095
00739,313336,18.961407,-1.094580,-1.088049,-1.492942,-0.393603,0.114948,116.723489,-81.742036,-116.096362
00740,313536,16.331029,-2.625316,-0.491085,-1.432487,-0.441044,0.430431,119.814170,-81.931637,-120.876898
00741,313736,11.568802,-2.191722,-0.548831,-1.193480,-0.393108,0.592420,123.784020,-82.266975,-126.265414
00742,313936,7.414347,-0.215167,0.085941,-0.911181,-0.184526,0.671036,127.454727,-82.765148,-131.020712
00743,314136,3.497495,2.808003,2.044835,-1.219106,0.314583,0.702055,127.764121,-83.618308,-132.739341
00744,314336,-1.734558,2.298258,1.960644,-1.149073,0.482861,0.743041,127.189576,-84.626357,-133.485671
00745,314536,-2.928105,0.878470,1.261639,-0.873488,0.330369,0.669287,128.098673,-85.460722,-135.403055
00746,314736,-2.667301,-1.300003,-0.659019,-0.730993,0.489050,0.618519,127.057319,-86.360194,-135.199004
00747,314936,-2.567752,-2.733119,-2.891191,-0.044283,0.286974,0.625346,130.339289,-87.121579,-138.537098
00748,315136,-2.155269,-2.815285,-3.827109,0.445823,0.174113,0.543927,137.196280,-87.706824,-144.889582
00749,315336,-0.641159,-1.955250,-3.149622,0.331205,0.055810,0.456575,147.793785,-88.073613,-155.114382
00750,315536,0.343036,-0.646739,0.072440,0.092633,-0.091275,0.507863,165.672283,-88.205382,-172.895958
00751,315736,0.623934,0.975989,2.342729,-0.023951,0.084701,0.542163,-173.970430,-88.346962,166.710232
00752,315936,4.278838,0.354545,-1.272472,0.251281,0.244258,0.390198,-155.368966,-88.498886,148.389839
00753,316136,11.703909,0.716286,-3.968550,0.560983,-0.465518,0.277926,-153.113188,-87.878056,146.776011
00754,316336,19.554492,-0.197737,-8.162571,0.511171,-1.000603,-0.029923,-162.650501,-86.820606,156.909269
00755,316536,32.681227,-6.570054,-7.209594,0.755570,-1.533667,-0.110803,-169.577961,-85.134805,164.720791
00756,316736,33.105454,-7.029192,-0.339046,0.870168,-0.669494,0.328454,-166.334412,-84.299891,162.464840
00757,316936,24.835378,-3.472654,4.640807,1.288694,0.243112,-0.113881,-165.452749,-84.597714,163.062780
00758,317136,21.196037,-1.010673,-0.537438,1.792738,0.667420,-0.180106,-163.304276,-85.386013,162.968381
00759,317336,19.136020,1.392898,-2.535946,1.777794,0.188103,-0.436267,-166.754168,-85.719932,168.472048
00760,317536,16.695721,2.233755,-1.065164,1.397525,0.180578,-0.715577,-175.992192,-86.045477,179.339414
00761,317736,13.720529,0.668882,0.502924,1.069843,0.107474,-0.720458,173.088493,-86.145380,-168.487196
00762,317936,9.009408,-0.113982,0.980613,0.985353,0.085763,-0.646079,163.252491,-86.087425,-157.496865
00763,318136,4.306229,-0.272189,2.033383,1.026890,0.287576,-0.745213,151.096855,-86.058610,-144.133266
00764,318336,0.302828,-0.907787,1.386187,1.089880,0.581441,-0.763493,136.323288,-86.077883,-128.073318
00765,318536,-3.224372,0.133127,-0.573736,0.925314,0.593268,-0.642900,123.123355,-85.944874,-113.778638
00766,318736,-5.240445,2.199175,-1.014804,0.388503,0.289835,-0.545233,115.563726,-85.561858,-105.751751
00767,318936,-2.902580,4.024348,-0.322184,0.095678,-0.130112,-0.617434,113.782599,-84.855450,-103.854259
00768,319136,0.871855,2.413542,-1.575557,0.022543,0.235934,-0.538187,108.775717,-84.376658,-98.799143
00769,319336,-0.272356,0.840539,-3.965380,-0.225959,0.313490,-0.528059,103.543119,-83.892853,-93.799077
00770,319536,-0.462336,-0.214298,-3.952870,-0.576957,-0.267051,-0.570325,104.157243,-83.182801,-95.082025
00771,319736,0.785707,-0.409994,-0.248113,-0.233664,-0.220249,-0.563596,104.589200,-82.492397,-95.786730
00772,319936,2.489476,0.909898,1.548513,-0.223863,0.191698,-0.464668,101.886885,-82.022191,-93.317996
00773,320136,9.096972,-0.069763,-3.790500,-0.206594,-0.283998,-0.198436,103.552576,-81.726799,-95.239077
00774,320336,18.435699,0.876214,-9.213572,1.627887,0.073052,0.054283,105.008423,-81.805703,-94.824263
00775,320536,32.782787,2.894932,-1.046976,-1.043366,-0.880425,0.198087,110.968372,-81.707923,-102.053419
00776,320736,35.768879,10.358358,-2.218412,-1.120191,-1.119129,-0.009558,117.463529,-81.166658,-109.918772
00777,320936,23.870291,12.658361,1.394508,-1.688347,0.008870,-0.129840,115.069401,-81.031621,-109.453222
00778,321136,20.806505,4.527719,3.772881,-1.776685,0.635036,0.163333,109.119771,-81.473217,-105.493235
00779,321336,19.087009,0.775539,-0.335465,-1.570964,0.224895,0.285570,106.337696,-81.858314,-104.500546
00780,321536,15.164984,-1.291317,-1.815449,-1.555782,-0.094128,0.544219,106.602834,-82.421590,-106.567507
00781,321736,11.664075,-1.206532,-1.347103,-1.136996,-0.291601,0.662765,109.662883,-83.036075,-110.965381
00782,321936,8.604453,-1.342015,0.261076,-0.759156,-0.184581,0.749874,113.228469,-83.755872,-115.430120
00783,322136,5.526556,-0.241160,2.818853,-0.957264,0.449216,0.922395,111.389822,-84.926430,-114.684686
00784,322336,0.055275,1.237679,2.316247,-0.898741,0.642752,0.852531,105.400623,-86.084224,-109.710286
00785,322536,-1.829650,-0.201599,1.115151,-0.662763,0.767600,0.784841,92.347667,-87.111991,-97.395713
00786,322736,-3.191524,-1.593022,-0.708247,-0.440647,0.674082,0.866421,70.415609,-87.991628,-75.950031
00787,322936,-4.253872,-2.360916,-2.388046,0.009449,0.332938,0.966538,36.764102,-88.686585,-42.274858
00788,323136,-3.254852,-1.000527,-4.052189,0.383325,0.055670,0.814498,-7.081276,-88.881121,2.018782
00789,323336,-2.393020,-0.214525,-4.854911,0.745342,-0.274573,0.503727,-41.274548,-88.938722,37.072101
00790,323536,-0.465065,-0.008030,-1.590797,0.742401,-0.729339,0.342763,-91.557460,-88.913168,88.213535
00791,323736,1.853987,-0.363067,2.893839,0.481499,-0.302346,0.326642,-104.110577,-88.492405,101.321571
00792,323936,3.787669,-0.702877,0.834339,0.428780,0.283118,0.303913,-91.035070,-88.187980,88.732115
00793,324136,10.550463,-0.437783,-2.649726,0.544713,-0.075650,0.245412,-92.798445,-87.904101,91.120927
00794,324336,17.692881,2.344863,-4.706340,0.184785,-0.205392,0.325917,-97.723687,-87.510796,96.261787
00795,324536,27.400320,-2.307933,-9.164079,0.482701,-0.854136,0.048007,-117.137674,-87.158162,116.249690
00796,324736,32.484138,-8.488714,-0.584079,0.958826,-0.910368,0.052280,-131.183714,-86.511946,131.416834
00797,324936,26.356125,-6.146330,5.234024,0.899760,-0.011891,-0.109155,-131.735432,-86.590939,133.002326
00798,325136,22.125415,-1.861797,2.765293,1.532570,0.596846,-0.107183,-121.370708,-87.093223,124.380759
00799,325336,20.822731,-0.411428,-0.944422,1.952884,0.364503,-0.187746,-113.458150,-87.472240,118.699583
00800,325536,18.956297,1.904867,-0.217042,1.584383,0.384511,-0.457028,-105.475502,-88.110056,112.527921
00801,325736,15.958006,1.856562,1.853221,0.988319,0.489101,-0.554326,-86.048798,-88.804919,94.227491
00802,325936,11.955887,0.765866,1.642521,0.780876,0.350548,-0.468703,-52.783974,-89.180898,61.852863
00803,326136,7.187089,0.885718,1.349750,0.674383,0.245528,-0.455666,-8.967544,-89.210950,18.805341
00804,326336,2.749067,0.641502,1.636493,0.634721,0.549085,-0.605970,22.588214,-88.479753,-12.028446
00805,326536,-0.916837,0.325898,0.844282,0.661076,0.823759,-0.676712,30.657866,-87.288085,-19.345122
00806,326736,-3.633520,0.769588,-0.381921,0.507858,0.831321,-0.663481,33.609254,-86.078756,-21.718358
00807,326936,-6.237837,1.439057,-2.042731,0.364677,0.495212,-0.710305,38.284919,-85.142940,-25.988419
00808,327136,-3.438366,2.132198,-2.270953,0.063648,-0.093107,-0.798653,46.711642,-84.603773,-34.375361
00809,327336,-1.038067,1.068987,-3.242243,-0.426933,0.060049,-0.717494,51.122857,-83.940149,-39.299980
00810,327536,-0.536373,0.708023,-3.965370,-0.810910,-0.679624,-0.577939,59.743166,-83.838250,-48.903403
00811,327736,0.088726,0.915179,-2.664943,-0.586946,-1.330859,-0.547482,74.460149,-83.854911,-64.380556
00812,327936,2.159849,1.557095,0.395139,0.039475,-0.754058,-0.712778,83.427034,-83.216628,-73.358313
00813,328136,7.751935,1.207591,-0.062969,-0.119241,-0.413885,-0.634049,87.568445,-82.528000,-77.668926
00814,328336,17.375948,-0.620053,-4.839004,1.098428,-0.154606,-0.359661,90.245184,-82.118830,-79.098910
00815,328536,27.399662,3.694315,-3.595191,0.382157,-0.732742,0.326988,97.094469,-82.438606,-85.567814
00816,328736,33.471401,4.744506,-2.834122,-1.449067,-1.165432,-0.022620,105.147181,-82.152531,-95.368150
00817,328936,24.464480,10.949728,0.784922,-1.717860,-0.602629,-0.512515,106.696689,-81.393428,-98.921853
00818,329136,21.175415,7.023352,4.889730,-1.836976,0.101445,0.027774,103.928267,-81.449591,-98.250361
00819,329336,20.414663,2.448661,1.187825,-1.596722,0.303619,0.267354,100.243398,-81.817210,-96.374761
00820,329536,18.018607,1.218611,-0.789070,-1.871457,-0.068069,0.438314,99.284053,-82.294553,-97.570938
00821,329736,14.746399,1.143076,-0.200690,-1.835680,-0.230719,0.497116,99.925396,-82.807971,-100.338721
00822,329936,11.090079,0.495214,-0.225492,-1.329795,-0.288455,0.383400,101.737430,-83.173400,-103.699304
00823,330136,7.780743,-0.392383,0.665913,-0.921172,0.076221,0.444602,100.825585,-83.686357,-103.843682
00824,330336,2.227010,0.319399,1.376517,-1.231205,0.405172,0.509286,95.866399,-84.327874,-100.275686
00825,330536,-0.013647,0.182308,2.009609,-1.452154,0.702685,0.609838,85.666854,-85.036040,-91.703431
00826,330736,-2.182906,-0.901679,0.732187,-1.002245,0.732240,0.786566,72.136873,-85.760539,-79.282303
00827,330936,-4.067835,-1.478373,-1.122537,-0.567416,0.519929,0.905067,57.058946,-86.445609,-64.821576
00828,331136,-4.207075,-1.636248,-3.040140,-0.193108,0.401834,0.756169,41.339110,-86.803902,-49.296285
00829,331336,-2.833092,-1.309527,-4.827525,0.254619,0.207956,0.552382,29.639188,-86.980320,-37.286848
00830,331536,-1.558070,-0.654295,-3.588377,0.368525,-0.364546,0.401719,25.644348,-87.567779,-32.864571
00831,331736,0.301508,-0.186904,0.964184,0.146308,-0.766172,0.303707,28.543616,-88.511357,-35.597554
00832,331936,1.841423,-0.007080,3.621749,0.104831,-0.065272,0.250261,19.244167,-88.698973,-26.175130
00833,332136,5.679836,-1.168097,-3.306787,0.316408,-0.036170,0.145162,12.944649,-88.788787,-19.511374
00834,332336,13.752602,-0.123892,-4.790095,0.558165,-0.815766,0.370091,-30.975224,-89.720757,25.050235
00835,332536,24.633028,-1.283513,-5.080907,0.990225,-1.262975,0.129328,-166.039200,-88.752974,161.251083
00836,332736,35.497854,-5.915012,-2.917422,1.084083,-1.012771,0.215387,-166.068680,-87.559998,162.523467
00837,332936,27.147311,-6.075956,0.689399,0.509706,-0.353003,0.270316,-161.527157,-87.077954,158.561785
00838,333136,23.125395,-2.312476,5.327994,1.480452,0.431120,0.107934,-153.413471,-87.482096,152.137476
00839,333336,20.467210,-0.128789,-0.703380,1.821969,0.470727,0.040396,-143.290160,-87.912667,144.095623
00840,333536,18.738570,1.965998,-1.726966,1.879364,0.083716,-0.219136,-145.442296,-88.131901,148.403916
00841,333736,15.988231,2.998654,0.217830,1.365301,0.234417,-0.483389,-156.447497,-88.634211,160.978504
00842,333936,13.101451,0.485035,1.081995,1.031061,0.342810,-0.473898,-178.243639,-89.142690,-176.039810
00843,334136,8.754763,-0.548254,1.233930,0.988727,0.290631,-0.425231,140.028377,-89.306860,-133.175240
00844,334336,4.316368,-0.524719,1.969940,0.915327,0.219611,-0.467628,106.897059,-88.984757,-98.991513
00845,334536,0.394097,-0.024191,1.084984,0.982713,0.382538,-0.531322,85.791390,-88.419396,-76.754358
00846,334736,-2.794359,1.049249,-0.290230,0.817626,0.414842,-0.548168,75.814899,-87.722379,-65.834896
00847,334936,-5.755793,2.955798,-1.199083,0.356392,0.057247,-0.704755,78.708060,-86.921526,-68.322196
00848,335136,-2.189945,2.547733,-0.328158,0.059343,0.160127,-0.738160,78.594770,-86.056843,-68.140409
00849,335336,-0.964112,1.354826,-1.703228,0.096475,0.173441,-0.566983,77.910478,-85.380739,-67.343130
00850,335536,-0.379677,0.568034,-2.625167,-0.326176,-0.264556,-0.478775,82.201968,-84.892632,-72.024874
00851,335736,0.976938,-0.048817,-1.346784,-0.278703,-0.460001,-0.440544,88.009724,-84.434038,-78.178205
00852,335936,2.256531,0.208580,0.659124,0.089819,0.122768,-0.428565,86.978251,-83.937144,-77.037570
00853,336136,4.801902,1.803739,-1.611463,-0.355203,-0.186067,-0.315566,88.681393,-83.583365,-79.159858
00854,336336,12.390439,0.043325,-6.122360,0.399996,-0.389836,-0.155959,93.079132,-83.397398,-83.124118
00855,336536,20.009517,3.535668,-8.569117,1.171191,-0.325017,-0.022921,97.653949,-83.335233,-86.377711
00856,336736,33.065660,2.216074,-1.651672,-1.239770,-1.100302,0.124026,107.006981,-83.202558,-97.224880
00857,336936,30.666751,12.146437,0.731143,-1.142750,-0.989875,-0.118352,113.945060,-82.672541,-105.534514
00858,337136,21.828643,10.417202,3.249066,-1.862810,0.179312,-0.286384,109.447892,-82.437067,-103.151425
00859,337336,18.518112,2.885344,1.608327,-1.697202,0.546616,-0.026080,102.889173,-82.576776,-98.497448
00860,337536,17.278995,0.439027,-1.605647,-1.685125,-0.174929,0.136600,102.765997,-82.679351,-100.319860
00861,337736,15.435746,-0.587457,-0.958031,-1.579139,-0.498115,0.362198,106.187328,-82.933716,-105.591734
00862,337936,14.203357,-0.766207,0.669133,-1.174165,-0.368753,0.482771,109.616352,-83.326022,-110.400358
00863,338136,12.407818,-0.256065,1.071211,-0.910042,-0.010988,0.618671,110.908870,-83.982728,-112.749796
00864,338336,8.549987,2.396976,1.380274,-1.409936,0.435319,0.645899,106.941712,-84.840487,-110.386995
00865,338536,1.755458,1.215274,0.821189,-1.347262,0.463553,0.601248,101.246996,-85.634219,-106.221740
00866,338736,-0.856513,-0.524389,1.009879,-0.862924,0.279108,0.523347,97.175037,-86.273612,-103.130855
00867,338936,-3.130301,-2.377965,-0.319286,-0.755730,0.518714,0.616614,86.625205,-86.998958,-93.430472
00868,339136,-4.942752,-3.141467,-1.639243,-0.470906,0.154261,0.719426,80.201174,-87.796733,-87.540009
00869,339336,-2.832098,-0.967580,-2.110770,-0.121857,-0.047046,0.621586,77.549659,-88.504829,-85.026750
00870,339536,-1.350235,-0.014117,-2.414683,0.309493,0.120881,0.392493,66.107015,-88.890279,-73.226382
00871,339736,0.333010,-0.003219,-0.884110,0.460948,0.038331,0.204735,58.531417,-89.078212,-65.121227
00872,339936,1.825745,0.203145,1.511841,0.095023,0.092489,0.192636,44.299339,-89.186154,-50.778568
00873,340136,1.826555,1.141676,0.849744,-0.146471,0.395392,0.236730,16.028540,-88.924514,-22.671951
00874,340336,4.467817,-0.219958,-3.741455,0.265325,0.295472,0.090359,8.401437,-88.618336,-14.738944
00875,340536,12.260756,-0.329299,-4.414323,0.678367,-0.355851,0.121688,4.807687,-89.044776,-10.366890
00876,340736,23.114117,-1.791584,-2.270791,0.526955,-0.326545,0.071873,0.706307,-89.428637,-5.661223
00877,340936,30.044527,-5.653421,-9.027762,0.871443,-0.642444,0.213090,-126.187316,-89.710157,122.232181
00878,341136,28.963368,-5.572770,0.408975,0.995179,-0.288201,0.301148,-130.460746,-89.227756,127.646196
00879,341336,26.562020,-3.112825,7.672369,1.462421,0.161715,0.105629,-112.686250,-89.216266,111.546045
00880,341536,21.879170,1.706478,1.120830,1.528106,0.862883,0.172416,-52.385602,-88.842568,52.989725
00881,341736,16.775214,2.660854,-1.808524,1.832417,0.374183,-0.045573,-35.611982,-88.571011,38.312176
00882,341936,15.189878,3.443876,0.347290,1.612407,0.102382,-0.400879,-14.491586,-88.665060,19.033933
00883,342136,14.577652,1.640901,3.562350,1.099785,0.113778,-0.440524,8.015524,-88.566055,-2.218957
00884,342336,11.319950,-0.209005,2.502330,0.966755,0.315262,-0.376470,20.498017,-88.111219,-13.598255
00885,342536,6.963233,-0.782529,1.153314,0.881751,0.332347,-0.356921,27.379765,-87.600020,-19.473591
00886,342736,1.956015,0.004289,0.641896,0.723801,0.325870,-0.443768,33.530596,-87.023010,-24.800732
00887,342936,-0.899260,1.922008,0.063466,0.529605,0.069394,-0.638746,43.434757,-86.506325,-34.112582
00888,343136,-1.318154,2.038972,-0.296291,0.279063,0.164668,-0.737321,50.301600,-85.761601,-40.674231
00889,343336,-2.353834,1.718712,-0.283405,0.225870,0.290310,-0.716760,53.589297,-84.911000,-43.712836
00890,343536,-2.587121,0.861433,-1.218156,0.137332,0.194596,-0.575038,55.870642,-84.245429,-45.846010
00891,343736,-1.265082,0.544117,-2.261238,-0.427826,-0.262294,-0.431391,60.426483,-83.985126,-50.918398
00892,343936,0.194163,0.467462,-3.027960,-0.547418,-0.560032,-0.357461,66.980771,-83.903102,-58.139689
00893,344136,0.665936,0.695068,-2.115605,-0.126174,-0.403616,-0.391118,72.289875,-83.644167,-63.625100
00894,344336,1.456650,1.365826,0.011048,-0.161754,-0.257453,-0.446965,75.839529,-83.232301,-67.384089
00895,344536,5.941957,2.017852,-2.744448,-0.585351,-0.995200,-0.358479,85.119764,-83.013992,-77.406116
00896,344736,15.290102,0.218792,-5.755921,1.099775,-0.985131,-0.121373,95.556127,-82.866298,-86.651083
00897,344936,25.582803,3.350282,0.612724,0.401238,-0.572078,-0.096443,101.051401,-82.659751,-91.726103
00898,345136,31.158114,3.581717,-6.676665,-1.022464,-1.115300,-0.215481,108.697197,-82.088025,-100.620838
00899,345336,24.074137,10.187790,-0.652194,-1.186959,-0.712258,-0.081122,112.518822,-81.707534,-105.853900
00900,345536,21.353001,7.622634,3.435678,-1.643364,0.056829,0.104459,110.549726,-81.836053,-105.766464
00901,345736,21.502424,3.848201,2.178020,-1.669247,0.040504,0.193075,108.878314,-82.053390,-106.009831
00902,345936,18.784787,1.840290,0.324811,-1.876577,-0.106067,0.334275,108.487547,-82.371039,-107.785468
00903,346136,14.538115,0.552424,-0.548449,-1.636732,-0.264726,0.419668,110.032917,-82.719094,-111.235208
00904,346336,12.113645,-0.192953,0.185949,-1.191801,-0.255819,0.485150,112.509559,-83.125432,-115.106764
00905,346536,9.265502,0.415818,0.999357,-0.996678,-0.017958,0.560953,113.730746,-83.703314,-117.485567
00906,346736,5.617272,0.734423,1.266316,-1.168965,0.332032,0.650697,111.795747,-84.532927,-116.886896
00907,346936,2.678427,-0.136122,0.928218,-0.959554,0.584824,0.652299,106.255743,-85.453868,-112.429566
00908,347136,-0.162557,-1.059465,0.214383,-0.675358,0.592947,0.620403,98.402633,-86.290714,-105.332109
00909,347336,-2.662585,-1.565732,-1.077708,-0.553215,0.571915,0.679377,87.105688,-87.099659,-94.651592
00910,347536,-4.504451,-1.443799,-2.571578,-0.303706,0.402105,0.680523,73.708592,-87.793695,-81.589745
00911,347736,-3.611527,-0.772721,-2.882337,0.054320,0.056396,0.603747,64.638208,-88.417967,-72.452118
00912,347936,-2.166225,-0.307294,-1.829640,0.189621,-0.055993,0.424869,57.469401,-88.875638,-65.063893
00913,348136,-0.439229,-0.021852,-0.649524,0.113956,-0.207757,0.302210,59.240726,-89.295380,-66.704737
00914,348336,0.373024,0.342972,0.369830,0.084056,-0.207306,0.250989,69.854501,-89.658004,-77.222519
00915,348536,2.133038,-0.067584,-0.422241,0.253495,-0.063179,0.189837,69.437343,-89.886102,-76.514841
00916,348736,7.435015,-1.157623,-3.401776,0.479164,-0.549266,0.125371,-176.405884,-89.403927,169.876942
00917,348936,15.026824,-0.092802,-2.642426,0.410009,-0.973164,0.186194,-171.443475,-88.266119,165.383644
00918,349136,26.412045,-2.145552,-4.903483,0.706044,-0.904501,0.210773,-169.111278,-87.197319,163.859340
00919,349336,29.397011,-6.285546,-4.607998,0.622761,-0.818249,0.412905,-164.213091,-86.167909,159.667922
00920,349536,25.442475,-5.701552,1.528752,1.013354,-0.612881,0.154592,-163.404928,-85.437505,160.021989
00921,349736,24.964896,-1.014642,3.538451,1.666759,0.066825,-0.032737,-161.651853,-85.516727,160.179463
00922,349936,22.123283,0.217671,-0.300804,1.852312,0.469328,-0.151990,-159.314224,-86.077187,159.963947
00923,350136,18.674866,0.590568,-2.273534,1.894357,0.242681,-0.339011,-161.318311,-86.465412,164.147706
00924,350336,17.179098,1.209150,-0.418228,1.705758,0.018541,-0.477643,-168.020278,-86.626745,172.820092
00925,350536,15.408800,-0.063949,1.472043,1.417458,0.280154,-0.417654,-173.993219,-87.015944,-179.570940
00926,350736,10.771303,-0.224866,1.325506,1.329193,0.396022,-0.389126,178.657259,-87.486098,-170.688039
00927,350936,6.048096,0.379071,1.884988,1.412602,0.576245,-0.520463,162.391451,-88.044191,-152.790179
00928,351136,0.944470,1.407225,0.824391,1.392597,0.583138,-0.687458,132.532561,-88.188350,-121.319211
00929,351336,-1.496916,1.259041,-0.479804,0.842430,0.798274,-0.674242,99.252480,-87.878968,-87.054767
00930,351536,-4.327577,1.299081,-2.014910,0.498240,0.573046,-0.632044,84.154407,-87.168273,-71.371448
00931,351736,-5.708723,2.024157,-2.506633,0.402215,0.011460,-0.516068,85.414800,-86.578241,-72.171935
00932,351936,-3.857285,2.038308,-2.328959,0.273946,-0.598971,-0.546449,96.161635,-85.939197,-82.626600
00933,352136,-0.259405,0.480184,-1.193269,-0.057930,-0.669232,-0.522229,104.510199,-85.209343,-91.066165
00934,352336,1.509296,-0.384975,-0.713448,-0.145700,-0.394463,-0.406162,107.812241,-84.634408,-94.548455
00935,352536,1.613182,0.582941,-0.374605,0.092027,-0.248124,-0.427866,109.111183,-84.077202,-95.747384
00936,352736,3.470752,2.586082,-2.711482,-0.197913,-0.418345,-0.496990,111.226426,-83.374236,-98.103060
00937,352936,10.332601,0.627376,-5.829510,0.370282,-0.562597,-0.317724,115.383162,-82.780956,-101.862201
00938,353136,16.473812,2.139356,-6.740885,1.158423,-0.407076,-0.219951,119.051392,-82.338898,-104.222013
00939,353336,29.984373,2.295864,-1.725192,-1.070040,-0.759273,-0.129614,122.670443,-81.760163,-109.113350
00940,353536,33.703168,9.781172,-0.858902,-1.459213,-1.104290,-0.020385,127.760423,-81.004259,-115.951846
00941,353736,22.364365,11.845345,1.198686,-1.783099,0.244689,-0.058975,124.030922,-81.106623,-114.244698
00942,353936,20.667818,4.538227,0.794365,-1.603177,0.407952,-0.010565,119.584875,-81.335607,-111.604780
00943,354136,19.671790,1.916488,-0.311299,-1.584387,-0.026286,0.138801,118.457857,-81.453350,-112.301114
00944,354336,16.380482,0.312057,-0.540474,-1.674935,-0.393679,0.403734,120.715979,-81.626921,-116.524463
00945,354536,13.558154,-0.227378,0.599647,-1.627459,-0.228029,0.530770,122.617183,-82.002226,-120.329367
00946,354736,10.493974,-0.238202,0.384974,-1.278112,0.182523,0.675590,122.970379,-82.761590,-122.163414
00947,354936,6.714580,1.323053,0.401251,-1.324590,0.462508,0.746754,121.516554,-83.763360,-122.228052
00948,355136,3.025704,0.190078,1.347623,-1.226543,0.677119,0.761248,117.640789,-84.900818,-119.745966
00949,355336,0.124835,-1.268596,0.371024,-0.851493,0.770558,0.723048,110.796450,-86.016069,-113.859302
00950,355536,-2.995436,-2.397491,-0.997448,-0.671248,0.689600,0.873358,102.006628,-87.198642,-105.825095
00951,355736,-4.430494,-1.152266,-2.207247,-0.451105,0.272694,0.867085,98.179191,-88.228810,-102.512057
00952,355936,-3.048292,-0.076612,-1.626676,-0.042646,0.075922,0.716124,100.069528,-89.049712,-104.451726
00953,356136,-2.548716,0.142398,-1.225908,0.236272,0.185925,0.463281,84.237905,-89.590554,-88.348392
00954,356336,-1.791579,0.274721,-1.465787,0.134519,-0.079817,0.277160,120.228417,-89.892735,-124.184974
00955,356536,-0.296102,0.060470,-0.516860,-0.027177,-0.319192,0.258616,-154.614638,-89.531943,150.626483
00956,356736,1.766476,-0.376292,0.567412,0.057446,-0.165707,0.212470,-144.306393,-89.242458,140.383474
00957,356936,7.190315,-1.488601,-2.929384,0.408775,0.133210,0.029781,-134.037328,-89.334772,130.582040
00958,357136,13.656444,-0.188175,-5.212958,0.523292,-0.621533,0.171678,-149.859964,-88.643081,147.006497
00959,357336,26.664422,-3.898300,-5.476120,0.274458,-0.568450,0.033828,-158.296410,-88.033510,155.760932
00960,357536,33.532692,-7.242264,-4.750166,0.816644,-0.862739,0.261283,-159.225257,-86.996722,157.627283
00961,357736,26.499210,-4.295181,1.029823,0.494693,-0.439393,0.203987,-158.069075,-86.436283,157.037075
00962,357936,22.047287,-1.182577,4.562847,1.745764,0.356858,-0.058366,-154.299478,-86.832518,155.265027
00963,358136,19.701736,0.119542,-0.521421,1.947007,0.514404,-0.208095,-150.872630,-87.460909,154.067914
00964,358336,19.052850,1.056648,-1.008073,1.893602,0.047999,-0.413749,-158.314933,-87.710390,163.688679
00965,358536,17.033931,2.107645,0.748614,1.249526,0.155286,-0.608022,-174.067345,-88.049480,-179.115449
00966,358736,13.636890,1.738278,1.440511,0.762273,0.179847,-0.514460,168.335281,-88.225139,-160.634913
00967,358936,9.558964,1.038125,0.305834,0.743376,-0.059310,-0.448977,155.041281,-87.994764,-146.481377
00968,359136,5.980312,0.421006,0.940149,0.896712,0.106872,-0.643050,137.960217,-87.684611,-128.360037
00969,359336,2.220160,-0.091530,1.465289,1.093995,0.590680,-0.826424,113.831114,-87.304385,-102.953780
00970,359536,-1.232074,0.737633,0.374623,0.884084,0.354094,-0.818311,102.285519,-86.533886,-90.377193
00971,359736,-1.416242,1.752318,-0.258270,0.207728,0.331302,-0.719387,95.108470,-85.774506,-82.945434
00972,359936,-2.502856,1.661299,-0.916842,0.064586,0.488160,-0.653612,87.990815,-85.038884,-75.730633
00973,360136,-3.288713,1.435209,-2.366114,0.013710,0.574764,-0.514503,81.525345,-84.389819,-69.221689
00974,360336,-2.821996,1.137064,-3.320129,-0.646342,-0.217889,-0.428460,83.853642,-83.933533,-72.306251
00975,360536,-0.305330,0.707088,-2.374988,-0.861847,-0.962647,-0.408375,93.040865,-83.492409,-82.541839
00976,360736,1.690569,0.920406,-0.001134,-0.405891,-0.502360,-0.437710,97.058002,-82.939542,-87.055182
00977,360936,2.635642,1.564399,0.464353,-0.256694,0.049931,-0.437831,95.905990,-82.444948,-86.189880
00978,361136,8.408530,0.754788,-2.351515,-0.456328,-0.370669,-0.294264,98.205760,-82.055491,-89.038035
00979,361336,16.208397,-0.727567,-7.401096,1.384580,0.246267,0.037959,97.865976,-82.136031,-87.092346
00980,361536,23.739383,2.290501,-5.082323,-0.020990,-0.703148,0.239714,104.046350,-82.250584,-93.353740
00981,361736,33.863646,4.313033,-0.935264,-1.729088,-1.129478,0.261508,111.776488,-82.134271,-103.154909
00982,361936,27.659272,13.808293,2.798447,-1.264557,-0.221856,-0.236568,111.323496,-81.783165,-104.160381
00983,362136,20.308730,6.983377,2.106654,-1.286796,0.657775,-0.072492,104.677708,-81.931084,-98.936241
00984,362336,19.723564,1.128753,1.125573,-1.584965,0.406727,0.155928,99.887145,-82.199568,-95.932855
00985,362536,18.017277,0.204019,0.418354,-1.635775,-0.090886,0.422516,99.416446,-82.654833,-97.348648
00986,362736,14.763770,0.595124,0.992786,-1.377156,-0.153876,0.509002,100.051833,-83.195751,-99.578865
00987,362936,12.409143,0.792493,0.999689,-0.851866,-0.004873,0.504967,100.021998,-83.760585,-100.531187
00988,363136,9.925808,1.341877,0.881919,-0.815585,0.258308,0.493233,97.097544,-84.359680,-98.530504
00989,363336,4.798704,1.101359,0.633187,-1.373246,0.433134,0.561699,90.675516,-85.032135,-93.661286
00990,363536,2.563982,-0.459074,1.342688,-1.172832,0.585340,0.649987,80.353682,-85.720818,-84.654340
00991,363736,-0.335413,-1.362909,0.437704,-0.605832,0.708141,0.643317,65.630801,-86.189165,-70.591042
00992,363936,-3.680438,-2.118660,-1.775070,-0.426037,0.718964,0.686028,47.834239,-86.395491,-53.246826
00993,364136,-5.656317,-1.943141,-3.731115,-0.205108,0.217278,0.788059,33.363024,-86.797639,-38.985663
00994,364336,-3.066153,-0.230363,-3.397697,0.135767,-0.339449,0.797816,20.593292,-87.565875,-26.044954
00995,364536,-1.377981,0.039615,-0.998457,0.534122,-0.287564,0.426288,11.442432,-88.021822,-16.274783
00996,364736,-0.326685,-0.268642,0.394201,0.538474,-0.290177,0.118629,9.843015,-88.376707,-14.057151
00997,364936,0.406241,-0.554297,0.802525,0.217762,-0.202128,0.081167,8.042241,-88.622777,-12.006076
00998,365136,1.984032,-0.401915,-0.870346,0.140378,-0.174850,0.139511,1.874301,-88.839657,-5.675683
00999,365336,7.494101,-0.089305,-3.295764,0.271133,-0.668776,0.066789,-4.826821,-89.609391,1.336663
01000,365536,14.606903,1.110573,-2.499737,0.529629,-0.863464,0.056033,-170.930172,-89.388075,168.047434
01001,365736,24.888145,-3.004265,-5.473692,1.206875,-0.793186,0.139640,-169.483039,-88.459441,167.983313
01002,365936,34.829849,-8.798861,-0.174940,0.452153,-0.759302,0.411353,-162.076998,-87.492648,161.091466
01003,366136,26.850280,-4.208256,2.263529,0.624764,-0.299463,0.166573,-159.888306,-87.100832,159.617226
01004,366336,22.848352,-0.610210,2.222039,1.748905,0.579910,-0.056064,-153.319653,-87.732356,155.048277
01005,366536,20.791839,-0.434460,-1.550267,2.084147,0.350889,-0.254161,-153.141454,-88.218082,157.259843
01006,366736,19.231340,1.227697,-0.086537,1.828438,0.048294,-0.466553,-167.736127,-88.447660,173.956832
01007,366936,16.704579,1.584619,2.124253,1.190116,0.139273,-0.494561,171.598652,-88.626944,-164.007053
01008,367136,13.354302,1.113852,2.296590,0.921682,0.378258,-0.418856,144.869432,-88.857264,-136.215148
01009,367336,8.917638,0.808750,0.873533,1.031253,0.306942,-0.477447,116.941883,-88.668294,-107.099287
01010,367536,4.812480,0.093823,1.690778,1.167054,0.492095,-0.638293,92.300583,-88.089425,-81.110790
01011,367736,-0.324112,0.662903,0.983020,1.172871,0.641522,-0.847397,78.227070,-87.053121,-65.680074
01012,367936,-2.103374,0.506698,-0.853340,0.814891,0.814994,-0.750375,68.524762,-85.958718,-55.024655
01013,368136,-3.853442,1.341482,-1.136120,0.459420,0.310250,-0.575482,67.949536,-85.215543,-53.919632
01014,368336,-3.324146,2.316967,-0.913412,0.299275,0.063141,-0.488494,69.820636,-84.667779,-55.453632
01015,368536,-2.073255,1.853417,-2.767205,0.009526,-0.129658,-0.464225,73.038881,-84.210848,-58.675901
01016,368736,-0.522562,0.745476,-3.867773,-0.452424,-0.582876,-0.434470,79.898630,-83.882445,-66.093661
01017,368936,1.043296,0.168623,-2.495838,-0.447136,-0.682815,-0.438472,86.958224,-83.471665,-73.711412
01018,369136,2.411977,0.561390,0.798452,-0.195171,-0.268124,-0.467432,89.480783,-82.945015,-76.476608
01019,369336,4.993789,1.626810,0.541466,-0.512916,-0.249306,-0.416708,91.128784,-82.464847,-78.730218
01020,369536,11.657679,0.786828,-3.518886,0.071414,-0.327705,-0.218350,93.943605,-82.197187,-81.487338
01021,369736,16.518322,1.598645,-7.065466,1.321672,-0.147071,-0.066190,96.665391,-82.104970,-82.705241
01022,369936,26.506540,2.582846,-6.744422,-1.107910,-0.926231,-0.081165,102.754492,-81.832225,-90.135615
01023,370136,31.980790,8.594307,1.844587,-1.560457,-1.243530,-0.130344,109.942394,-81.282886,-99.208780
01024,370336,23.873162,10.338814,3.759493,-1.215893,-0.180943,-0.173144,109.395600,-81.021394,-100.065039
01025,370536,20.639140,4.344943,2.287387,-1.589395,0.403620,0.039732,104.849680,-81.196324,-97.307017
01026,370736,19.455376,1.879754,0.783831,-1.677805,0.160183,0.227603,102.169460,-81.488501,-96.540431
01027,370936,15.922853,1.566753,0.099607,-1.567424,-0.084511,0.399764,101.685758,-81.912688,-97.866522
01028,371136,13.463991,1.238679,0.396224,-1.395563,-0.231822,0.465228,102.799416,-82.373644,-100.604894
01029,371336,12.146465,0.942418,0.951770,-1.205347,-0.170676,0.521887,103.972372,-82.906688,-103.180174
01030,371536,9.225862,2.011840,1.730909,-1.323510,0.218927,0.517932,101.502416,-83.537239,-102.220167
01031,371736,5.190549,1.419084,1.798672,-1.496172,0.636628,0.478556,93.746085,-84.174714,-96.143658
01032,371936,2.073985,0.482984,0.728634,-1.302260,1.017906,0.424903,80.123043,-84.597261,-83.955026
01033,372136,-1.845786,-1.336953,-0.512668,-0.995398,1.162866,0.537666,63.285292,-84.762474,-68.190864
01034,372336,-4.817335,-2.339425,-2.169105,-0.836629,0.730236,0.773783,49.007113,-85.032750,-54.818800
01035,372536,-4.858756,-1.791700,-2.659761,-0.594580,0.233532,0.848217,37.575629,-85.506059,-44.032045
01036,372736,-3.534986,-0.782265,-3.105412,-0.177076,0.044502,0.700761,28.051670,-85.900389,-34.684699
01037,372936,-2.099052,-0.391104,-2.956569,0.323690,-0.343772,0.378996,25.310020,-86.449314,-31.565016
01038,373136,0.061992,-0.379280,-1.286258,0.290535,-0.691466,0.182526,28.874127,-87.252348,-34.800822
01039,373336,2.018972,-0.947659,1.597122,0.105637,-0.495165,0.221810,30.469163,-87.872894,-36.275998
01040,373536,5.890491,-1.347762,0.045487,0.199157,0.058573,0.230604,23.487502,-87.935043,-29.061207
01041,373736,10.984518,0.171523,-3.292907,0.368631,-0.393858,0.291730,19.297194,-88.480681,-24.446171
01042,373936,18.785486,0.835916,-5.317718,0.439504,-0.744982,0.296273,16.789216,-89.402333,-21.434039
01043,374136,30.207055,-1.712050,-3.052431,1.457370,-0.817464,0.167111,-177.648506,-89.626915,174.673276
01044,374336,31.436578,-7.619033,1.417932,0.961237,-0.547323,0.182979,-166.558012,-88.968937,164.683823
01045,374536,24.350756,-3.003513,4.555208,1.052436,0.028689,0.036906,-162.511549,-88.985022,161.843049
01046,374736,21.232339,0.307933,1.095680,1.773937,0.507373,-0.087786,-148.781833,-89.555122,150.145455
01047,374936,20.276635,0.180823,-0.838512,2.132231,0.216164,-0.230143,171.365376,-89.866857,-167.557930
01048,375136,18.089836,1.877213,1.193823,1.447437,0.266857,-0.309047,66.054692,-89.592111,-60.588042
01049,375336,14.694407,2.248234,2.683195,1.087247,0.296239,-0.334268,57.216777,-89.094075,-50.503577
01050,375536,11.046931,1.758671,1.331011,1.075911,0.077751,-0.292081,63.252210,-88.760713,-55.306847
01051,375736,7.363327,1.236352,1.294491,0.960004,0.062027,-0.315594,67.828280,-88.403128,-58.783806
01052,375936,2.411320,0.603686,1.162639,1.053639,0.369711,-0.506386,64.548122,-87.701604,-54.293681
01053,376136,-0.153094,0.809972,0.690863,0.894528,0.397277,-0.610105,63.422700,-86.874175,-52.140774
01054,376336,-2.048666,0.995593,-0.236636,0.668216,0.582377,-0.463930,58.867211,-86.086110,-46.809571
01055,376536,-3.635908,1.514131,-0.636780,0.586213,0.653126,-0.378344,54.409747,-85.311855,-41.665914
01056,376736,-4.091219,2.466150,-1.558010,0.225145,0.183376,-0.291205,54.939774,-84.917951,-41.938804
01057,376936,-2.151697,2.490157,-2.981432,-0.465974,-0.317421,-0.300168,59.916125,-84.823389,-47.471040
01058,377136,-0.306677,1.380858,-3.925419,-0.641091,-0.610084,-0.431375,68.428692,-84.681938,-56.756704
01059,377336,1.371939,0.144999,-2.292233,-0.067166,-0.693941,-0.454163,77.956307,-84.411693,-66.404378
01060,377536,3.159047,0.398593,2.178038,-0.306018,-0.050263,-0.444491,79.179382,-83.922293,-67.986006
01061,377736,7.560802,1.520055,-0.820443,-0.915711,-0.610066,-0.361451,85.023672,-83.605637,-74.920225
01062,377936,16.073315,1.184090,-7.127366,0.867388,-0.479761,-0.199790,90.956345,-83.393963,-79.890303
01063,378136,22.960831,4.392730,-5.768117,0.346345,-0.898995,-0.049870,100.114350,-83.234146,-88.710495
01064,378336,33.143119,2.883255,-1.651738,-1.424331,-1.383079,-0.075941,110.765531,-82.721497,-101.085297
01065,378536,25.378210,10.866231,1.224825,-1.054187,-0.809499,-0.344705,114.816911,-81.991045,-106.391333
01066,378736,20.925617,6.782231,2.937613,-1.564765,0.081422,-0.092619,112.130878,-81.924118,-105.489408
01067,378936,21.082857,1.754860,0.835460,-1.728943,0.118856,0.267361,110.037977,-82.252769,-105.376594
01068,379136,18.215553,1.691727,-0.481370,-1.810858,-0.275297,0.586242,112.043943,-82.760842,-109.492731
01069,379336,14.124002,2.194303,0.362861,-1.621831,-0.254267,0.583090,114.524272,-83.253813,-113.864084
01070,379536,12.028715,1.842863,0.398991,-1.162141,-0.296319,0.473186,117.906670,-83.584684,-118.609591
01071,379736,10.267568,0.388646,0.455226,-0.913701,-0.149447,0.458063,120.567795,-83.953815,-122.339968
01072,379936,6.611966,-0.513009,1.052420,-1.047493,0.300054,0.575002,119.689088,-84.691393,-122.663432
01073,380136,2.871312,-0.177425,1.489159,-1.091756,0.834517,0.618561,111.803125,-85.742400,-116.005939
01074,380336,-1.062560,-0.882507,-0.276875,-0.683618,1.083120,0.555919,95.016215,-86.654306,-99.968223
01075,380536,-4.496753,-2.236794,-1.975744,-0.368204,0.866322,0.781235,73.573358,-87.456169,-78.920645
01076,380736,-5.542069,-1.929704,-2.090434,-0.262674,0.369132,0.938408,49.842288,-88.216264,-55.474777
01077,380936,-3.189081,-0.621657,-2.107103,0.000034,-0.095414,0.805714,23.107836,-88.870675,-28.732322
01078,381136,-1.588587,0.038590,-1.433189,0.393939,-0.136650,0.475539,-5.917517,-89.117094,0.748765
01079,381336,-0.620054,-0.026986,-0.980902,0.483009,-0.181661,0.136834,-19.536589,-89.290291,14.922669
01080,381536,-0.071524,-0.459323,-0.145754,0.306177,-0.257165,0.065538,-39.399885,-89.517244,35.137843
01081,381736,2.677844,-1.020040,-0.483118,0.308291,-0.180719,0.116126,-69.201326,-89.534320,65.293527
01082,381936,8.933884,-0.993476,-2.821439,0.577081,-0.613925,0.111015,-133.616765,-89.223027,130.373092
01083,382136,18.223042,-0.295350,-2.282436,0.721021,-0.850332,0.254242,-150.054728,-88.264110,147.640727
01084,382336,29.570188,-3.350103,-6.261579,0.960010,-1.126545,0.421215,-153.439309,-86.893305,152.129035
01085,382536,31.136370,-6.039533,-2.610498,0.208446,-0.900787,0.440064,-153.405109,-85.739510,152.334068
01086,382736,24.504997,-2.358239,1.934490,0.671286,-0.379778,0.094683,-153.879152,-85.297088,153.581150
01087,382936,22.582120,-0.564422,2.111661,1.565314,0.285602,-0.170249,-152.430688,-85.673858,153.927503
01088,383136,20.093313,0.160787,-2.220388,1.939537,0.041189,-0.365703,-155.041645,-85.898399,158.774100
01089,383336,17.359679,0.813428,-1.736169,1.486023,-0.072590,-0.494579,-161.253842,-86.028986,166.708783
01090,383536,15.224308,0.950418,0.244580,1.207984,-0.003524,-0.563138,-169.076142,-86.187690,175.936535
01091,383736,12.557942,0.154712,0.592435,0.928174,0.183108,-0.481244,-176.120716,-86.464722,-175.938618
01092,383936,8.513193,0.325926,0.634488,0.784652,0.141278,-0.428416,176.650282,-86.626844,-167.795678
01093,384136,3.677763,1.556925,1.870278,0.808129,0.243331,-0.551715,165.926234,-86.805737,-156.126528
01094,384336,0.713587,1.333905,0.868875,0.605690,0.661190,-0.552897,149.685588,-87.271279,-139.169597
01095,384536,-1.956935,0.857464,-0.478221,0.351984,0.642694,-0.551233,129.299486,-87.421501,-118.358302
01096,384736,-3.612746,0.892415,-0.862284,0.311875,0.641441,-0.580549,109.028412,-87.193098,-97.707514
01097,384936,-3.916421,1.167250,-1.394611,0.227402,0.446967,-0.684861,96.963550,-86.537806,-85.363850
01098,385136,-2.180039,1.265422,-2.687417,-0.132353,-0.029704,-0.624242,96.137275,-85.821071,-84.687600
01099,385336,-0.224987,1.084741,-2.550480,-0.543278,-0.277851,-0.526712,98.586307,-85.178884,-87.768415
01100,385536,0.352809,0.867525,-1.462269,-0.240272,-0.150539,-0.528364,99.204449,-84.551102,-88.665211
01101,385736,1.026182,0.655160,-0.202889,-0.168631,-0.002195,-0.566714,98.103230,-83.905680,-87.752321
01102,385936,5.432766,1.516281,-1.707227,-0.762892,-0.460880,-0.516838,101.010062,-83.230255,-91.556887
01103,386136,13.027646,-0.956758,-6.164324,0.653101,-0.213107,-0.230635,103.307685,-82.917297,-93.116902
01104,386336,19.432302,2.237759,-6.264621,1.451566,-0.016880,-0.138933,104.863495,-82.754699,-93.007711
01105,386536,32.975265,1.452756,-1.484212,-0.836085,-1.095599,0.045101,113.197020,-82.389693,-102.376781
01106,386736,29.481086,10.267959,0.175543,-0.631892,-0.825776,-0.322481,117.477855,-81.644743,-107.429959
01107,386936,20.185932,9.069000,1.474241,-1.210460,0.333029,-0.261702,112.912661,-81.529339,-104.216978
01108,387136,19.335065,3.041254,1.436073,-1.470086,0.323993,0.132259,109.253650,-81.798254,-102.221234
01109,387336,19.086642,1.735464,0.944873,-1.613821,0.046798,0.388339,108.073270,-82.231409,-102.896510
01110,387536,15.588286,2.270117,0.349756,-1.526538,-0.047167,0.473767,108.000099,-82.725383,-104.587039
01111,387736,14.133288,2.152038,0.695548,-1.532045,-0.115416,0.535698,108.854310,-83.260552,-107.216429
01112,387936,11.651324,0.934504,0.442986,-1.193081,-0.018970,0.542997,109.482622,-83.835889,-109.224635
01113,388136,9.565808,0.103904,0.849319,-1.092055,0.217969,0.548755,107.892045,-84.506632,-108.883772
01114,388336,5.988251,-0.321410,1.130087,-1.440577,0.776625,0.648808,98.310849,-85.430148,-100.923139
01115,388536,2.433844,-1.110154,1.042621,-1.105751,0.966155,0.564034,82.130644,-86.082360,-85.969794
01116,388736,-1.421408,-1.872259,0.110990,-0.452828,0.846874,0.589447,64.352382,-86.450566,-68.674335
01117,388936,-4.213382,-1.466517,-1.055564,-0.255885,0.740247,0.697302,44.975042,-86.612339,-49.555765
01118,389136,-5.128293,-1.059388,-2.884567,-0.143727,0.322844,0.767056,28.624276,-86.844892,-33.343523
01119,389336,-3.818937,-0.532718,-3.554777,0.104517,-0.078889,0.791206,12.927773,-87.256670,-17.506494
01120,389536,-2.647470,0.145024,-3.433976,0.483061,-0.342201,0.602316,-1.249221,-87.724230,-2.761966
01121,389736,-0.725206,0.535385,-0.659942,0.475032,-0.826521,0.276735,-14.657768,-88.629173,11.197566
01122,389936,2.780018,-0.065504,3.370538,0.140195,-0.374043,0.086786,-26.192154,-89.001642,22.895040
01123,390136,6.720490,-1.323031,-0.526821,0.119339,0.101681,-0.041723,-21.029585,-88.917541,17.868408
01124,390336,11.494716,0.142405,-4.282992,0.151544,-0.556749,0.101847,-53.573400,-89.377502,50.589065
01125,390536,18.464952,-0.898332,-4.198023,0.320609,-0.735411,0.204457,-122.881489,-89.126474,120.268977
01126,390736,27.400472,-4.959288,-1.488092,0.589165,-0.727153,0.334201,-139.132783,-88.278492,137.199222
01127,390936,28.989646,-6.542914,0.971244,0.488046,-0.894938,0.204230,-149.266870,-87.301159,147.900167
01128,391136,25.263922,-2.970265,2.952311,1.278367,-0.246712,-0.184162,-154.400371,-87.147346,154.506430
01129,391336,22.745312,-1.643876,0.571575,1.844799,0.356971,-0.395750,-157.809261,-87.702011,160.035006
01130,391536,21.064066,-0.577162,-0.787968,1.604347,0.141665,-0.328933,-163.979068,-87.975928,168.049109
01131,391736,18.322908,1.546200,0.801712,0.940973,0.221467,-0.387555,-174.901016,-88.305837,-179.944273
01132,391936,15.291730,1.628748,1.375647,0.907468,0.299740,-0.452478,165.882496,-88.610395,-159.680638
01133,392136,12.180177,0.349787,0.184837,1.105569,0.135659,-0.437722,146.097660,-88.546131,-138.622430
01134,392336,9.095306,-0.035572,1.421101,1.064770,0.150615,-0.606084,125.609953,-88.179709,-116.905882
01135,392536,5.151023,-0.086606,2.102302,0.884739,0.462381,-0.675044,104.144588,-87.692479,-94.412510
01136,392736,0.170675,-0.167239,0.501840,0.819339,0.586361,-0.661805,88.770212,-87.008924,-78.082175
01137,392936,-2.185792,0.327329,-0.482460,0.580977,0.399408,-0.629008,82.605451,-86.255742,-71.239912
01138,393136,-3.122546,1.210011,-0.278845,0.289027,0.618723,-0.550629,74.988784,-85.498202,-63.271571
01139,393336,-4.208639,1.931185,-1.067423,0.147842,0.395190,-0.409097,71.599735,-84.919251,-59.700591
01140,393536,-3.938955,2.539820,-3.740815,-0.296797,-0.284362,-0.408940,76.096889,-84.559493,-64.558091
01141,393736,-1.692653,2.049176,-4.801847,-0.760520,-1.189268,-0.487450,89.701732,-84.169840,-79.103651
01142,393936,0.599672,1.303510,-2.505605,-0.122935,-1.349580,-0.556404,103.041662,-83.357079,-92.663285
01143,394136,3.050029,-0.154738,2.610544,0.462457,-0.214923,-0.666655,104.080045,-82.554793,-93.175286
01144,394336,3.318956,-1.115528,2.712180,-0.260323,0.167028,-0.552199,101.393383,-81.978388,-90.764807
01145,394536,8.913940,0.466505,-3.383835,-0.502697,-0.547200,-0.255246,104.603579,-81.550859,-94.590067
01146,394736,16.678526,0.887252,-8.831476,1.514587,-0.352890,0.015326,108.995509,-81.449142,-97.275164
01147,394936,26.086468,3.465307,-4.918739,0.164740,-1.461487,0.155312,119.548371,-80.918316,-107.761515
01148,395136,36.993307,5.259368,-0.854853,-1.744987,-1.267532,0.288619,126.094628,-80.404632,-116.421050
01149,395336,27.531972,12.093187,-0.814532,-1.042068,-0.603866,-0.191779,127.339658,-79.809992,-118.896681
01150,395536,21.702508,5.866762,2.190005,-1.517441,0.160076,0.065805,125.023046,-79.974649,-118.309805
01151,395736,20.298590,1.205843,-0.066372,-1.483462,0.044851,0.369030,124.471397,-80.347635,-119.475223
01152,395936,16.435013,-0.012771,-1.795911,-1.624778,-0.165898,0.685892,126.303815,-80.875273,-123.219558
01153,396136,12.471499,-0.352634,-1.370668,-1.407851,-0.412617,0.847389,130.931213,-81.336627,-129.535947
01154,396336,10.049415,-0.331046,-0.300513,-0.802023,-0.609118,0.795757,137.550177,-81.500753,-137.159017
01155,396536,7.794366,-0.472186,0.957138,-0.595222,-0.170701,0.681524,141.806029,-81.855344,-142.149392
01156,396736,3.747232,0.371855,1.697361,-0.920138,0.459365,0.709539,143.150505,-82.766737,-144.570024
01157,396936,-0.937652,0.695803,1.492787,-0.946018,0.736393,0.691076,143.152801,-83.915656,-145.663837
01158,397136,-3.391363,-0.500601,0.207723,-0.633658,0.842263,0.662818,142.667444,-85.142373,-145.905788
01159,397336,-4.594559,-1.494047,-1.208472,-0.315049,0.724220,0.713309,144.509964,-86.294337,-148.115395
01160,397536,-4.028532,-1.186836,-2.328607,-0.035645,0.429211,0.771337,153.292252,-87.172944,-156.952522
01161,397736,-1.812615,-0.292771,-2.006889,0.185038,0.046419,0.514776,164.817064,-87.432584,-168.277672
01162,397936,0.439669,-0.079248,0.363143,0.223930,-0.060826,0.244116,171.482382,-87.419753,-174.692800
01163,398136,0.655440,0.329681,0.307358,0.051703,0.139848,0.206771,176.570321,-87.602067,-179.726202
01164,398336,1.019903,0.653615,-0.960028,0.017691,0.103016,0.233647,-176.879899,-87.718962,173.738871
01165,398536,5.891586,-1.071524,-3.152270,0.168352,-0.135987,0.236786,-170.609575,-87.531499,167.656290
01166,398736,11.142640,-0.181974,-4.252249,0.261091,-0.507316,0.459587,-162.645407,-86.839028,159.982236
01167,398936,21.960923,-2.733617,-7.173280,0.916050,-0.725844,0.299869,-160.606871,-85.936303,158.991531
01168,399136,36.940729,-8.338306,-1.565814,1.211018,-0.881063,0.224763,-160.388666,-84.893300,160.165031
01169,399336,28.882393,-5.440552,-0.902319,0.533328,-0.268086,0.252488,-158.020488,-84.498125,158.400855
01170,399536,21.912766,0.149528,3.303942,1.368319,0.413500,0.060816,-153.657951,-84.898205,155.594698
01171,399736,18.842442,1.397685,-2.180168,1.856331,0.454882,-0.190390,-150.935741,-85.457384,154.997874
01172,399936,17.712480,1.095683,-2.454667,1.841954,-0.074800,-0.597796,-157.254348,-85.676469,163.452641
01173,400136,17.767832,0.555127,1.173514,1.381429,0.114284,-0.733094,-166.144948,-86.063439,173.953567
01174,400336,15.439892,-0.378855,1.624405,1.104397,0.242520,-0.540266,-173.414083,-86.446048,-177.493325
01175,400536,10.695082,-0.415889,0.649827,1.190148,0.151308,-0.463767,179.331698,-86.646054,-168.859406
01176,400736,5.704258,-0.559016,1.545181,1.166809,0.433322,-0.566601,167.926652,-87.069893,-156.098064
01177,400936,0.324303,-0.163852,1.277052,1.209393,0.513158,-0.723768,149.113184,-87.318014,-135.874755
01178,401136,-1.280025,0.599797,0.698260,0.800650,0.460038,-0.666234,130.578062,-87.228800,-116.400325
01179,401336,-2.949162,2.046115,-0.330003,0.406533,0.353912,-0.597064,117.063687,-86.884812,-102.401739
01180,401536,-4.031689,2.114779,-1.750275,0.345082,0.356932,-0.350966,108.013324,-86.669989,-92.940958
01181,401736,-3.869872,2.123017,-3.463794,0.398687,0.045986,-0.396016,105.557466,-86.250380,-90.022570
01182,401936,-1.055556,1.531792,-2.982803,-0.026334,-0.643585,-0.497960,112.608448,-85.467565,-97.121893
01183,402136,2.253900,0.629793,-0.412067,-0.373023,-0.609971,-0.483850,116.871735,-84.669547,-101.829765
01184,402336,2.674617,0.363651,0.469689,-0.031994,0.114423,-0.448848,113.373669,-84.258109,-98.352003
01185,402536,1.496558,0.408891,0.501688,-0.021791,0.351272,-0.528070,107.712236,-83.831098,-92.684880
01186,402736,4.727385,2.568206,-0.038993,-0.742232,-0.032776,-0.454354,105.858050,-83.320262,-91.674767
01187,402936,11.829314,1.064382,-6.022511,0.166173,-0.382914,-0.265150,108.789358,-82.897557,-94.435250
01188,403136,20.123241,2.357026,-11.459399,1.987205,-0.141072,-0.061830,112.117023,-82.771777,-95.493356
01189,403336,31.736311,-0.308223,-2.176015,-1.130201,-0.977431,0.110675,119.055567,-82.399113,-103.795449
01190,403536,30.758761,8.932766,0.302697,-1.389570,-1.333721,-0.236940,125.527586,-81.346635,-111.940589
01191,403736,24.761292,12.280072,2.502191,-1.680706,-0.128086,-0.052762,124.167665,-81.207811,-112.513216
01192,403936,21.260782,4.328397,1.552467,-1.539885,0.550105,0.129740,119.364725,-81.661081,-109.440770
01193,404136,18.721059,0.728309,-0.145589,-1.655006,0.168014,0.282623,117.360777,-82.032989,-109.332329
01194,404336,15.364299,-0.734817,-0.438765,-1.631935,-0.341075,0.488785,119.948035,-82.333521,-113.831482
01195,404536,12.717740,-0.795130,0.342443,-1.399126,-0.561765,0.663126,125.561797,-82.621815,-121.111106
01196,404736,10.601843,-0.437264,1.151963,-1.143824,-0.311812,0.779375,130.903633,-83.100702,-127.815625
01197,404936,7.478026,0.956649,0.724915,-1.007343,0.026619,0.734614,134.494956,-83.738550,-132.592844
01198,405136,4.102114,2.149046,1.942670,-1.289303,0.380071,0.647910,135.088040,-84.570539,-134.674432
01199,405336,1.032714,0.716157,1.744019,-1.203058,0.768231,0.678670,132.537844,-85.739604,-133.499037
01200,405536,-1.731891,-0.375355,-0.065266,-0.949693,0.734252,0.746073,130.410619,-86.935836,-132.458274
01201,405736,-4.451404,-2.078489,-2.018852,-0.638746,0.677688,0.808250,129.676678,-88.142924,-132.456416
01202,405936,-5.655653,-2.421009,-3.532389,-0.147758,0.012228,0.722671,152.595408,-88.682779,-155.552862
01203,406136,-3.145563,-0.926695,-2.734244,0.101885,-0.366986,0.711242,-172.479269,-88.394275,169.628024
01204,406336,-0.523880,0.117230,-0.986780,0.177743,-0.211160,0.437563,-158.667141,-88.030973,156.013055
01205,406536,0.900893,0.391138,0.815236,0.246927,-0.163341,0.226213,-154.021480,-87.754382,151.647369
01206,406736,1.312499,0.311985,1.292152,0.190334,-0.053077,0.337017,-146.465333,-87.509028,144.303033
01207,406936,4.268153,-1.465011,-0.989650,0.180281,0.089323,0.284860,-139.063329,-87.392236,137.100473
01208,407136,11.194016,-1.006625,-3.921930,0.330278,-0.346755,0.402343,-137.191436,-86.787361,135.605092
01209,407336,18.438597,-0.310279,-6.764936,0.406955,-0.553370,0.302232,-139.398486,-86.081045,138.283489
01210,407536,28.805537,-4.110650,-7.167913,1.314009,-1.064539,-0.063796,-148.103905,-85.132556,148.524176
01211,407736,34.129730,-7.888395,1.516032,1.290898,-0.188934,0.130485,-146.531344,-84.865225,148.430637
01212,407936,26.546244,-4.128582,3.767844,1.264301,0.091030,0.004612,-144.362658,-84.944686,147.708136
01213,408136,23.156354,-0.078770,0.370571,1.518687,0.638414,0.122392,-135.769327,-85.413593,140.831124
01214,408336,19.907727,1.608486,-2.243888,1.833873,0.260177,-0.155154,-132.507272,-85.746296,139.667197
01215,408536,17.706009,2.706779,-0.456975,1.505038,0.103241,-0.561066,-136.026547,-86.288110,144.923794
01216,408736,15.592191,-0.022820,1.965086,1.288411,0.094022,-0.573369,-141.573711,-86.801782,151.960138
01217,408936,11.504569,-0.941710,1.685421,1.309183,0.081516,-0.488111,-147.755143,-87.201611,159.652349
01218,409136,7.051285,-1.202420,1.836272,1.190489,0.117523,-0.414544,-154.004355,-87.550844,167.273835
01219,409336,1.896687,-0.444738,1.628704,0.927007,0.215148,-0.371165,-160.463864,-87.943749,174.801520
01220,409536,-3.237675,1.100198,0.337143,0.894845,0.139577,-0.428194,-172.563664,-88.215957,-172.065875
01221,409736,-4.051798,2.709987,0.040806,0.359649,0.180221,-0.617070,163.458715,-88.369767,-147.665594
01222,409936,-4.051746,2.696026,-1.217835,0.155585,0.278290,-0.703187,134.549179,-88.223226,-118.565489
01223,410136,-2.903315,1.752833,-2.579695,0.292088,0.146578,-0.465636,121.233127,-87.901663,-104.907073
01224,410336,-1.009275,0.982243,-3.220984,0.180611,-0.270915,-0.426645,121.680054,-87.320539,-105.147255
01225,410536,0.942374,0.265362,-2.465706,0.076134,-0.550589,-0.510645,125.508777,-86.481105,-108.894100
01226,410736,2.513894,-0.368034,-0.081263,0.350903,-0.107692,-0.574558,121.989627,-85.862424,-104.964107
01227,410936,1.745924,-0.575590,1.168918,0.095450,0.222001,-0.533815,115.309656,-85.444963,-98.155225
01228,411136,4.709172,2.394778,-1.562007,-0.772308,-0.244426,-0.469815,114.743154,-84.836191,-98.474836
01229,411336,14.674073,2.024663,-6.197589,0.077850,-0.563032,-0.218133,119.694700,-84.314980,-103.358821
01230,411536,24.290077,5.330078,-6.507423,1.260451,-0.030040,-0.000764,121.459410,-84.291830,-103.680571
01231,411736,34.727294,1.615088,-1.784478,-1.262845,-0.631276,0.026726,126.026816,-83.910327,-109.726845
01232,411936,26.669187,8.616805,-3.686765,-1.472047,-0.977773,-0.262470,130.394615,-82.973222,-115.821133
01233,412136,22.010783,8.166389,3.499362,-1.853997,-0.192232,-0.017131,129.513517,-82.809948,-117.074555
01234,412336,21.267233,1.531034,1.694687,-1.558397,0.107425,0.170139,127.921242,-83.033073,-117.270001
01235,412536,17.935344,-0.498216,-1.925627,-1.859614,-0.364928,0.443347,131.110486,-83.153589,-122.629433
01236,412736,14.252722,-1.111860,-1.495890,-1.925260,-0.621075,0.731720,138.086264,-83.246472,-131.876582
01237,412936,11.267936,-0.759752,-0.633927,-1.445861,-0.704891,0.859126,147.134964,-83.198327,-142.657463
01238,413136,8.870331,-0.263103,0.193546,-0.940306,-0.581580,0.830404,155.630649,-83.065496,-152.299997
01239,413336,6.148406,0.906888,1.778872,-1.100472,-0.009283,0.787023,161.441328,-83.384146,-159.421859
01240,413536,1.473300,0.896785,2.734400,-1.200955,0.391394,0.745362,166.354749,-84.052026,-165.749897
01241,413736,-1.214202,-0.341461,1.987060,-0.957309,0.594506,0.652233,171.423913,-84.865778,-171.945347
01242,413936,-3.480458,-1.167580,-0.224574,-0.671996,0.566241,0.574355,177.715584,-85.575784,-179.031943
01243,414136,-5.226096,-1.793548,-2.246441,-0.323776,0.366631,0.606505,-173.061579,-85.968920,171.347897
01244,414336,-4.005366,-1.285109,-3.812447,-0.073309,0.136560,0.608477,-163.023442,-85.977105,161.200594
01245,414536,-1.985218,-0.128463,-3.650651,0.181256,-0.225622,0.364538,-158.654678,-85.594403,157.028037
01246,414736,0.588834,0.331065,-0.437484,0.252205,-0.411459,0.104853,-159.116837,-85.110191,157.781394
01247,414936,1.800392,0.688034,1.639657,0.063920,-0.021499,0.054112,-158.512555,-85.064278,157.248094
01248,415136,2.506433,0.471606,0.588794,0.144871,0.222840,0.019128,-156.999062,-85.292133,155.895520
01249,415336,6.809310,-2.263464,-3.556176,0.498803,0.006516,-0.128875,-158.098183,-85.354222,157.571561
01250,415536,15.653628,-2.065320,-3.358827,0.543026,-0.441209,0.097708,-158.476281,-84.841093,158.575381
01251,415736,23.389275,-4.043059,-9.915294,0.962423,-0.451604,0.172052,-157.518382,-84.283114,158.720837
01252,415936,33.766653,-7.701574,-5.113287,1.501046,-0.541457,0.258534,-155.576459,-83.590632,158.497807
01253,416136,29.364257,-5.423802,0.471690,1.032543,-0.017741,0.054772,-153.965546,-83.540598,158.067624
01254,416336,23.957606,-0.268532,1.462484,1.537874,0.545861,-0.166503,-151.091723,-84.179832,156.949931
01255,416536,21.445340,2.613930,-2.069855,1.753647,0.489328,-0.237227,-148.606558,-84.797956,156.472200
01256,416736,19.054538,2.946292,-1.495243,1.744712,0.226951,-0.477261,-150.547759,-85.296729,160.427399
01257,416936,16.491041,1.911416,0.747143,1.447656,0.172120,-0.606732,-155.724545,-85.785720,167.283673
01258,417136,13.556718,-0.093825,1.312031,1.049283,0.273550,-0.484655,-160.276561,-86.283503,173.051790
01259,417336,9.099799,-0.728456,0.933410,1.087730,0.259805,-0.438573,-165.463783,-86.715441,179.497433
01260,417536,4.433455,-0.360306,2.290980,0.953045,0.433225,-0.466942,-172.639796,-87.305333,-172.223276
01261,417736,-1.005422,0.559172,1.570964,0.840628,0.503909,-0.518991,174.286439,-87.895389,-158.174168
01262,417936,-2.496100,1.765269,0.302232,0.520782,0.434542,-0.572633,152.131674,-88.187813,-135.409754
01263,418136,-3.576223,2.281784,-0.767431,0.208281,0.428493,-0.620992,125.693778,-88.086109,-108.719634
01264,418336,-3.926436,1.881838,-1.256847,0.076552,0.375102,-0.505083,107.938176,-87.757262,-90.864883
01265,418536,-2.390957,1.072373,-2.496053,-0.026376,0.006490,-0.472211,104.323547,-87.236555,-87.277129
01266,418736,0.017860,0.125172,-2.733933,-0.288812,-0.348378,-0.462812,108.372802,-86.611909,-91.663582
01267,418936,1.610105,-0.052617,-2.008390,-0.288965,-0.263571,-0.402360,110.152061,-86.073822,-93.778208
01268,419136,1.635728,0.517166,-1.044315,-0.168456,0.015800,-0.388592,107.750544,-85.655218,-91.563910
01269,419336,2.594394,2.518361,-0.778892,-0.566536,-0.145998,-0.392868,107.419945,-85.171676,-91.883480
01270,419536,8.799601,1.111464,-4.434576,-0.410436,-0.620290,-0.249352,113.350115,-84.651030,-98.309045
01271,419736,16.504549,2.150434,-7.909126,1.390239,-0.141190,-0.014819,116.467203,-84.561922,-99.839528
01272,419936,27.625557,2.588525,-0.950878,-0.783860,-0.731795,0.050550,123.287162,-84.187767,-107.594697
01273,420136,31.485745,5.211338,-2.764317,-1.175350,-1.036840,-0.185744,129.540041,-83.302444,-115.239500
01274,420336,22.971160,9.435290,-0.701036,-1.469426,-0.581434,-0.120536,131.276190,-82.756898,-118.685118
01275,420536,22.018278,4.283903,3.617469,-1.647911,0.178779,0.270979,129.746284,-83.118422,-119.046776
01276,420736,20.924678,1.687788,0.730666,-1.620076,-0.040033,0.437276,130.925892,-83.463785,-122.104289
01277,420936,17.554968,1.392880,-0.492400,-1.816651,-0.325449,0.581862,135.287403,-83.689547,-128.588736
01278,421136,13.848031,1.494422,0.317350,-1.930648,-0.378179,0.665989,140.912097,-83.871254,-136.472760
01279,421336,11.417062,0.877011,0.801635,-1.642593,-0.168545,0.731054,146.550311,-84.207028,-144.034780
01280,421536,8.647086,0.618542,0.577644,-1.250263,0.075115,0.759755,152.347839,-84.720929,-151.299542
01281,421736,4.838065,0.493871,0.749349,-1.333679,0.240256,0.721238,158.034455,-85.316041,-158.542442
01282,421936,2.695165,-0.355654,1.236384,-1.247257,0.556859,0.726195,164.362225,-86.188812,-166.321291
01283,422136,0.015269,-1.770786,-0.105852,-0.763900,0.635407,0.643280,173.244388,-87.048910,-176.096064
01284,422336,-2.476305,-2.466424,-1.944407,-0.294060,0.459363,0.708589,-169.550015,-87.555153,166.341962
01285,422536,-3.883190,-1.505078,-2.004581,-0.208188,0.432734,0.767379,-145.618786,-87.682467,142.151589
01286,422736,-3.834550,0.199065,-1.984666,-0.188453,0.314572,0.674677,-126.994428,-87.407773,123.294047
01287,422936,-2.859080,1.049912,-1.685636,-0.117415,-0.012002,0.413804,-121.933274,-87.011721,118.091910
01288,423136,-1.105169,1.128700,-0.904522,-0.083177,-0.377285,0.240528,-125.755107,-86.544962,121.823936
01289,423336,0.665662,0.313166,0.100916,-0.270809,-0.438390,0.134395,-130.795843,-86.115438,126.563623
01290,423536,5.071276,-1.004819,-0.937525,-0.140331,-0.155617,-0.084283,-133.903976,-86.068962,129.517406
01291,423736,10.070378,-0.639243,-3.995714,0.035837,-0.526588,-0.028401,-139.958745,-85.650931,135.628663
01292,423936,16.014015,-1.743587,-7.782772,-0.049269,-0.741052,0.066374,-145.590605,-84.926845,141.222286
01293,424136,27.569334,-5.606672,-4.865887,0.862877,-0.702852,-0.011160,-149.345870,-84.251296,145.987013
01294,424336,35.288088,-7.768060,2.297074,1.011834,-0.243225,0.274452,-147.059425,-83.846188,144.853735
01295,424536,24.950116,-3.569305,0.000306,1.095449,0.048583,0.024472,-145.319235,-83.874630,144.365928
01296,424736,20.946875,-0.852673,-0.718338,1.694410,0.361060,-0.228545,-143.111112,-84.361540,144.097954
01297,424936,20.007459,0.705644,-1.583430,1.810462,0.191142,-0.484546,-144.439546,-84.864989,147.515950
01298,425136,18.754105,1.073286,-0.208449,1.258932,0.164090,-0.605360,-148.607270,-85.403954,153.146350
01299,425336,15.880668,0.367357,1.408594,1.114800,0.101938,-0.460509,-152.570631,-85.764609,158.402591
01300,425536,11.970183,0.239173,0.254763,1.137558,-0.014804,-0.358581,-156.506235,-85.925647,163.655379
01301,425736,8.578199,-0.349150,1.309853,1.088710,0.084089,-0.461616,-161.983439,-86.203482,170.395879
01302,425936,3.580608,-0.245630,2.528573,1.157911,0.490011,-0.563243,-168.708741,-86.912041,178.462333
01303,426136,-0.321384,0.544301,1.324737,1.159118,0.539979,-0.704978,176.632007,-87.592088,-165.532334
01304,426336,-2.143684,1.227507,-0.406148,0.767171,0.771840,-0.680552,149.689582,-88.230911,-137.693514
01305,426536,-3.592070,1.580172,-0.998561,0.353275,0.830831,-0.547019,111.093134,-88.376726,-98.676559
01306,426736,-4.435538,2.461460,-2.179503,-0.004586,0.452152,-0.266505,92.103740,-88.175698,-79.684108
01307,426936,-2.892537,2.778630,-3.283457,-0.412076,-0.396990,-0.419207,102.367892,-87.635358,-90.427582
01308,427136,-0.175385,1.817290,-3.102166,-0.471574,-0.886812,-0.573236,116.710158,-86.663238,-105.328073
01309,427336,1.787592,0.540852,-1.108209,-0.140856,-0.604226,-0.700713,119.943549,-85.622179,-108.730579
01310,427536,2.759180,-0.576501,1.033759,0.228268,0.139464,-0.767149,113.697751,-84.903785,-102.201197
01311,427736,3.591080,0.393181,-0.935279,-0.177172,-0.005792,-0.613053,110.769727,-84.246007,-99.464058
01312,427936,10.301410,-1.948862,-6.128458,0.322782,-0.449202,-0.360546,114.165749,-83.662711,-102.506902
01313,428136,18.386534,1.186465,-10.869863,1.933346,-0.171405,0.216781,119.035961,-83.791198,-105.177190
01314,428336,31.914764,2.639205,4.144281,-1.578222,-1.236165,0.516728,130.715108,-83.459497,-118.747821
01315,428536,32.142185,9.746708,-1.321490,-1.134493,-0.702715,-0.158339,133.366690,-82.778488,-122.728174
01316,428736,21.054583,11.644825,-3.146074,-1.358575,-0.142500,-0.393251,130.426955,-82.325295,-121.333980
01317,428936,20.714291,3.487881,2.831313,-1.433549,0.445651,-0.058611,125.415343,-82.578147,-117.936290
01318,429136,19.588849,0.442560,-0.478060,-1.392778,-0.057141,0.165418,125.063547,-82.687693,-119.191403
01319,429336,16.549918,-0.662581,-1.869664,-1.612143,-0.534415,0.432354,129.347341,-82.705217,-125.373151
01320,429536,14.085781,-0.995097,-0.470746,-1.473784,-0.756915,0.688525,136.794148,-82.683414,-134.583820
01321,429736,11.646389,-0.026866,1.027004,-0.970030,-0.342274,0.817422,143.375017,-82.979641,-142.337294
01322,429936,8.062521,2.067893,1.418532,-0.919865,0.220843,0.669701,146.389660,-83.624549,-146.434640
01323,430136,3.881155,2.584156,2.376964,-1.160747,0.538786,0.476915,146.069905,-84.438135,-147.451323
01324,430336,0.730424,1.149267,1.242514,-1.004265,0.905358,0.376377,141.875621,-85.527842,-144.397084
01325,430536,-2.306352,-0.526639,-0.193914,-0.681475,0.914274,0.397465,135.996179,-86.614331,-139.287430
01326,430736,-4.442165,-1.852191,-1.495581,-0.464440,0.691803,0.614806,134.157522,-87.669289,-137.979863
01327,430936,-5.087687,-1.980295,-2.371879,-0.198665,0.377232,0.703498,143.540577,-88.524554,-147.595888
01328,431136,-3.360483,-0.669278,-3.052582,-0.044601,-0.025464,0.582372,169.954916,-88.764470,-174.068673
01329,431336,-1.182323,-0.138382,-2.055971,-0.123829,-0.213796,0.348030,-173.174943,-88.526203,168.914392
01330,431536,0.730748,0.111013,-0.093865,-0.261833,-0.319851,0.224854,-167.114029,-88.119400,162.550484
01331,431736,1.736669,0.357941,0.591040,-0.253944,-0.092571,0.242091,-160.655512,-87.939986,155.796689
01332,431936,5.715387,-1.122389,-3.585313,-0.074893,-0.154429,0.095174,-159.742865,-87.735708,154.797230
01333,432136,11.172765,-0.459282,-4.918283,-0.010163,-0.605387,0.174360,-160.864924,-87.013212,155.908483
01334,432336,22.837272,-3.808718,-5.941826,0.704049,-0.976108,0.165058,-162.849666,-85.887460,158.704989
01335,432536,38.958569,-9.547421,-2.964622,1.089478,-0.851821,0.481925,-159.128094,-84.780163,156.223743
01336,432736,28.573427,-5.964370,-3.850040,0.548148,-0.531656,0.395660,-156.569993,-84.039902,154.284680
01337,432936,21.331170,-1.553178,3.545638,1.412333,0.323949,-0.007445,-153.489494,-84.376514,152.815235
01338,433136,18.892051,0.391658,-1.409522,2.072524,0.441072,-0.230501,-151.113764,-84.943509,152.814541
01339,433336,18.651621,0.425680,-3.090949,1.795083,0.184721,-0.506585,-154.016721,-85.395758,157.792195
01340,433536,18.672310,-0.115522,-0.841602,1.327866,0.292718,-0.528455,-158.019021,-85.945639,163.331918
01341,433736,16.056896,-0.371483,0.072481,0.944836,0.342426,-0.367823,-160.813372,-86.458366,167.217559
01342,433936,10.979583,0.391190,0.393585,0.911144,0.320663,-0.356069,-164.634658,-86.928066,172.091101
01343,434136,5.788245,0.325985,2.492531,1.150589,0.601653,-0.563919,-174.234273,-87.725912,-176.979123
01344,434336,1.143240,0.044452,2.062368,1.202414,0.791558,-0.809307,154.323855,-88.488748,-144.142963
01345,434536,-0.946538,-0.191540,-0.295928,0.898129,1.138440,-0.789118,92.920818,-88.452305,-81.692473
01346,434736,-3.253408,1.278222,-0.771708,0.236615,0.829721,-0.722003,70.078870,-87.473819,-58.565871
01347,434936,-3.847951,2.594087,-1.467561,-0.147288,0.447211,-0.535222,65.211864,-86.711026,-53.861594
01348,435136,-3.189490,2.811595,-3.169085,-0.187854,0.002271,-0.524889,68.781075,-86.155637,-57.653211
01349,435336,-1.657731,2.089809,-3.932012,-0.354099,-0.317989,-0.565411,76.020788,-85.646117,-65.317939
01350,435536,0.619778,1.710485,-1.621928,-0.735106,-0.574612,-0.658784,84.730942,-85.007759,-74.901773
01351,435736,2.729205,0.642008,1.399430,-0.505695,-0.158377,-0.698385,86.743323,-84.220484,-77.504815
01352,435936,1.028433,-0.040611,0.494994,0.102891,0.329467,-0.634437,83.953895,-83.462599,-74.580385
01353,436136,0.715347,0.314453,0.231756,-0.075771,0.346274,-0.587028,81.354956,-82.742266,-72.049687
01354,436336,7.275389,-0.063156,-1.435404,-0.476791,-0.133734,-0.376310,82.461315,-82.335000,-73.716090
01355,436536,16.877222,-0.876477,-7.479332,1.511539,-0.329143,-0.040145,87.056995,-82.322660,-76.604772
01356,436736,26.224990,1.643826,-6.185364,0.309041,-0.852985,0.125663,94.800138,-82.450049,-84.058335
01357,436936,31.934231,3.812278,0.507326,-0.910962,-1.561329,-0.035594,106.710782,-82.071566,-97.130049
01358,437136,27.317662,12.952501,3.064831,-0.397826,-0.952244,-0.379406,112.326327,-81.291094,-103.265309
01359,437336,22.926195,5.567285,3.596587,-0.960868,0.204095,-0.018090,109.761996,-81.350554,-101.784907
01360,437536,20.623637,0.835357,0.409938,-1.123359,0.085162,0.269362,108.550523,-81.669729,-101.861356
01361,437736,18.117041,-0.285013,-0.207075,-1.392479,-0.084777,0.645770,109.334079,-82.334585,-104.263708
01362,437936,15.224560,1.519009,1.010400,-1.310828,-0.334933,0.744461,113.017130,-82.988606,-109.491461
01363,438136,13.762622,2.153882,3.053757,-0.888615,-0.238654,0.682224,116.909117,-83.579181,-114.435639
01364,438336,10.292188,1.787391,1.798569,-0.737809,0.272089,0.646415,116.578211,-84.377830,-114.953231
01365,438536,5.300928,1.224087,0.708446,-0.898022,0.542955,0.669750,112.823605,-85.332133,-112.216978
01366,438736,1.363116,-0.081668,1.433235,-0.870188,0.714222,0.717992,104.781407,-86.373691,-105.154007
01367,438936,-1.843056,-0.550367,0.666670,-0.506389,0.904127,0.662946,87.053777,-87.242894,-87.981066
01368,439136,-4.020036,-1.654264,-1.589381,-0.326632,0.741104,0.563735,64.473563,-87.665734,-65.753962
01369,439336,-3.852916,-1.610401,-2.772504,-0.147416,0.512192,0.639650,40.673153,-87.894934,-42.105259
01370,439536,-2.626163,-0.466494,-2.972192,-0.085685,0.256061,0.812823,13.103925,-88.059912,-14.617717
01371,439736,-1.633994,0.266716,-2.456691,0.220565,-0.048488,0.659619,-9.472079,-88.143408,8.223288
01372,439936,-0.476564,0.340791,-1.183924,0.417036,-0.358618,0.490372,-30.908511,-88.342033,30.147663
01373,440136,0.238438,-0.180541,0.011816,0.322736,-0.525610,0.344347,-56.316782,-88.513544,55.935110
01374,440336,2.793725,-1.460214,0.473588,0.382735,-0.215310,0.227408,-68.549486,-88.398555,68.610935
01375,440536,8.924313,-2.006386,-3.571494,0.548061,-0.377895,0.164547,-84.316176,-88.317836,85.012273
01376,440736,15.377760,-0.822637,-4.465547,0.189552,-0.769468,0.398428,-108.483748,-87.753487,109.410619
01377,440936,25.279359,-3.557810,-5.653124,0.717240,-0.707765,0.291434,-121.091066,-87.103506,122.852964
01378,441136,31.641423,-6.871068,-0.844107,0.933293,-0.819352,0.636249,-126.313738,-85.970014,129.156327
01379,441336,27.379206,-3.507210,2.857853,0.961611,-0.278425,0.185066,-127.001846,-85.605166,130.951274
01380,441536,23.555425,-1.535139,2.054982,1.746528,0.442929,-0.091836,-120.070123,-85.969999,126.007733
01381,441736,22.415897,-1.361838,0.006929,2.016328,0.234199,-0.142551,-115.417118,-86.236229,123.659962
01382,441936,19.601799,1.104323,0.146621,1.415416,0.166702,-0.251267,-112.930662,-86.574573,122.793828
01383,442136,16.152629,1.313169,1.287129,0.842597,0.067666,-0.337805,-113.433292,-86.959153,124.264394
01384,442336,13.579121,0.208219,1.386498,0.944581,0.053158,-0.302255,-114.048451,-87.299324,125.964160
01385,442536,10.430931,-0.329793,0.996783,1.133318,0.140000,-0.378784,-113.421065,-87.759959,126.636171
01386,442736,6.264352,-0.313874,2.279143,0.964779,0.520261,-0.470743,-99.680459,-88.450083,113.994614
01387,442936,0.231171,0.884332,1.410981,0.891009,0.497849,-0.575381,-69.152703,-89.070793,84.481799
01388,443136,-0.840788,2.037238,0.606173,0.471201,0.330692,-0.550453,-18.035976,-89.248575,33.900389
01389,443336,-2.743810,1.697262,-1.021727,0.075451,0.617302,-0.532546,14.956333,-88.528941,0.989342
01390,443536,-4.293452,1.551870,-2.135977,0.131940,0.498083,-0.490814,25.467530,-87.796707,-9.375710
01391,443736,-3.386733,1.844671,-2.709352,-0.034041,-0.231486,-0.541435,42.294915,-87.670342,-26.255058
01392,443936,-0.453298,1.201876,-2.516158,-0.432901,-0.593514,-0.567587,64.404094,-87.552248,-48.879388
01393,444136,1.430003,0.771067,-1.798797,-0.661102,-0.568223,-0.505325,81.061737,-87.187353,-66.312521
01394,444336,1.182962,0.300280,-0.328914,-0.307351,-0.375582,-0.496127,89.605569,-86.652377,-75.221181
01395,444536,0.903781,-0.141636,0.882771,-0.109380,0.031966,-0.574304,89.069125,-85.992012,-74.809133
01396,444736,4.194912,0.830389,-1.539729,-0.697417,-0.345778,-0.535903,93.379522,-85.366873,-79.933043
01397,444936,14.400813,-1.777574,-6.478015,0.489133,-0.678652,-0.294890,102.515678,-84.921583,-88.539046
01398,445136,25.639971,-0.474458,-2.649740,1.533327,-0.073167,0.142101,105.707899,-85.057424,-89.979262
01399,445336,30.881382,0.427308,-2.031612,-1.202460,-0.396055,0.220897,110.348239,-85.156296,-96.019008
01400,445536,25.781211,9.135958,-3.332487,-1.431625,-0.828932,-0.104000,117.943485,-84.653277,-105.290842
01401,445736,23.122265,10.612614,3.153102,-1.199691,-0.225950,-0.005879,118.958019,-84.518043,-107.690808
01402,445936,21.745149,2.265429,1.382050,-1.094501,0.018127,0.057828,117.855752,-84.580531,-107.843497
01403,446136,18.938307,-1.411274,-1.705826,-1.547029,-0.460244,0.256911,122.458348,-84.565033,-114.247511
01404,446336,15.302437,-2.452726,-0.318687,-1.733130,-0.848451,0.557614,132.600366,-84.474680,-126.430844
01405,446536,13.009545,-1.555263,1.710146,-1.221723,-0.712347,0.833334,144.238469,-84.494515,-139.529123
01406,446736,9.977017,-0.928277,1.130887,-0.723624,-0.323410,0.962641,155.511126,-84.726177,-151.684382
01407,446936,6.868956,1.552552,0.874690,-0.710710,0.006624,0.847394,164.889583,-85.061265,-161.917773
01408,447136,3.091908,2.683334,1.940148,-0.901755,0.330254,0.651501,171.833806,-85.582199,-169.922111
01409,447336,0.400497,1.102337,2.403285,-0.729393,0.693772,0.551449,179.077241,-86.426271,-178.021085
01410,447536,-1.778923,-0.423322,-0.089896,-0.475993,0.769230,0.416975,-171.824681,-87.278590,172.320908
01411,447736,-3.707462,-1.715383,-2.485099,-0.224512,0.645778,0.470702,-154.996176,-87.839707,155.219898
01412,447936,-4.373458,-2.235162,-3.478681,-0.007200,0.390747,0.653985,-132.334662,-87.754161,132.533725
01413,448136,-2.257727,-0.483035,-2.846089,0.160215,-0.049702,0.592916,-123.758815,-87.182041,124.133312
01414,448336,0.552578,0.518193,-0.368269,0.315587,-0.155438,0.296021,-122.753800,-86.800595,123.488922
01415,448536,0.915219,0.463222,-0.121652,0.243146,0.050680,0.203244,-119.566063,-86.631397,120.574881
01416,448736,1.433200,-0.246413,-1.158022,0.219741,0.134946,0.119964,-115.984596,-86.581917,117.239216
01417,448936,6.423930,-2.278811,-3.396151,0.532763,-0.169875,0.039800,-117.949976,-86.452262,119.819712
01418,449136,14.345968,-0.844127,-1.737528,0.048928,-0.698791,0.243452,-125.815262,-85.789638,127.758890
01419,449336,22.886243,-1.899184,-5.478195,0.193994,-0.405415,0.213102,-128.516082,-85.311873,130.690582
01420,449536,29.310325,-4.648983,-6.618359,0.833095,-0.646872,0.308804,-131.462047,-84.560018,134.606158
01421,449736,25.832069,-5.513577,0.495695,0.523183,-0.127502,0.031917,-131.782797,-84.431217,135.530578
01422,449936,22.257197,-3.033587,2.920096,1.280158,0.338416,-0.221096,-128.940060,-84.871556,134.148801
