// General information: 
//  MT Manager version: 2021.0.0 
//  XDA version: 2021.0.0 build 5908 rev 109668 built on 2021-04-19
// Device information: 
//  DeviceId: 0388442F
//  ProductCode: MTi-3-8A7G6
//  Firmware Version: 1.4.0
//  Hardware Version: 2.0.0
// Device settings: 
//  Filter Profile: general(50.9)
//  Option Flags: Orientation Smoother Disabled, Position/Velocity Smoother Disabled, Continuous Zero Rotation Update Disabled, AHS Enabled, ICC Disabled
// Coordinate system: ENU
PacketCounter,SampleTimeFine,Acc_X,Acc_Y,Acc_Z,Gyr_X,Gyr_Y,Gyr_Z,Roll,Pitch,Yaw
00251,142426,9.594816,0.679163,2.136093,-0.000387,-0.012859,0.001209,16.665255,-76.942570,-16.257395
00252,142626,9.533520,0.686354,2.069580,0.002652,0.003497,-0.000898,16.670546,-76.938588,-16.259551
00253,142826,9.552527,0.638339,2.050680,0.001053,-0.008289,0.000941,16.681992,-76.948176,-16.269909
00254,143026,9.620453,0.628703,2.127607,0.001836,-0.015076,0.004192,16.688510,-76.966284,-16.274290
00255,143226,9.579322,0.663206,2.085367,0.003065,-0.010763,0.006109,16.681227,-76.980298,-16.263060
00256,143426,9.589973,0.686286,2.097156,0.001537,-0.008067,0.008378,16.657609,-76.992099,-16.236859
00257,143626,9.603954,0.653244,2.124127,0.000496,-0.010085,0.010150,16.627165,-77.006687,-16.204878
00258,143826,9.609154,0.662179,2.125778,0.000256,-0.009610,0.011953,16.587100,-77.021331,-16.163310
00259,144026,9.583316,0.693995,2.084143,0.002017,-0.005070,0.010571,16.549205,-77.030532,-16.121895
00260,144226,9.564925,0.693828,2.068014,0.003976,0.002602,0.009520,16.507762,-77.030963,-16.074531
00261,144426,9.594699,0.675544,2.079546,0.001441,-0.001174,0.009978,16.466602,-77.035691,-16.030437
00262,144626,9.579241,0.661996,2.083578,-0.005863,-0.005674,0.007814,16.433742,-77.044660,-16.003449
00263,144826,9.590902,0.664104,2.123130,-0.009753,-0.004650,0.007436,16.396761,-77.052364,-15.976806
00264,145026,9.595360,0.620432,2.113081,-0.007360,0.001737,0.006219,16.359266,-77.052647,-15.946826
00265,145226,9.587704,0.605804,2.116606,-0.003608,-0.001494,0.006378,16.329745,-77.056529,-15.920620
00266,145426,9.591010,0.649790,2.109668,-0.002147,-0.003369,0.007786,16.297768,-77.062916,-15.890179
00267,145626,9.594864,0.639652,2.085486,-0.007403,-0.002518,0.006758,16.263470,-77.068039,-15.863537
00268,145826,9.620785,0.605406,2.100069,-0.006922,0.003506,0.008637,16.212219,-77.067140,-15.818938
00269,146026,9.593401,0.585879,2.113979,0.001265,-0.000989,0.007689,16.181035,-77.070877,-15.785310
00270,146226,9.579680,0.619529,2.134150,0.010485,-0.008593,0.007050,16.173980,-77.082762,-15.765601
00271,146426,9.589039,0.671931,2.110823,0.014434,-0.006579,0.004839,16.179305,-77.091714,-15.753949
00272,146626,9.590385,0.671165,2.056357,0.009607,-0.001944,0.003532,16.178999,-77.095160,-15.742191
00273,146826,9.606231,0.638465,2.050688,-0.001886,-0.004697,0.003648,16.168823,-77.101691,-15.733815
00274,147026,9.599270,0.620449,2.128125,-0.003752,-0.006815,0.003354,16.160806,-77.110449,-15.729853
00275,147226,9.613874,0.611107,2.139168,0.004449,-0.007133,0.001193,16.172949,-77.118850,-15.736935
00276,147426,9.592215,0.597720,2.105485,0.002960,0.001009,-0.000826,16.181659,-77.117646,-15.742250
00277,147626,9.558996,0.632913,2.068092,0.006781,0.009227,0.001304,16.173036,-77.108084,-15.725292
00278,147826,9.577247,0.629557,2.031503,0.002239,0.011826,0.002611,16.149355,-77.096102,-15.698224
00279,148026,9.571954,0.592159,2.213106,-0.017840,-0.011094,0.005261,16.121672,-77.110145,-15.690662
00280,148226,9.582287,0.617721,2.113067,-0.001857,-0.000597,0.008613,16.081516,-77.113687,-15.651520
00281,148426,9.593205,0.655348,2.010251,0.004575,0.010266,0.007625,16.038523,-77.104981,-15.601901
00282,148626,9.617945,0.691772,2.094092,0.005724,-0.004710,0.000773,16.050668,-77.110589,-15.607489
00283,148826,9.637032,0.681459,2.120532,0.003069,-0.027669,-0.007355,16.130926,-77.138879,-15.686063
00284,149026,9.616826,0.671876,2.096782,0.002325,-0.020563,-0.008202,16.204857,-77.159048,-15.759011
00285,149226,9.563078,0.662921,2.043757,-0.007295,-0.009538,-0.005437,16.239159,-77.167967,-15.802613
00286,149426,9.553674,0.702974,2.088858,-0.020700,-0.013022,-0.004343,16.257888,-77.181050,-15.845991
00287,149626,9.543661,0.686858,2.113276,-0.024180,-0.014300,-0.007458,16.289641,-77.194508,-15.906809
00288,149826,9.608428,0.644941,2.072441,-0.017569,-0.006336,-0.005355,16.307599,-77.199880,-15.945709
00289,150026,9.617881,0.628662,2.083471,-0.015821,-0.008324,-0.000419,16.306468,-77.209027,-15.962980
00290,150226,9.605805,0.656008,2.116240,-0.020458,-0.011288,-0.001806,16.310971,-77.220969,-15.991476
00291,150426,9.603057,0.694484,2.104305,-0.016737,-0.010965,-0.004017,16.330118,-77.231823,-16.030612
00292,150626,9.601619,0.617414,2.021142,-0.013987,0.002135,-0.004735,16.337277,-77.228064,-16.054224
00293,150826,9.587405,0.629794,2.062443,-0.021460,-0.005542,0.000023,16.323686,-77.234284,-16.065340
00294,151026,9.562661,0.673645,2.101289,-0.023827,-0.004501,-0.001836,16.314970,-77.238742,-16.084235
00295,151226,9.576197,0.609468,2.054604,-0.010644,-0.000845,-0.003113,16.322315,-77.238777,-16.104111
00296,151426,9.618713,0.512975,2.063738,0.005317,-0.002829,-0.002879,16.349404,-77.241088,-16.125489
00297,151626,9.630337,0.555423,2.094345,0.014923,-0.013136,0.001912,16.378777,-77.256279,-16.137931
00298,151826,9.598796,0.655335,2.114226,0.017639,-0.020641,0.005507,16.404568,-77.280861,-16.143509
00299,152026,9.586565,0.701315,2.051588,0.013829,-0.011368,0.005964,16.410625,-77.295394,-16.133325
00300,152226,9.596762,0.650643,2.026121,0.004879,-0.006328,0.009555,16.381698,-77.305560,-16.097792
00301,152426,9.642623,0.635720,2.074754,0.005406,-0.007529,0.012102,16.342589,-77.317863,-16.051206
00302,152626,9.628690,0.665958,2.075327,0.014874,0.003261,0.007091,16.323361,-77.316673,-16.013876
00303,152826,9.616149,0.634231,2.046108,0.018735,0.008113,0.004711,16.313264,-77.309385,-15.981369
00304,153026,9.607306,0.617006,2.027129,0.017722,-0.001108,0.007875,16.299721,-77.313272,-15.946521
00305,153226,9.610515,0.635197,2.076821,0.016308,-0.006346,0.005861,16.301856,-77.322264,-15.929405
00306,153426,9.625505,0.643855,2.082159,0.022056,-0.001847,0.006258,16.302194,-77.326428,-15.903696
00307,153626,9.622866,0.608559,2.064610,0.021939,0.007737,0.007699,16.281601,-77.320516,-15.856673
00308,153826,9.619597,0.626181,2.080469,0.019611,0.010129,0.012744,16.230283,-77.313579,-15.780891
00309,154026,9.604299,0.671672,2.102166,0.021037,0.003794,0.014508,16.181075,-77.314141,-15.705593
00310,154226,9.613482,0.661701,2.073755,0.020692,0.008177,0.012709,16.134120,-77.309286,-15.633007
00311,154426,9.609235,0.632182,2.021729,0.021518,0.016140,0.007439,16.102709,-77.293995,-15.575381
00312,154626,9.607322,0.613843,2.026817,0.019081,0.015826,0.008223,16.065223,-77.279309,-15.514387
00313,154826,9.590384,0.615599,2.081182,0.018485,0.011530,0.008838,16.030147,-77.269536,-15.456562
00314,155026,9.598986,0.639158,2.100398,0.019714,0.006702,0.010062,15.997324,-77.265447,-15.399602
00315,155226,9.595223,0.660591,2.103747,0.011358,0.003591,0.011664,15.951527,-77.265265,-15.339154
00316,155426,9.639590,0.656475,2.105418,0.013977,0.015018,0.012618,15.888262,-77.252766,-15.257717
00317,155626,9.594801,0.624238,1.980393,0.026316,0.031609,0.009512,15.831565,-77.221026,-15.168507
00318,155826,9.571978,0.590675,2.065884,0.003508,0.014152,0.010082,15.770208,-77.208699,-15.101314
00319,156026,9.613194,0.636168,2.174002,-0.007546,-0.000409,0.013865,15.697799,-77.213554,-15.035776
00320,156226,9.598748,0.692690,2.022187,0.008538,0.030213,0.012129,15.610777,-77.184082,-14.936341
00321,156426,9.591423,0.665438,2.052767,0.008358,0.037008,0.007726,15.536257,-77.145732,-14.849921
00322,156626,9.594055,0.650924,2.080901,0.012192,0.004384,0.004168,15.527530,-77.142298,-14.826468
00323,156826,9.641958,0.634244,2.134971,0.014670,-0.011232,-0.002963,15.577167,-77.153901,-14.859967
00324,157026,9.594301,0.632616,2.059209,0.018125,0.008494,-0.008001,15.628566,-77.142185,-14.891211
00325,157226,9.546228,0.618681,2.019019,0.014063,0.019559,-0.009576,15.667890,-77.117793,-14.914843
00326,157426,9.562837,0.608970,2.068460,0.008999,0.009481,-0.008565,15.710053,-77.104839,-14.947344
00327,157626,9.611343,0.617098,2.114115,0.003068,0.004707,-0.003347,15.726679,-77.098763,-14.960621
00328,157826,9.640309,0.658270,2.102745,0.000797,0.008994,-0.002597,15.731316,-77.088191,-14.964266
00329,158026,9.642534,0.639362,2.080976,0.007265,0.016477,-0.007217,15.755440,-77.067940,-14.980300
00330,158226,9.611958,0.580807,2.088837,0.010241,0.017124,-0.008336,15.787316,-77.046638,-15.000793
00331,158426,9.555333,0.602924,2.070807,0.020527,0.020238,-0.008364,15.826760,-77.021906,-15.016960
00332,158626,9.538947,0.649974,2.108919,0.016635,0.012243,-0.006850,15.865279,-77.006452,-15.036756
00333,158826,9.595394,0.710081,2.112230,0.009576,0.015706,-0.006670,15.890209,-76.987227,-15.050901
00334,159026,9.617841,0.677081,2.052442,0.006299,0.020805,-0.003974,15.891670,-76.963250,-15.044809
00335,159226,9.622637,0.621003,2.101503,0.004112,0.012757,-0.003255,15.898078,-76.948380,-15.046367
00336,159426,9.606415,0.613250,2.125746,0.007570,0.010880,-0.003183,15.910576,-76.935602,-15.050111
00337,159626,9.551058,0.638453,2.120819,0.011560,0.018484,-0.002434,15.913781,-76.914677,-15.039624
00338,159826,9.546112,0.639576,2.062167,0.008462,0.019685,0.000762,15.896721,-76.893452,-15.011971
00339,160026,9.591723,0.654114,2.082047,0.008208,0.010219,0.003013,15.881560,-76.883381,-14.986565
00340,160226,9.619881,0.659799,2.119863,0.010349,0.004025,0.001789,15.883018,-76.879755,-14.975701
00341,160426,9.610762,0.658342,2.099355,0.010741,0.007518,-0.000222,15.889765,-76.871661,-14.969805
00342,160626,9.590069,0.652496,2.067147,0.006721,0.011498,0.001842,15.876849,-76.859849,-14.948445
00343,160826,9.570567,0.646451,2.087455,0.004825,0.000255,0.003331,15.869860,-76.860909,-14.935402
00344,161026,9.572355,0.694359,2.144356,0.003775,-0.008121,0.002922,15.874912,-76.871059,-14.935956
00345,161226,9.607096,0.679760,2.154298,0.004026,-0.004318,0.001414,15.882310,-76.876532,-14.938621
00346,161426,9.613248,0.629606,2.071811,0.003630,0.003068,0.000073,15.885650,-76.873467,-14.937587
00347,161626,9.591359,0.631330,2.092541,0.003012,-0.006128,0.003355,15.885123,-76.881581,-14.933309
00348,161826,9.574605,0.643646,2.112625,0.009900,-0.011342,0.000390,15.913545,-76.894512,-14.950652
00349,162026,9.557770,0.666443,2.091779,0.011996,-0.012683,0.000594,15.945304,-76.908989,-14.968952
00350,162226,9.572945,0.663211,2.075893,0.003990,-0.013268,-0.000026,15.971715,-76.923924,-14.991176
00351,162426,9.586041,0.650123,2.074162,0.003403,-0.014034,0.000360,15.996734,-76.939835,-15.012660
00352,162626,9.596370,0.619628,2.083734,0.005699,-0.020313,0.001595,16.027104,-76.963063,-15.036937
00353,162826,9.633949,0.636338,2.111219,0.006694,-0.023580,0.001698,16.062676,-76.989921,-15.065383
00354,163026,9.606594,0.671814,2.100041,0.013402,-0.011941,0.004314,16.077604,-77.004788,-15.064748
00355,163226,9.596114,0.648759,2.024500,-0.001284,-0.003896,0.004184,16.065299,-77.010783,-15.053433
00356,163426,9.549478,0.640569,2.072573,-0.013192,-0.018422,0.006866,16.046488,-77.033628,-15.049447
00357,163626,9.602217,0.632898,2.099228,-0.004142,-0.017038,0.010941,16.016563,-77.056235,-15.023416
00358,163826,9.614335,0.654241,2.117411,0.008526,-0.011226,0.009852,15.998301,-77.072084,-14.994461
00359,164026,9.616557,0.668557,2.197553,0.016733,-0.011339,0.008178,15.997585,-77.087487,-14.973860
00360,164226,9.595905,0.632548,2.096417,0.016023,-0.017959,0.004247,16.024057,-77.108936,-14.981989
00361,164426,9.577325,0.658691,2.069414,0.016765,-0.014310,0.002102,16.056746,-77.125689,-14.995620
00362,164626,9.532195,0.658049,1.996975,0.014809,-0.011245,0.001148,16.087657,-77.138784,-15.009725
00363,164826,9.543641,0.668947,2.026512,0.009702,-0.018756,0.002115,16.118628,-77.160465,-15.029889
00364,165026,9.591420,0.626791,2.076676,0.009118,-0.025420,0.002534,16.156286,-77.189611,-15.057598
00365,165226,9.603656,0.616844,2.066124,0.016096,-0.036234,0.003790,16.211196,-77.231055,-15.094796
00366,165426,9.609719,0.655855,2.035491,0.022536,-0.048443,0.003250,16.293815,-77.285753,-15.152830
00367,165626,9.595012,0.675579,2.027306,0.016210,-0.047590,0.000304,16.383021,-77.338548,-15.225031
00368,165826,9.559937,0.659790,1.993835,0.011318,-0.045701,-0.000343,16.467753,-77.389040,-15.298378
00369,166026,9.507215,0.612573,1.935697,0.011705,-0.047234,0.000271,16.552766,-77.441420,-15.371543
00370,166226,9.529848,0.637306,2.011449,0.006214,-0.071974,0.002994,16.655261,-77.521828,-15.469046
00371,166426,9.595061,0.680835,1.987751,0.011005,-0.080805,0.001657,16.784575,-77.611442,-15.588356
00372,166626,9.593736,0.681259,1.941420,0.014592,-0.070277,-0.002340,16.923887,-77.688130,-15.713652
00373,166826,9.623555,0.618517,1.946028,0.010976,-0.067690,-0.000935,17.049540,-77.762403,-15.829177
00374,167026,9.631126,0.643719,1.996804,0.004369,-0.071928,0.000688,17.167436,-77.841798,-15.944481
00375,167226,9.612918,0.689798,1.993152,0.005658,-0.074822,-0.000301,17.298035,-77.923946,-16.071233
00376,167426,9.615758,0.690232,1.942452,0.006604,-0.061341,-0.000690,17.411783,-77.991150,-16.179608
00377,167626,9.619631,0.637796,1.841319,0.010368,-0.055229,-0.002532,17.530657,-78.051020,-16.288789
00378,167826,9.635257,0.641356,1.886507,0.013148,-0.060382,-0.000124,17.649863,-78.117315,-16.395029
00379,168026,9.644277,0.664409,1.937449,0.011769,-0.062633,0.000623,17.768595,-78.186264,-16.502375
00380,168226,9.642825,0.666633,1.930151,0.010181,-0.053163,-0.000368,17.875997,-78.244472,-16.599982
00381,168426,9.649354,0.620158,1.863044,0.005914,-0.043211,0.003507,17.942087,-78.293173,-16.660374
00382,168626,9.625254,0.660871,1.820065,0.001764,-0.044394,0.007530,17.984757,-78.344587,-16.701695
00383,168826,9.620221,0.686296,1.830897,-0.000948,-0.052671,0.005347,18.050648,-78.404240,-16.769884
00384,169026,9.639364,0.680996,1.836704,-0.001424,-0.048903,0.001754,18.129319,-78.458491,-16.851663
00385,169226,9.649478,0.636352,1.803585,-0.002777,-0.042080,0.000701,18.200798,-78.504929,-16.927669
00386,169426,9.648811,0.614560,1.781470,-0.000869,-0.041753,0.005182,18.250368,-78.552620,-16.979079
00387,169626,9.658179,0.634006,1.841715,-0.003031,-0.040686,0.005370,18.294919,-78.599203,-17.027889
00388,169826,9.674262,0.668916,1.839185,0.008099,-0.021584,0.006344,18.313130,-78.625339,-17.036813
00389,170026,9.629690,0.652437,1.730798,-0.004485,-0.012798,0.006110,18.302537,-78.641858,-17.031064
00390,170226,9.616484,0.599200,1.826409,-0.012240,-0.019629,0.006132,18.295064,-78.665810,-17.037565
00391,170426,9.665473,0.624817,1.790255,-0.003256,-0.015415,0.010940,18.264138,-78.686913,-17.009650
00392,170626,9.652334,0.669121,1.720409,-0.000588,-0.000277,0.009934,18.214586,-78.691200,-16.959619
00393,170826,9.656527,0.680388,1.804464,0.001371,-0.010095,0.008115,18.194785,-78.705509,-16.937638
00394,171026,9.622522,0.642198,1.727334,0.004002,-0.028043,0.002204,18.242510,-78.737258,-16.981438
00395,171226,9.648475,0.644325,1.752548,0.003131,-0.035888,-0.000193,18.316870,-78.776681,-17.053408
00396,171426,9.631157,0.625915,1.747064,0.006038,-0.020143,-0.001041,18.370980,-78.798668,-17.101330
00397,171626,9.647820,0.642633,1.760242,-0.001748,-0.011481,0.000679,18.391054,-78.811855,-17.123648
00398,171826,9.626338,0.648806,1.750465,-0.010507,-0.011833,0.001152,18.399197,-78.825598,-17.144034
00399,172026,9.646796,0.646337,1.699093,-0.015589,-0.011886,0.002210,18.395863,-78.839804,-17.158655
00400,172226,9.702894,0.652414,1.746474,-0.013076,-0.012474,0.004933,18.381500,-78.855641,-17.159098
00401,172426,9.711935,0.668529,1.777542,-0.008764,-0.018862,0.001427,18.403235,-78.877152,-17.191295
00402,172626,9.670943,0.693763,1.787171,-0.014549,-0.022456,-0.000761,18.437269,-78.901759,-17.242776
00403,172826,9.648301,0.617234,1.722799,-0.011085,0.004248,-0.003752,18.442578,-78.896261,-17.260938
00404,173026,9.622512,0.587807,1.708389,-0.012162,0.002889,0.000463,18.425742,-78.893787,-17.257794
00405,173226,9.621610,0.618202,1.751529,-0.009145,0.004851,0.000007,18.411234,-78.889017,-17.253500
00406,173426,9.642056,0.643557,1.721910,-0.004903,0.008392,-0.004306,18.418960,-78.878845,-17.266910
00407,173626,9.670123,0.606156,1.702019,-0.006007,0.014252,-0.005804,18.422862,-78.861783,-17.277714
00408,173826,9.673896,0.581682,1.726845,-0.011546,0.014496,-0.001566,18.396495,-78.846008,-17.264140
00409,174026,9.673001,0.653957,1.755235,-0.011126,0.007474,0.001199,18.368311,-78.838868,-17.248220
00410,174226,9.658128,0.654619,1.728777,-0.010151,0.009131,-0.002332,18.357737,-78.828660,-17.249110
00411,174426,9.658410,0.606107,1.705747,-0.011592,0.021173,-0.003643,18.330748,-78.804905,-17.234952
00412,174626,9.645647,0.587212,1.700891,-0.008262,0.019563,0.000374,18.288488,-78.784373,-17.201336
00413,174826,9.637226,0.621896,1.756825,-0.002349,0.010719,0.003575,18.251558,-78.774614,-17.166246
00414,175026,9.634654,0.652918,1.757916,0.002422,0.007677,0.004893,18.218451,-78.768636,-17.129476
00415,175226,9.674306,0.634026,1.731999,0.003496,0.013885,0.005621,18.171475,-78.756171,-17.077309
00416,175426,9.674882,0.591914,1.741368,-0.001737,0.010338,0.007163,18.116475,-78.748126,-17.023076
00417,175626,9.675467,0.586700,1.753983,-0.003140,-0.000469,0.010189,18.062608,-78.752934,-16.971639
00418,175826,9.665774,0.597184,1.748469,-0.003554,0.002392,0.010194,18.003054,-78.754629,-16.914891
00419,176026,9.646887,0.623384,1.722564,-0.003804,0.004286,0.010903,17.935967,-78.754515,-16.850754
00420,176226,9.671421,0.612570,1.754823,-0.002884,0.001813,0.012654,17.864696,-78.757708,-16.781277
00421,176426,9.671977,0.617881,1.797619,-0.002731,-0.002056,0.010818,17.810446,-78.764456,-16.728976
00422,176626,9.672093,0.650837,1.809092,0.004012,0.009073,0.009974,17.748954,-78.758741,-16.661412
00423,176826,9.643600,0.602043,1.677976,0.007991,0.025390,0.007447,17.677442,-78.734351,-16.578980
00424,177026,9.667406,0.550188,1.779355,-0.016688,0.010682,0.011278,17.582444,-78.727339,-16.501435
00425,177226,9.656311,0.619357,1.867889,-0.016315,-0.008100,0.017102,17.488472,-78.742804,-16.424504
00426,177426,9.597055,0.671415,1.664525,-0.001947,0.014607,0.014523,17.385981,-78.732560,-16.322094
00427,177626,9.647630,0.635198,1.700099,-0.010718,0.012131,0.012013,17.291720,-78.724157,-16.238316
00428,177826,9.667567,0.618683,1.775368,-0.010725,-0.016046,0.006487,17.275976,-78.744687,-16.234607
00429,178026,9.707537,0.633813,1.828899,0.001225,-0.025685,0.000132,17.325477,-78.773581,-16.283459
00430,178226,9.673464,0.614825,1.796511,0.003585,-0.009259,-0.005839,17.382510,-78.782451,-16.337229
00431,178426,9.616224,0.593504,1.705220,-0.005430,0.004525,-0.006445,17.408792,-78.776052,-16.370181
00432,178626,9.626499,0.615347,1.772854,-0.012340,-0.004845,-0.001380,17.415432,-78.781630,-16.391181
00433,178826,9.656115,0.590032,1.813337,-0.016000,-0.004095,0.004408,17.384610,-78.788358,-16.378266
00434,179026,9.667542,0.591934,1.811223,-0.015122,0.003714,0.004783,17.339179,-78.786661,-16.349436
00435,179226,9.655369,0.605800,1.757559,-0.002751,0.010134,-0.000435,17.325673,-78.776162,-16.338698
00436,179426,9.682071,0.559620,1.767228,0.000748,0.014461,-0.000212,17.307463,-78.761012,-16.319079
00437,179626,9.675232,0.607789,1.841615,0.003585,0.017089,0.001260,17.279933,-78.743467,-16.286644
00438,179826,9.650673,0.604974,1.854066,-0.000795,0.015899,0.002179,17.244418,-78.727511,-16.251183
00439,180026,9.639066,0.601357,1.788749,-0.000381,0.023244,0.002123,17.197308,-78.703489,-16.203412
00440,180226,9.631543,0.607573,1.774461,0.001158,0.019571,0.002016,17.158956,-78.683448,-16.162772
00441,180426,9.621916,0.633755,1.818223,0.004517,0.012487,-0.001745,17.157109,-78.669876,-16.155430
00442,180626,9.642773,0.623160,1.809101,0.008962,0.011379,-0.002545,17.166618,-78.657241,-16.154475
00443,180826,9.669779,0.577341,1.784672,0.004185,0.012351,-0.000416,17.157353,-78.644270,-16.139957
00444,181026,9.669281,0.576691,1.796568,0.003908,0.005476,0.001144,17.150807,-78.639358,-16.128536
00445,181226,9.667617,0.622670,1.841417,0.008283,0.000868,-0.000380,17.165337,-78.638964,-16.133498
00446,181426,9.667561,0.636312,1.823416,0.007128,0.000927,-0.001546,17.184834,-78.638100,-16.144875
00447,181626,9.678259,0.629123,1.781049,-0.000799,-0.000057,0.000664,17.184909,-78.639068,-16.145705
00448,181826,9.673419,0.624691,1.824675,-0.002885,-0.007080,0.001720,17.188690,-78.648074,-16.152754
00449,182026,9.665272,0.649183,1.838872,0.002035,-0.011606,-0.000745,17.219270,-78.661183,-16.181383
00450,182226,9.682752,0.625054,1.844527,0.004555,-0.011353,-0.004278,17.271683,-78.672796,-16.229333
00451,182426,9.712820,0.594355,1.799797,0.009368,-0.005941,-0.004234,17.320219,-78.678500,-16.267704
00452,182626,9.719729,0.586788,1.795384,0.010978,-0.007554,-0.000804,17.354606,-78.687139,-16.289765
00453,182826,9.666667,0.623803,1.830268,0.010100,-0.009280,0.000081,17.386142,-78.697954,-16.309945
00454,183026,9.648938,0.640036,1.799252,0.007905,0.000669,-0.001717,17.408016,-78.697266,-16.322834
00455,183226,9.681899,0.594123,1.797728,0.004479,0.008753,0.000539,17.399723,-78.688514,-16.308964
00456,183426,9.713995,0.566349,1.859963,-0.006077,0.016915,0.006994,17.330051,-78.673028,-16.244837
00457,183626,9.733582,0.602288,1.892641,-0.001811,0.036868,0.008421,17.223843,-78.636153,-16.138457
00458,183826,9.663780,0.637579,1.771338,0.012120,0.058294,0.003788,17.123654,-78.574225,-16.021912
00459,184026,9.605978,0.587363,1.795381,0.008556,0.058877,-0.001427,17.047682,-78.509874,-15.934216
00460,184226,9.633288,0.550445,1.800859,0.002010,0.043667,0.003542,16.963281,-78.463846,-15.845560
00461,184426,9.636732,0.644223,1.700052,0.002290,0.047526,0.010383,16.837143,-78.415871,-15.713955
00462,184626,9.632524,0.707484,1.799380,0.004997,0.028299,0.008199,16.757833,-78.388221,-15.626962
00463,184826,9.642686,0.681409,1.876258,0.011773,-0.009190,-0.002340,16.803165,-78.398192,-15.659279
00464,185026,9.700640,0.641683,1.888332,0.024226,-0.002148,-0.007453,16.878779,-78.398721,-15.707940
00465,185226,9.660329,0.599156,1.807227,0.027569,0.017034,-0.008126,16.930656,-78.377999,-15.728459
00466,185426,9.614114,0.615865,1.874015,0.018646,0.022000,-0.007058,16.958436,-78.352176,-15.734818
00467,185626,9.610884,0.661693,1.870112,0.011722,0.024727,-0.006972,16.973401,-78.323380,-15.736191
00468,185826,9.623975,0.617148,1.815952,0.009963,0.024994,-0.006131,16.981439,-78.294585,-15.732548
00469,186026,9.673742,0.576756,1.816193,0.017346,0.020353,-0.004668,16.997621,-78.271386,-15.728584
00470,186226,9.720762,0.611167,1.894985,0.026267,0.006200,-0.004460,17.045690,-78.263762,-15.746747
00471,186426,9.689421,0.631579,1.931028,0.029644,0.006958,-0.005591,17.102290,-78.254904,-15.769674
00472,186626,9.611793,0.641795,1.821953,0.025751,0.027176,-0.009094,17.140059,-78.222731,-15.777921
00473,186826,9.582491,0.642422,1.779476,0.025212,0.028559,-0.004216,17.149360,-78.190714,-15.757716
00474,187026,9.596486,0.667255,1.836310,0.019423,0.020959,0.001082,17.136689,-78.168813,-15.721835
00475,187226,9.645576,0.707082,1.913438,0.016776,0.015081,0.001277,17.129597,-78.153397,-15.694746
00476,187426,9.663089,0.674281,1.941618,0.016856,0.020756,-0.000571,17.123193,-78.131121,-15.668264
00477,187626,9.644257,0.642269,1.897100,0.015538,0.032059,-0.000184,17.095263,-78.096592,-15.621323
00478,187826,9.607237,0.595927,1.829777,0.011489,0.025349,0.004208,17.050775,-78.070906,-15.562199
00479,188026,9.610737,0.588366,1.866678,0.009813,0.010221,0.009224,17.002506,-78.063480,-15.501171
00480,188226,9.617248,0.662307,1.918280,0.015452,0.003013,0.010970,16.963132,-78.064517,-15.442627
00481,188426,9.614584,0.693717,1.873819,0.015925,0.003051,0.007352,16.943095,-78.064298,-15.403291
00482,188626,9.584990,0.692641,1.831123,0.004407,0.008027,0.005729,16.910546,-78.058090,-15.364651
00483,188826,9.599604,0.634007,1.857826,-0.000543,0.005802,0.006055,16.874185,-78.054433,-15.327911
00484,189026,9.598602,0.621297,1.893808,0.006792,-0.003514,0.003425,16.874494,-78.060114,-15.320063
00485,189226,9.619882,0.644603,1.898841,0.011173,-0.012375,0.002335,16.899450,-78.075143,-15.332274
00486,189426,9.609583,0.633193,1.869187,0.011225,-0.008969,-0.000677,16.934783,-78.085437,-15.355029
00487,189626,9.600325,0.625017,1.852152,0.008997,-0.013192,-0.002199,16.982220,-78.099858,-15.392763
00488,189826,9.593442,0.615699,1.853582,0.005483,-0.019902,-0.002300,17.036936,-78.121598,-15.442050
00489,190026,9.601915,0.672686,1.851343,0.005025,-0.030668,-0.006570,17.130958,-78.153681,-15.532030
00490,190226,9.622405,0.698580,1.803973,0.015304,-0.019983,-0.010497,17.240594,-78.172718,-15.625915
00491,190426,9.600871,0.625183,1.699986,0.003712,-0.021028,-0.013547,17.354971,-78.191871,-15.738206
00492,190626,9.546213,0.618162,1.848164,-0.009706,-0.042064,-0.010994,17.475613,-78.234851,-15.872593
00493,190826,9.603732,0.666640,1.898268,-0.008400,-0.061104,-0.007690,17.613130,-78.299692,-16.022661
00494,191026,9.610024,0.656787,1.805300,0.002545,-0.035082,-0.008608,17.725620,-78.335742,-16.134338
00495,191226,9.652691,0.651809,1.847580,0.008633,-0.033257,-0.008154,17.840259,-78.369911,-16.241072
00496,191426,9.631898,0.665443,1.792437,0.007598,-0.053403,-0.011787,18.008459,-78.424716,-16.403678
00497,191626,9.648149,0.703655,1.803002,0.008378,-0.061323,-0.017042,18.221171,-78.486164,-16.610766
00498,191826,9.652520,0.679746,1.817786,0.007022,-0.041348,-0.015130,18.388687,-78.526423,-16.773282
00499,192026,9.665745,0.634751,1.809052,-0.001190,-0.021348,-0.009385,18.481081,-78.546947,-16.868733
00500,192226,9.658801,0.648552,1.799516,-0.006195,-0.017590,-0.002907,18.526470,-78.565720,-16.922072
00501,192426,9.685668,0.647591,1.786242,-0.013029,-0.019757,0.004348,18.529030,-78.589489,-16.939703
00502,192626,9.678676,0.682589,1.791909,-0.009535,-0.021769,0.007295,18.523407,-78.616514,-16.944900
00503,192826,9.691124,0.658551,1.796566,-0.003317,-0.020172,0.002609,18.547346,-78.640093,-16.972985
00504,193026,9.706245,0.630675,1.816705,-0.001303,-0.011202,0.004782,18.545557,-78.654714,-16.972474
00505,193226,9.661397,0.612569,1.746111,-0.003062,0.005162,0.006789,18.501105,-78.652298,-16.930509
00506,193426,9.619986,0.648300,1.813663,-0.008151,-0.007574,0.008455,18.464823,-78.664311,-16.902826
00507,193626,9.630946,0.693777,1.817497,-0.005658,-0.007686,0.004902,18.450860,-78.675136,-16.894992
00508,193826,9.657233,0.669557,1.749966,-0.002982,-0.003468,0.004209,18.436105,-78.681132,-16.883222
00509,194026,9.674900,0.627885,1.748292,-0.003778,-0.004851,0.005838,18.414048,-78.689231,-16.864936
00510,194226,9.679559,0.631527,1.779370,-0.003042,-0.012527,0.005246,18.409891,-78.705463,-16.864048
00511,194426,9.683283,0.657989,1.828275,-0.004742,-0.008288,0.005827,18.392903,-78.717279,-16.852063
00512,194626,9.649877,0.685006,1.773351,-0.005850,0.001932,0.004700,18.362297,-78.717567,-16.827485
00513,194826,9.646287,0.677020,1.717926,-0.006210,0.002450,0.004786,18.329937,-78.717333,-16.801536
00514,195026,9.649807,0.654659,1.733486,-0.009536,-0.003629,0.005785,18.299311,-78.724077,-16.781240
00515,195226,9.675028,0.670400,1.785918,-0.014403,-0.011357,0.004710,18.282914,-78.738834,-16.781141
00516,195426,9.658845,0.674213,1.803925,-0.016979,-0.008131,0.004067,18.261248,-78.749835,-16.778679
00517,195626,9.674273,0.639250,1.756775,-0.015425,0.000236,0.003092,18.231570,-78.751384,-16.766233
00518,195826,9.673119,0.621149,1.747962,-0.012078,0.003804,0.004507,18.191522,-78.749561,-16.739306
00519,196026,9.646524,0.669629,1.747368,-0.011997,0.004402,0.005392,18.145705,-78.747400,-16.706399
00520,196226,9.621408,0.681789,1.765221,-0.015730,0.002137,0.005500,18.099144,-78.747734,-16.677092
00521,196426,9.654761,0.652170,1.776057,-0.018896,0.002478,0.005019,18.050980,-78.747514,-16.649850
00522,196626,9.650447,0.643298,1.795054,-0.016371,0.002371,0.005938,18.000855,-78.747723,-16.617660
00523,196826,9.653434,0.637564,1.773712,-0.009554,0.013728,0.005007,17.943475,-78.735216,-16.570107
00524,197026,9.659285,0.607177,1.720276,-0.004391,0.028355,0.003787,17.872970,-78.706337,-16.503135
00525,197226,9.658912,0.555141,1.844568,-0.012986,0.024690,0.006363,17.785186,-78.682329,-16.428586
00526,197426,9.645985,0.598637,1.844974,-0.010325,0.012966,0.014333,17.677667,-78.673858,-16.330799
00527,197626,9.588736,0.664872,1.606856,-0.001571,0.023458,0.013975,17.564314,-78.653812,-16.216822
00528,197826,9.626992,0.625523,1.696708,-0.012146,0.012911,0.013353,17.460720,-78.645057,-16.125150
00529,198026,9.646922,0.668440,1.809528,-0.016156,-0.012154,0.009810,17.414800,-78.662454,-16.096989
00530,198226,9.674953,0.705142,1.800780,-0.011871,-0.027960,0.003108,17.437511,-78.694818,-16.133811
00531,198426,9.674460,0.634486,1.757992,-0.006215,-0.005573,-0.001843,17.455441,-78.701010,-16.159145
00532,198626,9.685625,0.576254,1.735219,-0.003665,0.007260,-0.000585,17.447295,-78.693625,-16.154911
00533,198826,9.679294,0.594512,1.818857,-0.008536,0.000830,0.002613,17.427068,-78.694358,-16.144050
00534,199026,9.673633,0.653818,1.836731,-0.011525,-0.006614,0.005917,17.398124,-78.704344,-16.127793
00535,199226,9.678924,0.614583,1.763017,-0.006983,-0.001051,0.005721,17.365881,-78.708185,-16.102865
00536,199426,9.681035,0.583141,1.758067,-0.002641,0.000409,0.007475,17.326443,-78.711035,-16.065529
00537,199626,9.669175,0.563778,1.818062,0.001740,0.001375,0.010082,17.275965,-78.713705,-16.011818
00538,199826,9.642475,0.610297,1.751072,0.002886,0.005502,0.008723,17.227216,-78.711396,-15.958534
00539,200026,9.644228,0.618996,1.734152,-0.004435,-0.002666,0.010714,17.173057,-78.718705,-15.908286
00540,200226,9.639464,0.638619,1.742469,-0.008778,-0.000624,0.007784,17.126546,-78.722785,-15.870910
00541,200426,9.652899,0.637650,1.761827,-0.003367,0.000090,0.006088,17.094361,-78.725509,-15.841819
00542,200626,9.667137,0.615433,1.806947,0.001491,-0.000224,0.004095,17.079207,-78.727895,-15.824418
00543,200826,9.693184,0.594090,1.823697,0.006556,0.000286,0.005829,17.059411,-78.730294,-15.796368
00544,201026,9.693887,0.575126,1.783619,0.005430,-0.000597,0.006799,17.034411,-78.733986,-15.764330
00545,201226,9.655289,0.602489,1.755048,0.006427,0.000973,0.008424,16.998949,-78.736507,-15.720459
00546,201426,9.646426,0.634180,1.781170,0.001905,0.000207,0.010128,16.950229,-78.740427,-15.668353
00547,201626,9.661824,0.631811,1.766790,-0.001246,0.000705,0.007745,16.910198,-78.742996,-15.628787
00548,201826,9.685918,0.621474,1.782035,0.000740,0.007116,0.004968,16.877027,-78.737606,-15.593895
00549,202026,9.684908,0.616208,1.761956,0.001047,0.005405,0.000898,16.869521,-78.732739,-15.584811
00550,202226,9.664163,0.629314,1.758070,0.000940,0.002167,-0.001552,16.880824,-78.730611,-15.595029
00551,202426,9.635757,0.642886,1.762553,0.005583,-0.001840,-0.005281,16.924715,-78.731632,-15.633050
00552,202626,9.671881,0.630533,1.794307,0.008546,-0.004939,-0.002842,16.963809,-78.736853,-15.662716
00553,202826,9.698145,0.597622,1.828490,0.009420,-0.003006,-0.002949,17.001227,-78.739903,-15.689653
00554,203026,9.704621,0.584274,1.804888,0.014496,0.001147,-0.002364,17.034201,-78.738591,-15.706130
00555,203226,9.679370,0.625953,1.760809,0.013109,0.000831,-0.003065,17.069995,-78.737393,-15.727102
00556,203426,9.676718,0.631273,1.788843,0.014252,-0.006978,-0.005224,17.132206,-78.744011,-15.773673
00557,203626,9.686983,0.572818,1.823598,0.017605,-0.004902,-0.005730,17.197485,-78.748166,-15.819457
00558,203826,9.705468,0.578412,1.836134,0.014696,0.008961,-0.000507,17.207018,-78.738898,-15.811804
00559,204026,9.685590,0.631529,1.761903,0.014287,0.030328,0.005151,17.148811,-78.708157,-15.735554
00560,204226,9.656552,0.635716,1.727008,0.000391,0.037020,0.002972,17.075795,-78.669348,-15.660429
00561,204426,9.632820,0.581646,1.894486,-0.003860,0.025535,0.003259,17.015918,-78.643174,-15.603667
00562,204626,9.658268,0.592947,1.751482,0.013012,0.046733,0.008677,16.911020,-78.595574,-15.481253
00563,204826,9.653353,0.602118,1.723524,0.018058,0.052609,0.011108,16.790098,-78.542315,-15.336567
00564,205026,9.648888,0.662368,1.853935,0.018351,0.022022,0.007022,16.742356,-78.521207,-15.266189
00565,205226,9.689774,0.684558,1.903063,0.024863,0.007073,-0.002241,16.776591,-78.513412,-15.271841
00566,205426,9.682332,0.659581,1.801482,0.027407,0.024238,-0.005544,16.803664,-78.485695,-15.267207
00567,205626,9.658549,0.600434,1.770955,0.019599,0.044533,-0.004221,16.781783,-78.436169,-15.221739
00568,205826,9.583876,0.609774,1.846628,0.014456,0.044998,-0.001171,16.737251,-78.387128,-15.159156
00569,206026,9.605303,0.626415,1.842415,0.011994,0.036608,-0.000522,16.700293,-78.347497,-15.107177
00570,206226,9.661842,0.612080,1.843169,0.013104,0.028743,0.001786,16.665140,-78.317255,-15.055734
00571,206426,9.721714,0.613051,1.897807,0.019059,0.035603,0.002160,16.624172,-78.279590,-14.991379
00572,206626,9.694340,0.586451,1.878348,0.026677,0.046865,0.002411,16.573207,-78.229631,-14.907889
00573,206826,9.627869,0.632940,1.840045,0.028254,0.046265,-0.000011,16.538288,-78.179533,-14.838926
00574,207026,9.607565,0.636316,1.854242,0.016510,0.034878,0.001191,16.501740,-78.142331,-14.782038
00575,207226,9.613346,0.657558,1.913025,0.012549,0.036218,0.002655,16.451285,-78.104110,-14.715567
00576,207426,9.621521,0.633086,1.837217,0.013534,0.038920,0.003900,16.391752,-78.063323,-14.638654
00577,207626,9.646085,0.611892,1.885047,0.017204,0.023850,0.005249,16.352776,-78.039529,-14.578444
00578,207826,9.663713,0.623088,1.966958,0.019459,0.018692,0.005881,16.321092,-78.021586,-14.523043
00579,208026,9.662614,0.640647,1.960641,0.019708,0.027455,0.005896,16.276506,-77.993987,-14.454156
00580,208226,9.642187,0.598021,1.901992,0.015746,0.039596,0.006234,16.207661,-77.953128,-14.365100
00581,208426,9.622053,0.609546,1.896654,0.013287,0.046234,0.008289,16.116100,-77.905600,-14.255682
00582,208626,9.599562,0.644847,1.884778,0.015316,0.033085,0.008504,16.045935,-77.872591,-14.165751
00583,208826,9.597517,0.648963,1.922445,0.013897,0.023872,0.005085,16.005594,-77.848628,-14.107976
00584,209026,9.602501,0.663081,1.920492,0.013605,0.025958,0.002160,15.977055,-77.821433,-14.062609
00585,209226,9.626561,0.643757,1.911257,0.011086,0.027404,0.002511,15.941940,-77.792756,-14.013460
00586,209426,9.622633,0.623210,1.944232,0.006075,0.019064,0.003436,15.908661,-77.773552,-13.972061
00587,209626,9.624076,0.621252,1.965612,0.006223,0.015847,0.002116,15.887006,-77.757469,-13.942379
00588,209826,9.594721,0.632328,1.959519,0.010263,0.025876,-0.001759,15.875247,-77.729109,-13.918084
00589,210026,9.582037,0.629855,1.890941,0.007669,0.025522,-0.002386,15.864310,-77.700956,-13.897668
00590,210226,9.622548,0.632637,1.924610,0.006991,0.012909,-0.000700,15.862253,-77.687241,-13.887133
00591,210426,9.634841,0.639259,1.956265,0.004900,0.003438,-0.002490,15.880452,-77.683405,-13.899783
00592,210626,9.642916,0.635900,1.995811,0.003973,0.004497,-0.005226,15.909859,-77.677531,-13.924992
00593,210826,9.629421,0.624200,1.937137,0.010038,0.027432,-0.004965,15.911916,-77.646471,-13.915091
00594,211026,9.580570,0.572172,1.917575,0.003422,0.026817,-0.005137,15.908107,-77.616049,-13.906947
00595,211226,9.528361,0.635772,2.019424,-0.007096,0.006197,-0.004064,15.916350,-77.608667,-13.923483
00596,211426,9.586336,0.661639,1.955404,-0.006787,0.002947,0.002184,15.898303,-77.606828,-13.912737
00597,211626,9.574037,0.645926,1.864605,0.003903,0.005171,0.001823,15.891206,-77.602450,-13.900657
00598,211826,9.609055,0.621949,1.927839,0.009226,-0.014183,0.002893,15.912498,-77.619747,-13.911397
00599,212026,9.605612,0.635629,1.954464,0.008761,-0.037605,-0.001189,15.987549,-77.661565,-13.977716
00600,212226,9.606082,0.675289,1.959303,0.008034,-0.031424,-0.004644,16.070755,-77.695457,-14.053224
00601,212426,9.544080,0.625898,1.881674,0.006050,-0.016126,-0.007659,16.144989,-77.711541,-14.121868
00602,212626,9.594922,0.613625,1.928702,0.005520,-0.022449,-0.001792,16.198393,-77.736443,-14.169812
00603,212826,9.643577,0.610367,1.988132,0.005569,-0.024944,-0.000552,16.249403,-77.764469,-14.215246
00604,213026,9.668257,0.659765,1.978326,-0.000389,-0.025399,0.002191,16.280544,-77.793858,-14.247332
00605,213226,9.625028,0.681661,1.924931,-0.002357,-0.025044,-0.000234,16.321468,-77.822069,-14.291727
00606,213426,9.601479,0.638468,1.915698,-0.001340,-0.023597,-0.002856,16.374976,-77.847837,-14.347800
00607,213626,9.584791,0.628372,1.884866,0.003119,-0.017303,-0.002521,16.422628,-77.866791,-14.392651
00608,213826,9.592762,0.608130,1.892573,0.002289,-0.023525,-0.002238,16.477409,-77.892673,-14.445765
00609,214026,9.637299,0.657179,1.959391,-0.007435,-0.032751,0.001588,16.515677,-77.929912,-14.493380
00610,214226,9.662121,0.674868,1.926158,-0.011390,-0.029220,0.002103,16.541652,-77.963428,-14.533053
00611,214426,9.653634,0.641520,1.928070,-0.013530,-0.022510,0.002530,16.552830,-77.989702,-14.560101
00612,214626,9.632545,0.647773,1.915623,-0.008743,-0.022477,0.002787,16.568207,-78.016017,-14.585831
00613,214826,9.627027,0.643615,1.913680,-0.006356,-0.026940,0.000555,16.604888,-78.046492,-14.630540
00614,215026,9.653798,0.615545,1.912425,-0.007362,-0.025523,0.000589,16.638201,-78.075413,-14.672982
00615,215226,9.659122,0.609597,1.913493,-0.010352,-0.015900,0.002680,16.642326,-78.094447,-14.689095
00616,215426,9.625185,0.629932,1.910875,-0.008603,-0.011390,0.004758,16.630598,-78.109202,-14.686958
00617,215626,9.615203,0.676055,1.894494,-0.003526,-0.015379,0.001680,16.647018,-78.127318,-14.707638
00618,215826,9.624686,0.671261,1.842131,-0.004517,-0.021163,-0.000119,16.680891,-78.151195,-14.747309
00619,216026,9.636622,0.620940,1.866074,-0.008909,-0.027774,-0.000143,16.720399,-78.182317,-14.797876
00620,216226,9.639181,0.591986,1.867101,-0.008433,-0.028745,0.002581,16.747845,-78.215400,-14.835561
00621,216426,9.632729,0.636718,1.878466,-0.008552,-0.025636,0.005448,16.755279,-78.246010,-14.852939
00622,216626,9.636627,0.651082,1.860926,-0.008227,-0.015672,0.002097,16.765013,-78.264575,-14.872283
00623,216826,9.658643,0.624797,1.856208,-0.006688,-0.013981,0.000349,16.783094,-78.280707,-14.898352
00624,217026,9.639612,0.627662,1.878050,-0.008911,-0.016753,0.001185,16.798682,-78.300148,-14.924474
00625,217226,9.641650,0.660079,1.896580,-0.014083,-0.022771,0.001346,16.817229,-78.326227,-14.959668
00626,217426,9.639536,0.649319,1.855909,0.001955,0.002471,-0.000039,16.821080,-78.324153,-14.961088
00627,217626,9.639458,0.585577,1.768004,-0.003927,0.009523,0.000360,16.804743,-78.314500,-14.948775
00628,217826,9.645129,0.530780,1.925885,-0.016596,0.000688,0.003690,16.770230,-78.315628,-14.932734
00629,218026,9.663831,0.617100,1.907232,-0.003292,0.013937,0.008495,16.704318,-78.303787,-14.869062
00630,218226,9.633484,0.632625,1.790860,0.005992,0.025541,0.006690,16.640404,-78.278616,-14.796558
00631,218426,9.640631,0.660901,1.827473,-0.003229,0.015677,0.006757,16.581445,-78.264288,-14.739900
00632,218626,9.629560,0.652179,1.839083,-0.001073,-0.009734,0.002246,16.588930,-78.276388,-14.748577
00633,218826,9.650793,0.649194,1.880541,0.006442,-0.018009,-0.002212,16.641775,-78.296105,-14.794784
00634,219026,9.648595,0.615792,1.875804,0.010705,0.002552,-0.003801,16.675409,-78.292716,-14.816382
00635,219226,9.632892,0.596712,1.847527,0.004707,0.018060,-0.001984,16.667906,-78.272901,-14.802989
00636,219426,9.616653,0.614973,1.817325,-0.002794,0.010422,-0.000022,16.653551,-78.262126,-14.791376
00637,219626,9.653843,0.616848,1.844018,-0.004870,0.001596,0.003432,16.632521,-78.262178,-14.775376
00638,219826,9.667845,0.626489,1.850871,-0.004516,-0.006363,0.003702,16.623026,-78.271059,-14.770742
00639,220026,9.664303,0.630211,1.868499,-0.008841,-0.005503,0.004434,16.603333,-78.279233,-14.760756
00640,220226,9.670787,0.643243,1.877408,-0.007449,-0.000170,0.004913,16.574279,-78.281698,-14.739581
00641,220426,9.607919,0.592694,1.820598,-0.004676,0.001462,0.003294,16.554369,-78.281850,-14.724499
00642,220626,9.605674,0.600950,1.828308,-0.004306,-0.010524,0.002799,16.556354,-78.295010,-14.731347
00643,220826,9.623019,0.624554,1.822098,-0.006118,-0.016912,0.002329,16.568869,-78.315037,-14.751067
00644,221026,9.649724,0.647917,1.826183,-0.009154,-0.027102,0.003092,16.590093,-78.346507,-14.783229
00645,221226,9.661648,0.637340,1.847602,-0.011033,-0.028724,0.003140,16.611648,-78.379770,-14.817924
00646,221426,9.643847,0.604047,1.842752,-0.009073,-0.022137,0.001489,16.633887,-78.405252,-14.851025
00647,221626,9.651305,0.593663,1.817427,-0.004821,-0.019034,0.003718,16.644161,-78.428063,-14.866935
00648,221826,9.646880,0.616555,1.801871,-0.003864,-0.022195,0.002225,16.668702,-78.453861,-14.896286
00649,222026,9.617366,0.669485,1.799715,-0.004696,-0.025272,-0.000137,16.710173,-78.482252,-14.943885
00650,222226,9.643127,0.635889,1.769389,-0.001557,-0.021079,-0.003561,16.767164,-78.504916,-15.003644
00651,222426,9.677979,0.605348,1.763686,-0.003233,-0.021023,-0.002281,16.815460,-78.527946,-15.056487
00652,222626,9.670890,0.605221,1.812285,-0.010891,-0.023827,-0.001907,16.857715,-78.554162,-15.112116
00653,222826,9.657767,0.632277,1.824532,-0.009181,-0.027622,-0.003958,16.919568,-78.583845,-15.185734
00654,223026,9.658908,0.600102,1.784635,0.001501,-0.024407,-0.004715,16.992784,-78.609739,-15.258449
00655,223226,9.645858,0.595576,1.753916,-0.000267,-0.019500,-0.002030,17.041444,-78.631147,-15.308186
00656,223426,9.624444,0.655905,1.775059,-0.009901,-0.022167,-0.002085,17.084072,-78.655456,-15.363014
00657,223626,9.630877,0.673567,1.799061,-0.008408,-0.023929,-0.002492,17.133896,-78.681543,-15.423436
00658,223826,9.676130,0.628223,1.796461,-0.009176,-0.020488,-0.005758,17.195136,-78.702729,-15.496396
00659,224026,9.704977,0.604500,1.781215,-0.006563,-0.010951,-0.003775,17.232476,-78.714147,-15.541916
00660,224226,9.656753,0.611078,1.726161,0.005634,0.000738,-0.002995,17.259704,-78.713052,-15.562884
00661,224426,9.654374,0.592448,1.757338,-0.014650,0.000544,-0.001167,17.253918,-78.712783,-15.573886
00662,224626,9.656177,0.605048,1.905961,-0.025944,-0.011859,0.005238,17.221102,-78.728239,-15.570519
00663,224826,9.636258,0.638212,1.718392,-0.000137,0.015256,0.006765,17.163413,-78.714544,-15.511628
00664,225026,9.655749,0.592215,1.664538,-0.002325,0.017895,0.006776,17.098851,-78.697969,-15.448304
00665,225226,9.638452,0.680226,1.755164,-0.007179,-0.006646,0.004228,17.084242,-78.707417,-15.441570
00666,225426,9.654441,0.689586,1.783037,-0.003667,-0.026786,-0.002827,17.146560,-78.736535,-15.509174
00667,225626,9.660435,0.638780,1.744775,-0.000512,-0.013873,-0.005650,17.206365,-78.750544,-15.570532
00668,225826,9.653248,0.587748,1.749360,-0.005780,-0.003321,-0.001464,17.219162,-78.754424,-15.590113
00669,226026,9.657655,0.618737,1.809317,-0.010159,-0.003024,0.001871,17.208056,-78.759101,-15.590435
00670,226226,9.658767,0.630878,1.772429,-0.008155,-0.002334,0.002101,17.196788,-78.763092,-15.588260
00671,226426,9.664426,0.619406,1.735258,-0.005561,-0.002697,0.001247,17.193828,-78.767201,-15.591516
00672,226626,9.680119,0.579910,1.734620,-0.003990,-0.004029,0.003854,17.180509,-78.773662,-15.582375
00673,226826,9.676037,0.600500,1.811590,0.000114,-0.002959,0.004078,17.168773,-78.779013,-15.570065
00674,227026,9.655892,0.621859,1.740170,0.007408,0.002455,0.001048,17.172890,-78.777421,-15.565386
00675,227226,9.654575,0.583914,1.711730,0.001541,-0.003452,0.002587,17.171840,-78.782831,-15.562297
00676,227426,9.649930,0.614798,1.735435,0.000233,-0.010445,0.006873,17.157531,-78.797347,-15.547226
00677,227626,9.635713,0.659070,1.725523,0.000220,-0.016521,0.005385,17.161865,-78.818020,-15.551165
00678,227826,9.658398,0.685542,1.794067,-0.004616,-0.021529,0.003443,17.180108,-78.843501,-15.574933
00679,228026,9.704496,0.625547,1.770111,-0.006667,-0.013522,0.003916,17.179681,-78.860370,-15.582067
00680,228226,9.707471,0.565488,1.737514,-0.001620,-0.004948,0.006336,17.156774,-78.868682,-15.560393
00681,228426,9.677706,0.594214,1.769133,0.004732,-0.000894,0.009020,17.119175,-78.873455,-15.516332
00682,228626,9.711839,0.614227,1.827731,0.009087,0.004620,0.009031,17.076991,-78.872166,-15.462514
00683,228826,9.709021,0.607043,1.777809,0.013878,0.016294,0.008774,17.021831,-78.857991,-15.389872
00684,229026,9.693691,0.601746,1.743574,0.017789,0.022477,0.007120,16.970021,-78.836478,-15.316072
00685,229226,9.666031,0.627263,1.773941,0.021579,0.021866,0.007114,16.923860,-78.815613,-15.243601
00686,229426,9.682188,0.620803,1.784906,0.023350,0.020025,0.005843,16.890089,-78.796331,-15.181680
00687,229626,9.725348,0.598069,1.804050,0.020714,0.031968,0.008816,16.817060,-78.764922,-15.082815
00688,229826,9.690235,0.566422,1.789887,0.017752,0.048132,0.011433,16.699925,-78.716608,-14.942427
00689,230026,9.687198,0.589076,1.802659,0.016181,0.065551,0.014015,16.539577,-78.649950,-14.759772
00690,230226,9.690681,0.600545,1.829315,0.011432,0.078614,0.014527,16.352141,-78.568988,-14.554987
00691,230426,9.667883,0.610098,1.809889,0.014967,0.076495,0.012378,16.186431,-78.489535,-14.368189
00692,230626,9.646878,0.586567,1.807459,0.012500,0.064200,0.012920,16.036392,-78.423714,-14.200207
00693,230826,9.666810,0.604444,1.843178,0.011352,0.064275,0.015635,15.872185,-78.358564,-14.019062
00694,231026,9.605124,0.641913,1.844316,0.019545,0.068781,0.013634,15.723185,-78.287687,-13.843853
00695,231226,9.625998,0.650244,1.856588,0.012758,0.064531,0.007361,15.607931,-78.219504,-13.710948
00696,231426,9.649108,0.566601,1.941249,-0.001649,0.043609,0.008939,15.499810,-78.174838,-13.602163
00697,231626,9.664513,0.572818,1.788255,0.008056,0.057084,0.013729,15.358933,-78.116686,-13.448569
00698,231826,9.642324,0.601729,1.877211,0.012514,0.057478,0.013040,15.227703,-78.057866,-13.299549
00699,232026,9.622448,0.636269,1.972237,0.015756,0.031795,0.007017,15.169125,-78.025559,-13.220975
00700,232226,9.672034,0.611954,1.966003,0.028283,0.025549,0.000270,15.169133,-77.998096,-13.187634
00701,232426,9.655166,0.570380,1.881496,0.029375,0.041841,-0.002114,15.159950,-77.951925,-13.143600
00702,232626,9.592276,0.590349,1.860464,0.016392,0.048450,-0.000153,15.116803,-77.899040,-13.080039
00703,232826,9.567120,0.646387,1.909415,0.008411,0.033312,-0.003258,15.101991,-77.861962,-13.054803
00704,233026,9.610038,0.622531,1.928281,0.003441,0.019625,-0.001694,15.092548,-77.840493,-13.040876
00705,233226,9.633367,0.577295,1.916653,0.005079,0.017192,0.000573,15.076743,-77.822398,-13.018523
00706,233426,9.637446,0.585840,1.942214,0.010489,0.012998,-0.000034,15.076058,-77.808760,-13.005296
00707,233626,9.614365,0.621779,1.970120,0.016981,0.004741,-0.000937,15.098851,-77.803980,-13.008475
00708,233826,9.604159,0.636568,1.931158,0.009855,0.009221,-0.004772,15.126944,-77.793097,-13.025430
00709,234026,9.607814,0.618536,1.955536,0.007254,0.011819,-0.005291,15.151090,-77.779177,-13.041396
00710,234226,9.604341,0.604541,1.944963,0.005970,0.008576,-0.003023,15.166633,-77.769522,-13.050064
00711,234426,9.620235,0.578973,1.941852,0.005705,0.003452,-0.002254,15.184996,-77.765766,-13.061929
00712,234626,9.618474,0.596578,1.954950,0.007642,-0.001564,-0.001494,15.208634,-77.767782,-13.076922
00713,234826,9.601848,0.591097,1.933868,0.006372,-0.001238,-0.004250,15.244414,-77.768610,-13.105828
00714,235026,9.586424,0.595850,1.891791,0.007272,0.001280,-0.005407,15.283626,-77.766312,-13.137191
00715,235226,9.603500,0.593514,1.902984,0.009449,0.002272,-0.003407,15.313742,-77.763528,-13.156692
00716,235426,9.631443,0.589026,1.932256,0.010848,0.000869,-0.001202,15.336158,-77.762966,-13.166677
00717,235626,9.631128,0.595357,1.970003,0.010077,0.003763,-0.000869,15.351922,-77.759302,-13.170759
00718,235826,9.612354,0.596596,1.958702,0.012680,0.005011,-0.000562,15.367340,-77.754349,-13.171437
00719,236026,9.589977,0.606669,1.930198,0.015949,-0.002159,0.000626,15.390493,-77.757681,-13.176195
00720,236226,9.566817,0.635040,1.925746,0.017123,-0.008857,0.000858,15.423260,-77.768483,-13.189412
00721,236426,9.604036,0.618324,1.890840,0.007920,-0.009427,0.001433,15.443414,-77.780099,-13.200513
00722,236626,9.597865,0.604267,1.855694,0.003787,-0.014116,0.001999,15.462611,-77.797086,-13.215478
00723,236826,9.577773,0.627694,1.880533,0.002312,-0.022616,0.000794,15.498412,-77.823100,-13.249158
00724,237026,9.556821,0.625358,1.889786,0.004199,-0.032569,0.000104,15.554296,-77.859888,-13.301165
00725,237226,9.578740,0.623367,1.880441,0.003065,-0.030812,-0.000809,15.611404,-77.894452,-13.355744
00726,237426,9.637766,0.599263,1.867885,0.003854,-0.024466,0.000152,15.655599,-77.922312,-13.396188
00727,237626,9.604328,0.613893,1.860844,0.004400,-0.022814,0.001097,15.693348,-77.948644,-13.429395
00728,237826,9.646583,0.622883,1.900751,-0.007938,-0.024913,-0.001935,15.735870,-77.976347,-13.481935
00729,238026,9.600637,0.602063,1.961720,-0.010785,-0.032283,-0.001671,15.784754,-78.012233,-13.544312
00730,238226,9.617735,0.626045,1.869220,0.000451,-0.014781,0.004090,15.791095,-78.030612,-13.550030
00731,238426,9.605368,0.632503,1.844663,-0.001117,-0.023893,0.004946,15.804672,-78.059313,-13.564979
00732,238626,9.644697,0.643811,1.958021,-0.002477,-0.038301,0.004309,15.841464,-78.103678,-13.605244
00733,238826,9.671728,0.637367,1.928074,-0.006948,-0.046738,-0.001199,15.914972,-78.155594,-13.688258
00734,239026,9.665545,0.619857,1.873580,-0.000959,-0.019142,-0.005225,15.975605,-78.175816,-13.751094
00735,239226,9.632875,0.569610,1.838119,-0.002431,-0.001675,-0.003667,16.000099,-78.177288,-13.778730
00736,239426,9.633838,0.593502,1.908725,-0.006909,-0.006214,0.000418,16.004784,-78.185038,-13.791372
00737,239626,9.654514,0.627173,1.939420,-0.006310,-0.008147,0.003412,15.997298,-78.195846,-13.790879
00738,239826,9.675433,0.625392,1.881174,-0.008555,-0.002271,0.003488,15.977962,-78.200200,-13.780909
00739,240026,9.670567,0.602304,1.862385,-0.007780,0.001969,0.001041,15.966001,-78.199114,-13.777566
00740,240226,9.632425,0.604766,1.917924,0.001413,0.007313,0.000322,15.960278,-78.191902,-13.769835
00741,240426,9.614449,0.616203,1.847688,0.005925,0.017656,-0.001327,15.952863,-78.172777,-13.755091
00742,240626,9.615075,0.614042,1.862552,-0.001490,0.010251,-0.000579,15.944184,-78.162047,-13.747737
00743,240826,9.630874,0.625935,1.880674,-0.007083,0.008128,0.003508,15.910835,-78.154939,-13.721722
00744,241026,9.640608,0.640670,1.893866,-0.012656,0.007414,0.003841,15.870485,-78.148711,-13.695079
00745,241226,9.649694,0.615355,1.908520,-0.011285,0.008974,0.003553,15.830924,-78.140662,-13.667636
00746,241426,9.644120,0.591808,1.880473,-0.006208,0.018938,0.002502,15.787940,-78.121297,-13.630749
00747,241626,9.633308,0.585631,1.837047,-0.001818,0.020208,0.004692,15.736761,-78.101220,-13.580344
00748,241826,9.640380,0.614226,1.886752,-0.003323,0.010545,0.005561,15.693687,-78.092062,-13.539981
00749,242026,9.642079,0.635986,1.905727,-0.010835,0.007744,0.008632,15.630149,-78.086932,-13.487499
00750,242226,9.629464,0.628385,1.875597,-0.011655,0.013222,0.007203,15.565249,-78.075305,-13.434583
00751,242426,9.615269,0.605722,1.862982,-0.007623,0.010896,0.005414,15.517807,-78.065690,-13.394786
00752,242626,9.626115,0.610209,1.911591,-0.007674,0.002282,0.005284,15.483525,-78.065537,-13.368497
00753,242826,9.634067,0.590552,1.924565,-0.000110,-0.004527,0.003150,15.478888,-78.072243,-13.363651
00754,243026,9.649528,0.562762,1.908468,0.002639,0.004808,0.002631,15.466548,-78.068478,-13.347714
00755,243226,9.642283,0.616263,1.842452,-0.002649,0.008522,0.004360,15.433797,-78.061151,-13.317106
00756,243426,9.615095,0.629777,1.866933,-0.008643,0.000730,0.003803,15.408389,-78.062260,-13.301022
00757,243626,9.632732,0.613694,1.921242,-0.009359,-0.007534,0.003341,15.396475,-78.072350,-13.299571
00758,243826,9.635809,0.601245,1.952205,-0.011458,-0.008744,0.000763,15.397361,-78.082977,-13.313656
00759,244026,9.669382,0.578400,1.925467,0.004031,0.005032,0.002965,15.384582,-78.079049,-13.295643
00760,244226,9.622859,0.568674,1.814130,0.000006,0.008983,0.003927,15.356478,-78.071064,-13.266681
00761,244426,9.607182,0.579317,1.929106,-0.014222,0.002197,0.003827,15.322327,-78.070539,-13.248197
00762,244626,9.620515,0.594315,1.983979,-0.008623,-0.003080,0.005312,15.294346,-78.076268,-13.229469
00763,244826,9.622391,0.610845,1.814178,0.000504,0.014682,0.006799,15.243697,-78.062823,-13.176880
00764,245026,9.630597,0.600046,1.885119,-0.009195,0.009052,0.009097,15.178050,-78.056293,-13.120312
00765,245226,9.621327,0.617106,1.909612,-0.007669,-0.018316,0.002496,15.187566,-78.078032,-13.138792
00766,245426,9.665036,0.636615,1.921165,0.004202,-0.023495,-0.003128,15.247690,-78.103792,-13.195090
00767,245626,9.625595,0.621514,1.888198,0.005016,-0.011937,-0.004264,15.298395,-78.116433,-13.240786
00768,245826,9.626422,0.597180,1.880736,-0.005432,-0.009712,-0.003516,15.330081,-78.126821,-13.279306
00769,246026,9.636569,0.587530,1.868056,-0.007868,-0.012555,-0.001379,15.351886,-78.140994,-13.310579
00770,246226,9.641061,0.577342,1.878270,-0.010981,-0.014541,0.001355,15.358658,-78.158208,-13.330121
00771,246426,9.666329,0.608431,1.885569,-0.013282,-0.017552,0.004328,15.351496,-78.179643,-13.338108
00772,246626,9.667216,0.616913,1.878076,-0.010714,-0.018571,0.000179,15.370744,-78.200936,-13.370107
00773,246826,9.641281,0.602650,1.906413,-0.001121,-0.009059,-0.000427,15.390468,-78.211560,-13.391312
00774,247026,9.615844,0.560263,1.853368,-0.001572,-0.000704,-0.001391,15.402532,-78.212624,-13.405270
00775,247226,9.642923,0.542690,1.872887,-0.002585,-0.007664,0.000535,15.413352,-78.221967,-13.419157
00776,247426,9.655486,0.578707,1.850672,-0.000029,-0.013256,0.002651,15.424142,-78.238172,-13.429994
00777,247626,9.646811,0.616984,1.852446,-0.008438,-0.018285,0.003402,15.428686,-78.260140,-13.444292
00778,247826,9.642520,0.622448,1.886777,-0.011140,-0.020956,0.003817,15.431804,-78.285145,-13.460266
00779,248026,9.645560,0.588902,1.868903,-0.008999,-0.017675,0.003979,15.431943,-78.306659,-13.470691
00780,248226,9.667964,0.554250,1.861421,-0.004304,-0.010078,0.006124,15.414634,-78.320370,-13.457851
00781,248426,9.654098,0.578113,1.855893,-0.003459,-0.004455,0.007656,15.381739,-78.328317,-13.428127
00782,248626,9.645088,0.612071,1.864562,-0.002709,0.000453,0.008348,15.338844,-78.331089,-13.387243
00783,248826,9.655281,0.598732,1.859693,-0.000359,0.000518,0.005517,15.313726,-78.332926,-13.361792
00784,249026,9.647370,0.611733,1.844732,-0.006624,0.000022,0.005573,15.281758,-78.335278,-13.336691
00785,249226,9.640345,0.606508,1.854201,-0.009633,-0.000156,0.005404,15.247666,-78.337837,-13.312897
00786,249426,9.646868,0.570594,1.854821,-0.005126,-0.004978,0.005023,15.227749,-78.345588,-13.298335
00787,249626,9.641765,0.584403,1.862036,0.003190,-0.007085,0.002062,15.236192,-78.354725,-13.303043
00788,249826,9.655926,0.572008,1.856225,0.006750,-0.010196,0.000339,15.262608,-78.366832,-13.321874
00789,250026,9.649282,0.578583,1.828237,0.004917,-0.008895,0.000527,15.284020,-78.377546,-13.337758
00790,250226,9.647443,0.596148,1.823234,-0.000758,-0.007222,0.001178,15.292984,-78.386600,-13.347568
00791,250426,9.651971,0.626183,1.896232,-0.000232,-0.008567,-0.001160,15.317206,-78.396432,-13.372332
00792,250626,9.673405,0.596362,1.878504,0.005180,-0.006105,-0.003185,15.354904,-78.402907,-13.404530
00793,250826,9.670331,0.515581,1.876206,0.010192,-0.004039,-0.004502,15.402325,-78.406693,-13.440794
00794,251026,9.657440,0.550339,1.864753,0.020896,0.004871,-0.001772,15.434050,-78.401465,-13.448505
00795,251226,9.673077,0.570229,1.803630,0.013867,0.008695,-0.001733,15.451791,-78.392032,-13.450170
00796,251426,9.667786,0.562755,1.952025,0.005530,-0.004772,0.000273,15.469137,-78.398061,-13.461190
00797,251626,9.672605,0.551662,1.892381,0.021360,0.015231,0.004454,15.452348,-78.383271,-13.418837
00798,251826,9.664839,0.539090,1.772423,0.024330,0.040099,0.007212,15.387494,-78.341865,-13.323940
00799,252026,9.674608,0.597728,1.856572,0.019791,0.033947,0.007947,15.323075,-78.307453,-13.234779
00800,252226,9.666333,0.656389,1.937853,0.021301,0.018452,0.004496,15.301856,-78.289099,-13.187962
00801,252426,9.680440,0.637621,1.905137,0.025641,0.033763,0.000607,15.284191,-78.252626,-13.139689
00802,252626,9.680397,0.551013,1.885952,0.023534,0.062425,0.000715,15.222409,-78.184497,-13.048808
00803,252826,9.625819,0.551002,1.875305,0.018714,0.070327,0.005141,15.121480,-78.108942,-12.923535
00804,253026,9.603348,0.607527,1.867923,0.012882,0.061670,0.008695,15.008867,-78.043967,-12.793132
00805,253226,9.654248,0.589116,1.948357,0.011229,0.058903,0.011348,14.885693,-77.982780,-12.653832
00806,253426,9.685863,0.594153,1.957077,0.023775,0.061240,0.008922,14.787566,-77.918238,-12.525395
00807,253626,9.685005,0.555018,1.943486,0.038002,0.057092,0.008073,14.716826,-77.857996,-12.408292
00808,253826,9.638051,0.571698,1.942815,0.035587,0.062818,0.005182,14.651368,-77.790534,-12.299370
00809,254026,9.585204,0.583926,1.931502,0.024657,0.058408,0.005482,14.578777,-77.728063,-12.195930
00810,254226,9.575410,0.602969,1.951917,0.018190,0.055657,0.005633,14.502532,-77.668637,-12.096347
00811,254426,9.600057,0.587881,1.919290,0.017916,0.049925,0.009999,14.412108,-77.616769,-11.982513
00812,254626,9.656748,0.588402,2.031387,0.019934,0.040478,0.008852,14.342868,-77.575063,-11.887990
00813,254826,9.640151,0.571068,2.048553,0.023500,0.035130,0.007349,14.292585,-77.538828,-11.808675
00814,255026,9.619081,0.599028,1.983996,0.021496,0.030760,0.004697,14.259218,-77.506664,-11.749038
00815,255226,9.602235,0.578983,1.910403,0.017064,0.029831,0.004344,14.224049,-77.475484,-11.692738
00816,255426,9.573896,0.599873,1.927816,0.014970,0.012942,0.003948,14.210023,-77.462947,-11.660561
00817,255626,9.586980,0.631421,2.000695,0.012743,-0.015145,0.001833,14.239625,-77.481002,-11.675684
00818,255826,9.636579,0.641330,2.043118,0.010457,-0.018000,-0.000024,14.279685,-77.501706,-11.704197
00819,256026,9.646356,0.575492,2.014131,0.007758,-0.002992,-0.002677,14.310846,-77.504976,-11.726777
00820,256226,9.627364,0.549878,1.968305,0.006687,-0.000286,-0.000933,14.328558,-77.505749,-11.736835
00821,256426,9.598058,0.576038,1.967912,0.009291,-0.009516,-0.002663,14.369762,-77.516286,-11.767891
00822,256626,9.583091,0.636771,2.011545,0.012077,-0.016136,-0.004266,14.430849,-77.533694,-11.816046
00823,256826,9.616486,0.624830,1.994431,0.010769,-0.008510,-0.006949,14.494194,-77.541857,-11.868041
00824,257026,9.604276,0.586362,1.962050,0.001156,0.006674,-0.005986,14.521999,-77.533453,-11.894916
00825,257226,9.589295,0.601775,1.956390,-0.003267,-0.001336,-0.004181,14.546090,-77.534454,-11.923185
00826,257426,9.582156,0.620441,1.982009,-0.003438,-0.012196,-0.005768,14.592159,-77.547036,-11.974158
00827,257626,9.598991,0.591330,1.994858,0.001663,-0.014049,-0.008611,14.660886,-77.560837,-12.042338
00828,257826,9.661984,0.558394,1.960184,0.011539,0.008987,-0.007989,14.707519,-77.549278,-12.076315
00829,258026,9.609726,0.548378,1.925909,0.011853,0.017200,-0.007123,14.739224,-77.528879,-12.094640
00830,258226,9.570112,0.577346,2.046009,0.002388,0.011777,-0.006936,14.766182,-77.514533,-12.119205
00831,258426,9.555572,0.612931,1.999698,-0.004646,-0.005868,-0.005636,14.801842,-77.520103,-12.160946
00832,258626,9.565804,0.608529,1.853632,0.006654,0.001221,-0.001622,14.821036,-77.519020,-12.172554
00833,258826,9.600915,0.617056,1.954275,0.009013,-0.015128,-0.000416,14.858623,-77.536409,-12.200229
00834,259026,9.576918,0.632457,1.995383,0.011632,-0.036967,-0.004957,14.951350,-77.576626,-12.281295
00835,259226,9.613058,0.660445,2.017644,0.010717,-0.030019,-0.010571,15.062507,-77.607443,-12.382292
00836,259426,9.557336,0.634760,1.881536,0.007857,-0.006757,-0.013110,15.151994,-77.611747,-12.464449
00837,259626,9.551657,0.603515,1.867481,0.003393,-0.022414,-0.008634,15.235373,-77.634701,-12.545584
00838,259826,9.609234,0.623270,1.979283,0.005311,-0.036405,-0.007236,15.333577,-77.673510,-12.639636
00839,260026,9.651215,0.629790,2.020374,0.005488,-0.029779,-0.005938,15.416740,-77.705349,-12.718071
00840,260226,9.659030,0.639885,1.972980,0.006126,-0.016493,-0.004422,15.474678,-77.722947,-12.769938
00841,260426,9.629294,0.619572,1.955201,0.005228,-0.015797,-0.008092,15.549406,-77.738639,-12.840036
00842,260626,9.605187,0.616106,1.941875,0.006228,-0.010582,-0.006862,15.611795,-77.748937,-12.896330
00843,260826,9.578025,0.605071,1.891966,0.003949,-0.008887,-0.005700,15.663339,-77.757720,-12.944199
00844,261026,9.604827,0.629073,1.937483,0.003516,-0.022968,-0.001584,15.713673,-77.783304,-12.991331
00845,261226,9.636528,0.636199,1.948043,0.000624,-0.027895,-0.000122,15.760532,-77.814765,-13.038295
00846,261426,9.660266,0.651132,1.969357,-0.002489,-0.025941,0.001329,15.793824,-77.844506,-13.075026
00847,261626,9.644670,0.651352,1.959015,-0.006500,-0.024099,0.001752,15.817845,-77.872335,-13.106971
00848,261826,9.616459,0.633976,1.929207,-0.009874,-0.015543,0.002137,15.823674,-77.890848,-13.124257
00849,262026,9.626919,0.608198,1.900236,-0.006320,-0.008899,0.001590,15.826720,-77.901865,-13.134537
00850,262226,9.637696,0.615238,1.891136,-0.001373,-0.009155,0.001041,15.838640,-77.913000,-13.148091
00851,262426,9.619052,0.649329,1.927129,-0.004344,-0.016029,0.000779,15.858611,-77.931625,-13.173357
00852,262626,9.643597,0.655822,1.918696,-0.004379,-0.009862,-0.002363,15.885802,-77.942461,-13.206050
00853,262826,9.645094,0.616353,1.888245,-0.005142,0.000347,-0.002046,15.895508,-77.942149,-13.221756
00854,263026,9.619262,0.615554,1.886893,-0.002881,0.001002,-0.001391,15.903458,-77.941326,-13.233013
00855,263226,9.604837,0.634632,1.928306,-0.003120,-0.013611,-0.001226,15.931800,-77.956648,-13.265408
00856,263426,9.633415,0.636013,1.946203,0.000321,-0.013954,-0.002587,15.971697,-77.971905,-13.305580
00857,263626,9.623157,0.641480,1.863165,-0.000742,-0.002047,-0.002801,15.993951,-77.973983,-13.328957
00858,263826,9.623686,0.635334,1.857816,0.001365,-0.001564,-0.003012,16.019015,-77.975466,-13.352736
00859,264026,9.651679,0.629911,1.917411,-0.001541,-0.011025,-0.000834,16.043555,-77.988053,-13.379387
00860,264226,9.634785,0.661386,1.958079,-0.003843,-0.017304,-0.002434,16.083197,-78.007033,-13.424168
00861,264426,9.663593,0.665528,1.924815,-0.001945,-0.004090,-0.002155,16.103918,-78.011535,-13.447386
00862,264626,9.610964,0.641094,1.842350,-0.000597,0.011563,-0.003728,16.110936,-77.998317,-13.455012
00863,264826,9.618554,0.582302,1.863871,-0.012489,0.010157,-0.003198,16.103643,-77.986832,-13.461932
00864,265026,9.632610,0.603933,1.989136,-0.014208,-0.004717,0.001476,16.092337,-77.993175,-13.466782
00865,265226,9.609520,0.650308,1.869850,0.000921,0.011619,0.002225,16.070152,-77.981782,-13.442763
00866,265426,9.645697,0.646271,1.874962,-0.004645,0.009726,0.003684,16.036969,-77.972954,-13.414025
00867,265626,9.656465,0.678172,1.908532,-0.009003,-0.005264,0.001503,16.032374,-77.979913,-13.419640
00868,265826,9.646084,0.695182,1.896667,-0.009479,-0.025720,-0.000920,16.070342,-78.008628,-13.469312
00869,266026,9.612251,0.685873,1.892930,-0.006570,-0.022302,-0.005035,16.128224,-78.032291,-13.535917
00870,266226,9.592048,0.647500,1.883942,-0.001841,-0.013170,-0.004581,16.175620,-78.046010,-13.586281
00871,266426,9.623387,0.609069,1.895586,-0.001417,-0.013403,-0.001257,16.206605,-78.061032,-13.619356
00872,266626,9.646150,0.604840,1.882147,-0.007637,-0.011366,0.004479,16.197612,-78.075676,-13.618866
00873,266826,9.664498,0.624534,1.866221,-0.008773,-0.011884,0.008057,16.169401,-78.092030,-13.600070
00874,267026,9.681267,0.623994,1.884297,-0.007435,-0.011523,0.008233,16.141209,-78.108061,-13.579707
00875,267226,9.677459,0.632351,1.971777,-0.005494,-0.008991,0.009357,16.105489,-78.121660,-13.549377
00876,267426,9.644638,0.644652,1.878002,0.000881,0.001601,0.004828,16.084556,-78.122065,-13.526728
00877,267626,9.592577,0.613222,1.823840,-0.002209,-0.003400,0.004388,16.069974,-78.127880,-13.514152
00878,267826,9.595471,0.596610,1.815600,-0.001449,-0.008156,0.007949,16.044894,-78.140142,-13.489934
00879,268026,9.603853,0.650726,1.843807,-0.000935,-0.013498,0.009116,16.022355,-78.158646,-13.467789
00880,268226,9.627074,0.676077,1.867743,-0.000495,-0.022926,0.009753,16.011003,-78.187662,-13.456548
00881,268426,9.677318,0.645974,1.863775,-0.005399,-0.025702,0.009801,15.998238,-78.219862,-13.449618
00882,268626,9.658676,0.613215,1.832925,-0.012963,-0.022529,0.007886,15.982109,-78.247934,-13.448272
00883,268826,9.656516,0.612789,1.847900,-0.011730,-0.019436,0.011366,15.943876,-78.273618,-13.422790
00884,269026,9.639350,0.647855,1.860738,-0.004677,-0.021957,0.010598,15.921962,-78.302011,-13.405661
00885,269226,9.618748,0.642788,1.867449,-0.004284,-0.022227,0.009613,15.905626,-78.330156,-13.393953
00886,269426,9.627672,0.614904,1.853896,-0.006081,-0.021273,0.007854,15.895115,-78.356714,-13.390226
00887,269626,9.676427,0.591177,1.858481,-0.010610,-0.019818,0.009226,15.870114,-78.382272,-13.376819
00888,269826,9.670081,0.624955,1.832785,-0.012204,-0.021948,0.009390,15.845425,-78.410151,-13.365663
00889,270026,9.653636,0.623083,1.806470,-0.013974,-0.025057,0.006032,15.841488,-78.440375,-13.377896
00890,270226,9.634714,0.615249,1.779657,-0.012443,-0.026286,0.003655,15.854156,-78.471286,-13.405106
00891,270426,9.649611,0.597394,1.785613,-0.011339,-0.032108,0.004284,15.873630,-78.508758,-13.438020
00892,270626,9.633102,0.596362,1.777879,-0.012098,-0.034401,0.003116,15.902200,-78.548355,-13.481111
00893,270826,9.645331,0.619846,1.787962,-0.011695,-0.041776,0.001949,15.949455,-78.595744,-13.542727
00894,271026,9.682854,0.599064,1.800827,-0.013343,-0.039504,0.000358,16.000393,-78.640105,-13.610048
00895,271226,9.684198,0.588843,1.818680,-0.020890,-0.036334,0.000873,16.035258,-78.681126,-13.669772
00896,271426,9.665186,0.636348,1.792718,-0.016409,-0.028355,0.003063,16.050861,-78.714041,-13.704605
00897,271626,9.636061,0.614930,1.691268,-0.010716,-0.020218,-0.002044,16.088464,-78.736387,-13.755234
00898,271826,9.645135,0.520650,1.819167,-0.024320,-0.031838,-0.001385,16.125502,-78.771726,-13.821165
00899,272026,9.689854,0.553444,1.841465,-0.008200,-0.021257,0.007575,16.114431,-78.798248,-13.819217
00900,272226,9.659929,0.618177,1.674315,-0.003820,-0.000645,0.007985,16.073021,-78.802226,-13.781226
00901,272426,9.659211,0.653565,1.728918,-0.017351,-0.009144,0.003345,16.055610,-78.814094,-13.783501
00902,272626,9.675058,0.641683,1.766398,-0.010221,-0.025543,-0.002611,16.105997,-78.842124,-13.846554
00903,272826,9.679199,0.618956,1.765706,0.000659,-0.019275,-0.005368,16.174429,-78.862360,-13.915287
00904,273026,9.676853,0.595902,1.752064,0.002640,-0.006822,-0.005053,16.223327,-78.868981,-13.961793
00905,273226,9.704523,0.594290,1.779124,0.003132,-0.002725,-0.003284,16.256247,-78.871651,-13.991442
00906,273426,9.692027,0.595645,1.763986,0.002501,0.005084,-0.000597,16.260673,-78.866589,-13.992788
00907,273626,9.701286,0.577587,1.779530,-0.000270,0.011018,0.004191,16.225480,-78.856531,-13.956991
00908,273826,9.716067,0.558152,1.771267,0.007577,0.005486,0.007827,16.187948,-78.853721,-13.909647
00909,274026,9.727578,0.565865,1.777479,0.015412,0.005030,0.006590,16.167011,-78.851013,-13.870067
00910,274226,9.702820,0.585821,1.829345,0.026111,0.013072,0.004280,16.158205,-78.838702,-13.830356
00911,274426,9.679021,0.594603,1.768707,0.024876,0.031724,0.006770,16.104165,-78.806648,-13.745976
00912,274626,9.663036,0.591152,1.799894,0.018948,0.055749,0.006929,16.004614,-78.748159,-13.622110
00913,274826,9.688964,0.558626,1.817872,0.029421,0.078972,0.013935,15.843227,-78.666225,-13.422920
00914,275026,9.708041,0.602635,1.858993,0.031483,0.094792,0.016910,15.646321,-78.567635,-13.185025
00915,275226,9.660429,0.638872,1.864179,0.026766,0.096000,0.017457,15.443012,-78.467704,-12.946025
00916,275426,9.652443,0.639117,1.816438,0.020569,0.089636,0.013981,15.264474,-78.373595,-12.739473
00917,275626,9.651477,0.573854,1.797027,0.018605,0.096306,0.012020,15.087651,-78.271408,-12.536897
00918,275826,9.675321,0.542049,1.847429,0.023496,0.107271,0.012920,14.899467,-78.157230,-12.316909
00919,276026,9.682952,0.605081,1.982542,0.026500,0.115262,0.012008,14.712397,-78.033768,-12.094446
00920,276226,9.666540,0.690374,2.061536,0.038389,0.127046,0.007355,14.551415,-77.895719,-11.884616
00921,276426,9.652122,0.612543,1.996308,0.043451,0.141670,0.001221,14.412575,-77.739561,-11.691382
00922,276626,9.614143,0.529359,1.801266,0.033098,0.124609,0.004545,14.271183,-77.603229,-11.507571
00923,276826,9.613276,0.522468,1.828085,0.012889,0.086027,0.009845,14.132293,-77.511193,-11.349956
00924,277026,9.598977,0.585951,1.936519,0.013946,0.051858,0.011514,14.030983,-77.457541,-11.229547
00925,277226,9.627363,0.668184,2.057693,0.018033,0.037046,0.006435,13.978981,-77.418902,-11.154837
00926,277426,9.634011,0.660571,2.076183,0.020766,0.039420,0.001382,13.952728,-77.376196,-11.103284
00927,277626,9.618757,0.567970,2.001366,0.017506,0.047564,-0.000489,13.922272,-77.323918,-11.051243
00928,277826,9.594667,0.580055,2.002453,0.004020,0.045080,0.002351,13.865766,-77.275185,-10.988329
00929,278026,9.607667,0.592011,2.036847,0.003007,0.047069,0.005135,13.792497,-77.224985,-10.909405
00930,278226,9.587287,0.607328,1.971967,0.003711,0.034281,0.001061,13.755891,-77.187904,-10.867233
00931,278426,9.571301,0.568347,2.012958,0.002440,0.024172,-0.001158,13.740947,-77.161475,-10.848765
00932,278626,9.592708,0.564555,2.048536,-0.004672,0.006641,0.002758,13.719683,-77.155627,-10.832176
00933,278826,9.586764,0.599085,2.000974,0.000345,0.024997,0.006363,13.664833,-77.130329,-10.775235
00934,279026,9.619657,0.638049,2.079958,0.008909,0.027019,0.006827,13.615414,-77.102887,-10.713791
00935,279226,9.601813,0.641330,2.064222,0.011370,0.017803,0.002394,13.601435,-77.084503,-10.685802
00936,279426,9.637962,0.605254,2.038728,0.013751,0.014489,-0.004187,13.626074,-77.068042,-10.694635
00937,279626,9.583538,0.578319,2.000695,0.012351,0.021137,-0.005966,13.649869,-77.043712,-10.704248
00938,279826,9.551554,0.579971,2.071345,0.007149,0.019435,-0.003289,13.656697,-77.021999,-10.702567
00939,280026,9.556875,0.602428,2.108263,-0.000437,0.019607,-0.000170,13.639584,-77.000927,-10.685238
00940,280226,9.609544,0.565683,2.084880,-0.003086,0.026417,0.004056,13.591175,-76.973408,-10.638902
00941,280426,9.615807,0.572658,2.057019,-0.000236,0.016849,0.005619,13.549781,-76.956968,-10.596412
00942,280626,9.580679,0.607099,2.083928,0.002155,0.005900,0.003841,13.532439,-76.952242,-10.575794
00943,280826,9.533651,0.623429,2.040357,0.004234,0.001503,-0.000631,13.544115,-76.951219,-10.582517
00944,281026,9.541760,0.569582,2.045218,0.007540,-0.001292,-0.001911,13.568954,-76.952973,-10.598863
00945,281226,9.577605,0.544529,2.109711,0.008977,-0.006448,0.001307,13.585909,-76.961329,-10.605429
00946,281426,9.614709,0.568157,2.103347,0.010829,-0.004785,0.002716,13.596256,-76.968210,-10.603035
00947,281626,9.577981,0.621450,2.088132,0.011768,-0.007331,0.000851,13.619656,-76.977419,-10.612933
00948,281826,9.528274,0.644517,2.012035,0.009569,-0.017745,-0.001732,13.665262,-76.997535,-10.648204
00949,282026,9.521547,0.613822,1.990657,0.005526,-0.030891,-0.003120,13.728600,-77.031915,-10.706423
00950,282226,9.585126,0.573091,2.024724,0.004948,-0.036682,-0.002603,13.795970,-77.072876,-10.769450
00951,282426,9.585038,0.599230,2.043749,0.005479,-0.038668,-0.003188,13.869592,-77.115870,-10.838257
00952,282626,9.600122,0.601734,2.047416,0.010606,-0.039110,-0.003708,13.952651,-77.159192,-10.910706
00953,282826,9.599582,0.607870,2.021674,0.011589,-0.036418,-0.005984,14.045224,-77.198870,-10.991745
00954,283026,9.586954,0.598585,2.041357,0.010511,-0.037027,-0.005497,14.135454,-77.239328,-11.071636
00955,283226,9.567929,0.606848,2.040421,0.010579,-0.039399,-0.008311,14.243108,-77.281597,-11.169298
00956,283426,9.586817,0.623388,2.011592,0.010359,-0.039861,-0.007346,14.347036,-77.324612,-11.263382
00957,283626,9.612111,0.605841,1.984504,0.007062,-0.043270,-0.006582,14.448422,-77.371597,-11.358717
00958,283826,9.628910,0.582407,1.993436,0.005555,-0.046555,-0.004962,14.544972,-77.422660,-11.450849
00959,284026,9.616628,0.621764,2.036742,0.002082,-0.050660,-0.004717,14.642438,-77.478302,-11.547978
00960,284226,9.623527,0.618276,2.054683,-0.001087,-0.043330,-0.004442,14.726083,-77.525850,-11.634652
00961,284426,9.671846,0.625480,2.041651,0.004833,-0.018138,-0.003019,14.776614,-77.545864,-11.680454
00962,284626,9.626543,0.601833,1.957953,0.004482,-0.006937,-0.004772,14.820812,-77.552952,-11.720181
00963,284826,9.624497,0.584702,1.995014,-0.003623,-0.020672,-0.004636,14.873368,-77.575284,-11.777976
00964,285026,9.623227,0.597452,2.028766,-0.011021,-0.032716,-0.000949,14.915196,-77.612017,-11.833464
00965,285226,9.613281,0.628571,1.896747,-0.003389,-0.010774,0.001117,14.926086,-77.625072,-11.848317
00966,285426,9.589691,0.646596,1.942346,-0.002717,-0.021129,0.003994,14.937235,-77.650441,-11.862643
00967,285626,9.596147,0.689661,1.984778,-0.004067,-0.042810,0.000967,14.991714,-77.698903,-11.922900
00968,285826,9.642108,0.655784,1.990753,-0.002776,-0.051815,-0.006834,15.100271,-77.754978,-12.036974
00969,286026,9.674385,0.613900,1.969146,-0.000325,-0.029816,-0.007847,15.187260,-77.786371,-12.126088
00970,286226,9.655779,0.579322,1.958336,-0.004056,-0.007012,-0.007832,15.238476,-77.792530,-12.182972
00971,286426,9.632285,0.607675,1.964281,-0.008661,0.000022,-0.003651,15.253253,-77.792158,-12.207972
00972,286626,9.621125,0.605200,1.943730,-0.011327,-0.001310,0.000667,15.244749,-77.794558,-12.212279
00973,286826,9.636429,0.622195,1.939648,-0.010343,-0.003087,0.003789,15.223881,-77.799861,-12.202784
00974,287026,9.646632,0.630178,1.925777,-0.011718,-0.006530,0.001598,15.217444,-77.808313,-12.209664
00975,287226,9.634368,0.628692,1.949018,-0.008798,-0.013288,-0.000298,15.233498,-77.823662,-12.236129
00976,287426,9.613709,0.573269,1.900295,-0.006969,0.001021,-0.003148,15.246268,-77.822339,-12.257090
00977,287626,9.612737,0.583488,1.901965,-0.006355,-0.004621,-0.000085,15.251906,-77.828184,-12.270042
00978,287826,9.626550,0.632921,1.928545,-0.006466,-0.016704,0.002388,15.261663,-77.848128,-12.287336
00979,288026,9.624403,0.672506,1.907948,-0.007265,-0.024934,0.001828,15.285063,-77.877002,-12.319512
00980,288226,9.619525,0.630465,1.900168,-0.005391,-0.016729,-0.001746,15.317611,-77.895727,-12.358848
00981,288426,9.631356,0.591046,1.908552,-0.003844,-0.013669,0.000627,15.335429,-77.911784,-12.381307
00982,288626,9.638629,0.592242,1.964685,-0.001580,-0.016523,0.003162,15.346816,-77.931760,-12.394527
00983,288826,9.652730,0.617254,1.938234,0.002247,-0.020189,0.004961,15.358529,-77.956326,-12.403604
00984,289026,9.630356,0.611544,1.877191,0.001154,-0.010359,0.003838,15.360820,-77.969681,-12.404339
00985,289226,9.630779,0.578461,1.861427,-0.002417,-0.004252,0.006516,15.336424,-77.977124,-12.381957
00986,289426,9.596827,0.613051,1.893851,0.001365,-0.008545,0.007948,15.315019,-77.989745,-12.358209
00987,289626,9.615711,0.623918,1.938724,0.005690,-0.016771,0.007183,15.314214,-78.011214,-12.350458
00988,289826,9.644439,0.654674,1.916977,0.003109,-0.025078,0.006883,15.323934,-78.041776,-12.356485
00989,290026,9.657564,0.619251,1.883225,-0.001204,-0.012471,0.007720,15.306313,-78.058650,-12.339637
00990,290226,9.626644,0.586123,1.850414,-0.000971,-0.005167,0.008943,15.272067,-78.067829,-12.305532
00991,290426,9.612000,0.590612,1.904445,-0.000732,-0.013546,0.008773,15.250848,-78.086212,-12.284425
00992,290626,9.631307,0.610851,1.923821,0.004980,-0.023501,0.007076,15.259303,-78.115090,-12.286972
00993,290826,9.649471,0.578026,1.869728,0.003714,-0.026751,0.006298,15.275038,-78.147315,-12.298447
00994,291026,9.648190,0.590453,1.857762,0.004089,-0.008814,0.011219,15.239529,-78.161221,-12.257122
00995,291226,9.628945,0.598325,1.847427,-0.004866,-0.006136,0.010778,15.192127,-78.172026,-12.214111
00996,291426,9.616084,0.569374,1.989737,-0.014597,-0.021445,0.012156,15.148035,-78.200134,-12.185902
00997,291626,9.668141,0.630902,1.902603,-0.005106,-0.016315,0.014850,15.093020,-78.223353,-12.135431
00998,291826,9.635672,0.601850,1.717366,-0.005585,-0.002629,0.011826,15.033882,-78.230566,-12.081292
00999,292026,9.648407,0.605938,1.804659,-0.016248,-0.011308,0.009132,14.989122,-78.246572,-12.054336
01000,292226,9.639683,0.613245,1.880233,-0.009755,-0.033899,0.002802,15.017795,-78.285713,-12.094777
01001,292426,9.638592,0.626782,1.908174,0.002324,-0.034328,-0.002053,15.087179,-78.323856,-12.162657
01002,292626,9.614271,0.607092,1.822956,0.002099,-0.033859,-0.003050,15.161422,-78.361160,-12.235752
01003,292826,9.646386,0.565080,1.792530,-0.011640,-0.037689,-0.001068,15.215292,-78.403292,-12.304099
01004,293026,9.684211,0.571972,1.834808,-0.020836,-0.037290,0.003651,15.232924,-78.446396,-12.346209
01005,293226,9.685573,0.610170,1.823657,-0.019345,-0.041415,0.002996,15.262184,-78.493859,-12.398434
01006,293426,9.670448,0.598202,1.831170,-0.011403,-0.043896,-0.001095,15.326918,-78.542815,-12.477565
01007,293626,9.670727,0.570148,1.823032,-0.011526,-0.034330,-0.004513,15.396378,-78.580144,-12.561649
01008,293826,9.659294,0.577581,1.848496,-0.009577,-0.023583,-0.007326,15.467658,-78.604713,-12.645304
01009,294026,9.643289,0.575479,1.764185,-0.011196,-0.017315,-0.006555,15.523613,-78.622586,-12.715213
01010,294226,9.651740,0.596444,1.776508,-0.010934,-0.021734,-0.005049,15.578578,-78.645790,-12.783801
01011,294426,9.690744,0.630501,1.771918,-0.007112,-0.017381,-0.007269,15.643736,-78.663495,-12.858311
01012,294626,9.714221,0.603895,1.831932,-0.003530,-0.011925,-0.011173,15.726261,-78.673944,-12.946346
01013,294826,9.756168,0.539959,1.918580,0.006772,0.005096,-0.011224,15.794408,-78.665562,-13.007678
01014,295026,9.752999,0.488614,1.865541,0.021913,0.023144,-0.006554,15.825892,-78.638726,-13.013931
01015,295226,9.676592,0.525897,1.815339,0.018120,0.016278,0.000269,15.826165,-78.621592,-12.992783
01016,295426,9.650567,0.618412,1.763344,0.007452,-0.002485,0.005388,15.815350,-78.626751,-12.972793
01017,295626,9.608244,0.637270,1.727003,-0.000207,-0.005909,0.004826,15.804209,-78.635519,-12.961420
01018,295826,9.681138,0.588572,1.751819,-0.001888,0.004380,0.004307,15.778017,-78.632790,-12.936661
01019,296026,9.734501,0.572132,1.840140,0.001353,0.022166,0.006874,15.713988,-78.611235,-12.869516
01020,296226,9.735302,0.599113,1.916011,0.009113,0.044388,0.005589,15.632108,-78.564728,-12.775083
01021,296426,9.687974,0.610339,1.904555,0.023134,0.068872,0.003309,15.542385,-78.490449,-12.656230
01022,296626,9.680910,0.550552,1.795567,0.030222,0.088866,0.001074,15.444369,-78.393381,-12.520587
01023,296826,9.612423,0.540226,1.690690,0.025992,0.089483,0.007698,15.307197,-78.297624,-12.349866
01024,297026,9.613785,0.606565,1.797317,0.011821,0.058044,0.011865,15.179455,-78.237813,-12.205309
01025,297226,9.631257,0.676946,1.941148,0.008318,0.044590,0.009459,15.081024,-78.192086,-12.094765
01026,297426,9.685368,0.645481,1.932465,0.016824,0.054492,0.002351,15.016654,-78.133242,-12.009040
01027,297626,9.666806,0.574811,1.852213,0.029398,0.077781,0.000571,14.944169,-78.048081,-11.900269
01028,297826,9.684307,0.514364,1.770561,0.025432,0.074426,0.001903,14.866091,-77.967033,-11.790398
01029,298026,9.601909,0.523394,1.992513,0.012751,0.049463,0.005719,14.788987,-77.914712,-11.696356
01030,298226,9.593907,0.627726,1.983254,0.012469,0.052272,0.013913,14.666285,-77.861616,-11.555987
01031,298426,9.575807,0.662543,1.802764,0.025938,0.072480,0.014440,14.530662,-77.786217,-11.386571
01032,298626,9.621745,0.623346,1.847710,0.026882,0.042242,0.012587,14.447131,-77.743786,-11.269313
01033,298826,9.664935,0.606659,1.948922,0.024572,0.013277,0.007358,14.426180,-77.731984,-11.218790
01034,299026,9.649862,0.632916,2.011060,0.030695,0.021556,0.000820,14.434820,-77.709112,-11.191367
01035,299226,9.618374,0.586566,1.973881,0.026412,0.033260,0.000952,14.422614,-77.673285,-11.147627
01036,299426,9.605599,0.566929,1.904653,0.014534,0.041393,0.005394,14.363937,-77.629707,-11.070244
01037,299626,9.596595,0.568624,1.917361,0.010930,0.038709,0.010269,14.280437,-77.590479,-10.971662
01038,299826,9.615784,0.593709,1.991225,0.014029,0.025795,0.010941,14.214122,-77.565752,-10.887029
01039,300026,9.613233,0.645068,2.017414,0.017073,0.017881,0.006780,14.182616,-77.548624,-10.834449
01040,300226,9.615026,0.640434,2.008244,0.013956,0.025632,0.001796,14.162915,-77.521469,-10.797620
01041,300426,9.621237,0.581019,1.929048,0.020966,0.047544,-0.006258,14.164035,-77.467722,-10.773887
01042,300626,9.607630,0.507234,1.933772,0.027094,0.046842,-0.006945,14.176494,-77.414585,-10.754571
01043,300826,9.601035,0.556735,2.047513,0.030030,0.025648,-0.004938,14.208908,-77.385551,-10.752255
01044,301026,9.624107,0.612843,2.032746,0.033530,0.023420,-0.003917,14.243004,-77.359275,-10.747549
01045,301226,9.583161,0.590984,1.998169,0.029520,0.033421,-0.005525,14.267842,-77.321441,-10.738062
01046,301426,9.579627,0.568750,1.940378,0.022005,0.025009,-0.000484,14.269736,-77.294392,-10.713882
01047,301626,9.577254,0.586266,2.014195,0.017249,0.008512,0.005952,14.255173,-77.287482,-10.678418
01048,301826,9.571687,0.618444,2.031690,0.017035,-0.000422,0.006842,14.247189,-77.290741,-10.649947
01049,302026,9.569316,0.634952,2.012265,0.014030,0.002393,0.004549,14.243561,-77.290224,-10.629471
01050,302226,9.557161,0.611680,1.961844,0.013760,-0.007548,0.005109,14.249327,-77.300916,-10.618941
01051,302426,9.552278,0.621827,1.964170,0.015140,-0.023067,0.003599,14.283628,-77.328426,-10.636037
01052,302626,9.559411,0.637326,1.981353,0.017310,-0.036762,0.001160,14.349969,-77.370450,-10.683419
01053,302826,9.574052,0.623759,1.952806,0.014835,-0.038005,-0.001257,14.427480,-77.413159,-10.745145
01054,303026,9.553505,0.604537,1.890919,0.009010,-0.035986,0.001814,14.480895,-77.454511,-10.789009
01055,303226,9.538142,0.623284,1.936595,0.001053,-0.048445,0.001545,14.543041,-77.509603,-10.851150
01056,303426,9.581196,0.642167,1.985508,-0.002241,-0.058702,-0.000383,14.625136,-77.575488,-10.937573
01057,303626,9.615301,0.643128,1.961274,-0.004700,-0.052933,-0.002387,14.707812,-77.634368,-11.027451
01058,303826,9.658910,0.590493,1.981936,-0.008244,-0.046776,-0.003598,14.785113,-77.686041,-11.115969
01059,304026,9.627944,0.606809,1.956920,0.007881,-0.032178,-0.003764,14.862726,-77.721465,-11.185880
01060,304226,9.622307,0.602462,1.925528,0.000645,-0.035670,-0.004534,14.941141,-77.760511,-11.265089
01061,304426,9.626762,0.586967,1.992422,-0.013442,-0.042185,-0.002025,14.999947,-77.807481,-11.340739
01062,304626,9.643937,0.603929,1.955750,-0.012225,-0.031923,0.003240,15.019417,-77.844637,-11.374712
01063,304826,9.597879,0.603541,1.857687,-0.007301,-0.018859,0.002104,15.032483,-77.867006,-11.396359
01064,305026,9.625232,0.631426,1.945699,-0.009863,-0.036005,0.004094,15.056224,-77.908932,-11.431925
01065,305226,9.632322,0.646338,1.963252,-0.006161,-0.047228,-0.000706,15.125038,-77.961821,-11.509236
01066,305426,9.668748,0.616794,1.910956,-0.001802,-0.038421,-0.001581,15.191612,-78.004687,-11.579136
01067,305626,9.641067,0.611100,1.890461,-0.006087,-0.023191,-0.001416,15.231228,-78.030748,-11.626490
01068,305826,9.650181,0.610389,1.923506,-0.010025,-0.015941,0.000697,15.245133,-78.049417,-11.652172
01069,306026,9.657624,0.596287,1.936801,-0.008078,-0.009371,0.001041,15.250132,-78.060917,-11.666471
01070,306226,9.661567,0.588792,1.903682,-0.012269,-0.004024,0.003663,15.228973,-78.067293,-11.658942
01071,306426,9.652574,0.613255,1.910341,-0.012534,-0.004559,0.007418,15.188602,-78.075383,-11.632088
01072,306626,9.653762,0.608853,1.906414,-0.010853,-0.008114,0.006932,15.157709,-78.087252,-11.612951
01073,306826,9.664056,0.601504,1.896544,-0.005986,-0.002947,0.004157,15.139571,-78.092572,-11.601153
01074,307026,9.632065,0.569249,1.838777,-0.009833,-0.003114,0.002848,15.124094,-78.097694,-11.596579
01075,307226,9.610790,0.590627,1.875847,-0.010817,-0.004520,0.003884,15.104033,-78.104682,-11.588476
01076,307426,9.617862,0.619980,1.900888,-0.008219,0.001116,0.005320,15.071429,-78.105856,-11.564511
01077,307626,9.651058,0.610459,1.925149,-0.008284,0.001016,0.008410,15.022653,-78.108048,-11.524096
01078,307826,9.644879,0.587096,1.901428,-0.005688,0.002104,0.005902,14.988479,-78.108283,-11.495562
01079,308026,9.641329,0.579614,1.864988,-0.006649,0.001209,0.005571,14.956195,-78.109411,-11.470087
01080,308226,9.630567,0.591515,1.849540,-0.005981,-0.002364,0.007288,14.920664,-78.115009,-11.440510
01081,308426,9.615513,0.618082,1.862613,-0.008256,-0.000274,0.008255,14.874518,-78.118574,-11.402748
01082,308626,9.638912,0.607065,1.880327,-0.009344,-0.000893,0.009081,14.823633,-78.123060,-11.361422
01083,308826,9.673123,0.580797,1.893352,-0.010976,0.003120,0.006901,14.776735,-78.122454,-11.326077
01084,309026,9.661107,0.581393,1.890246,-0.005231,0.005092,0.004614,14.745737,-78.118990,-11.300250
01085,309226,9.645303,0.564057,1.873267,0.000443,-0.000277,0.003138,14.736449,-78.121047,-11.289973
01086,309426,9.626358,0.583361,1.892686,-0.004222,-0.009885,0.004050,14.730304,-78.134014,-11.288365
01087,309626,9.621611,0.594933,1.882226,-0.006122,-0.007678,0.004767,14.715129,-78.144740,-11.279758
01088,309826,9.637577,0.580952,1.846082,-0.004447,-0.007344,0.004490,14.702874,-78.155025,-11.272175
01089,310026,9.655659,0.562840,1.875052,-0.002737,-0.006398,0.005962,14.683433,-78.164689,-11.255248
01090,310226,9.626369,0.557736,1.912906,-0.003190,-0.007588,0.005153,14.669340,-78.175429,-11.244314
01091,310426,9.648934,0.610630,1.898563,0.004398,0.000553,0.007985,14.637672,-78.177958,-11.206546
01092,310626,9.614063,0.592267,1.838721,0.000469,0.003632,0.007380,14.600456,-78.176898,-11.167700
01093,310826,9.620764,0.541016,1.882852,-0.018329,-0.005144,0.008935,14.545496,-78.186011,-11.132741
01094,311026,9.652926,0.569197,1.941019,-0.010724,-0.008289,0.010787,14.493660,-78.199127,-11.092078
01095,311226,9.637805,0.549612,1.708966,0.006108,0.013951,0.008407,14.443233,-78.186911,-11.033145
01096,311426,9.609770,0.549020,1.800816,0.000604,-0.000944,0.007699,14.410661,-78.191032,-10.998887
01097,311626,9.625575,0.625612,1.946931,0.006043,-0.036346,0.002566,14.460037,-78.232950,-11.041989
01098,311826,9.668519,0.625747,1.936157,0.009213,-0.031168,-0.001446,14.527674,-78.267944,-11.100028
01099,312026,9.651003,0.598629,1.857453,0.012216,-0.001840,-0.004027,14.572183,-78.269660,-11.130912
01100,312226,9.633846,0.566678,1.837168,0.002893,0.008995,-0.002688,14.583809,-78.259747,-11.139143
01101,312426,9.640327,0.580185,1.861409,-0.002045,0.007303,-0.000232,14.579015,-78.252418,-11.136367
01102,312626,9.659438,0.580622,1.876781,-0.004602,0.005411,0.001896,14.562579,-78.247799,-11.124697
01103,312826,9.658190,0.570633,1.885749,-0.004358,0.004691,0.005452,14.528452,-78.244994,-11.094668
01104,313026,9.656948,0.557991,1.849354,-0.007747,-0.002632,0.005193,14.501933,-78.250241,-11.076379
01105,313226,9.651218,0.556898,1.866609,-0.004983,-0.002385,0.003917,14.485023,-78.254850,-11.064672
01106,313426,9.632846,0.537022,1.802789,-0.001590,0.014537,0.000979,14.464347,-78.239854,-11.045147
01107,313626,9.637299,0.528143,1.820474,-0.001669,0.003368,0.005857,14.432938,-78.238657,-11.014752
01108,313826,9.625183,0.598218,1.858945,0.001493,-0.009984,0.005652,14.424591,-78.252216,-11.004211
01109,314026,9.647136,0.633807,1.901393,-0.005555,-0.014064,0.003311,14.426323,-78.269625,-11.012213
01110,314226,9.658959,0.586406,1.863285,-0.005158,-0.013315,0.001375,14.437869,-78.285646,-11.029772
01111,314426,9.664627,0.524277,1.828695,-0.005898,-0.014503,0.004833,14.431686,-78.303984,-11.030090
01112,314626,9.656327,0.560217,1.836738,-0.003473,-0.019491,0.006172,14.427975,-78.328244,-11.030097
01113,314826,9.647716,0.587340,1.862505,0.000634,-0.019328,0.004773,14.436289,-78.351919,-11.037576
01114,315026,9.673623,0.574177,1.900759,0.000202,-0.006614,0.003712,14.432212,-78.361172,-11.032908
01115,315226,9.691371,0.542745,1.877141,0.006148,0.002532,0.005159,14.414434,-78.360683,-11.007297
01116,315426,9.700372,0.541320,1.894804,0.008876,0.007334,0.005210,14.392830,-78.354872,-10.974589
01117,315626,9.684041,0.574834,1.916795,0.015356,0.011150,0.004477,14.377351,-78.344601,-10.940553
01118,315826,9.665739,0.586737,1.868546,0.014270,0.009963,0.003186,14.369266,-78.335275,-10.915335
01119,316026,9.674940,0.552548,1.856434,0.010706,0.006523,0.001578,14.370483,-78.329312,-10.903787
01120,316226,9.679108,0.509271,1.864058,0.009048,0.008642,0.004605,14.350570,-78.321858,-10.872601
01121,316426,9.634847,0.519024,1.875559,0.008822,0.014209,0.006063,14.314928,-78.308632,-10.825621
01122,316626,9.620321,0.563722,1.849346,0.009908,0.019799,0.004200,14.282989,-78.288667,-10.781148
01123,316826,9.633058,0.604377,1.820081,0.012736,0.017527,0.001411,14.272474,-78.270439,-10.755242
01124,317026,9.654414,0.575570,1.853742,0.011059,0.011014,0.001685,14.267487,-78.259524,-10.736940
01125,317226,9.691593,0.565702,1.911978,0.005874,0.006473,0.002383,14.259004,-78.253841,-10.721137
01126,317426,9.682635,0.570876,1.885382,0.016693,0.032940,0.002719,14.225335,-78.218852,-10.666942
01127,317626,9.627917,0.547747,1.783313,0.017113,0.036644,-0.000006,14.201912,-78.178997,-10.622714
01128,317826,9.594091,0.505686,1.927936,0.012640,0.017808,0.000518,14.195943,-78.160202,-10.601555
01129,318026,9.620855,0.558365,1.883502,0.012581,0.011959,0.007354,14.161576,-78.149823,-10.551446
01130,318226,9.641317,0.597237,1.778026,0.007596,0.031364,0.010038,14.081682,-78.118642,-10.460647
01131,318426,9.635422,0.599408,1.872187,0.012269,0.014211,0.005694,14.053126,-78.105301,-10.416830
01132,318626,9.666987,0.559887,1.888169,0.026618,-0.004395,-0.001144,14.101734,-78.110738,-10.435067
01133,318826,9.664910,0.571165,1.869681,0.029142,0.005480,-0.004665,14.158729,-78.104220,-10.458915
01134,319026,9.626315,0.541663,1.905976,0.023653,0.018680,-0.003959,14.188067,-78.083227,-10.460931
01135,319226,9.602615,0.552504,1.950667,0.020248,0.025966,0.000339,14.181175,-78.055336,-10.429903
01136,319426,9.615492,0.556810,1.913915,0.020536,0.029276,0.005155,14.145075,-78.025112,-10.368682
01137,319626,9.643633,0.554289,1.878431,0.020262,0.024458,0.009242,14.093855,-78.001383,-10.292319
01138,319826,9.651721,0.597987,1.891063,0.020762,0.002382,0.009555,14.070734,-78.002273,-10.244087
01139,320026,9.671974,0.617841,1.932513,0.020906,-0.001660,0.004887,14.077528,-78.006347,-10.226271
01140,320226,9.609269,0.621853,1.881149,0.020900,0.010990,-0.000475,14.095831,-77.994869,-10.220223
01141,320426,9.583197,0.530965,1.796027,0.014930,0.014470,0.001328,14.093311,-77.980052,-10.199882
01142,320626,9.591622,0.535659,1.916443,0.016512,-0.001075,0.004036,14.098818,-77.983267,-10.185894
01143,320826,9.649433,0.589324,1.947284,0.017878,-0.001505,0.006442,14.093890,-77.987620,-10.159638
01144,321026,9.654068,0.606958,1.952955,0.013919,0.010414,0.005275,14.074938,-77.978392,-10.123682
01145,321226,9.657913,0.563247,1.909697,0.012184,0.020645,0.001537,14.060178,-77.956750,-10.094039
01146,321426,9.623440,0.541038,1.902574,0.013205,0.013345,0.001581,14.055904,-77.943237,-10.073925
01147,321626,9.605363,0.567121,1.884497,0.012782,0.003775,0.001043,14.066441,-77.940220,-10.069446
01148,321826,9.599494,0.591331,1.924343,0.009546,-0.001854,0.000398,14.083983,-77.943274,-10.075924
01149,322026,9.629902,0.579113,1.915512,0.010792,0.003621,-0.000952,14.102832,-77.939866,-10.082277
01150,322226,9.642049,0.546738,1.918710,0.015021,0.011866,-0.002660,14.124594,-77.926818,-10.086654
01151,322426,9.623152,0.576576,1.887349,0.016385,0.012975,-0.002072,14.143398,-77.912709,-10.086409
01152,322626,9.580279,0.613170,1.880407,0.012866,0.001687,-0.003532,14.180540,-77.910737,-10.109037
01153,322826,9.583175,0.620565,1.876935,0.007718,-0.011068,-0.005208,14.237290,-77.922462,-10.157746
01154,323026,9.602071,0.605747,1.873889,0.003097,-0.018030,-0.005475,14.299485,-77.941837,-10.217438
01155,323226,9.605491,0.573477,1.877247,-0.000703,-0.020872,-0.005041,14.359046,-77.964483,-10.278882
01156,323426,9.587812,0.578394,1.890693,0.002341,-0.022229,-0.006246,14.430437,-77.988279,-10.348851
01157,323626,9.614391,0.580172,1.881804,0.005153,-0.021956,-0.005853,14.502906,-78.011869,-10.416620
01158,323826,9.635562,0.571295,1.882830,0.005023,-0.017831,-0.003496,14.557558,-78.031549,-10.466325
01159,324026,9.619866,0.579255,1.836092,0.001191,-0.016344,-0.001192,14.593892,-78.050248,-10.501788
01160,324226,9.600138,0.585138,1.851568,-0.005338,-0.021465,-0.001299,14.630432,-78.074594,-10.545106
01161,324426,9.623115,0.595725,1.889296,-0.001553,-0.028352,-0.003686,14.693538,-78.105871,-10.611140
01162,324626,9.626150,0.595278,1.896318,-0.001386,-0.028025,-0.002814,14.752142,-78.137023,-10.672367
01163,324826,9.667692,0.571799,1.857512,0.004111,-0.019348,-0.001391,14.797693,-78.158966,-10.713816
01164,325026,9.611932,0.576676,1.804764,0.003855,-0.013775,-0.002235,14.839775,-78.174495,-10.752025
01165,325226,9.612917,0.581092,1.870382,-0.009166,-0.023803,-0.002528,14.882723,-78.201043,-10.806345
01166,325426,9.595266,0.593521,1.920790,-0.010501,-0.039660,0.002966,14.917609,-78.246742,-10.854004
01167,325626,9.635199,0.569470,1.775512,-0.005365,-0.016614,0.005433,14.912702,-78.267659,-10.854998
01168,325826,9.629259,0.588923,1.810120,-0.006925,-0.026899,0.006317,14.916005,-78.300245,-10.866202
01169,326026,9.629326,0.634267,1.862579,-0.002856,-0.056772,0.003360,14.982748,-78.365016,-10.937410
01170,326226,9.662939,0.606213,1.821040,-0.000843,-0.068416,-0.001377,15.095168,-78.441242,-11.052886
01171,326426,9.659683,0.594704,1.786586,-0.002609,-0.046697,-0.003344,15.185712,-78.492822,-11.148063
01172,326626,9.633463,0.587397,1.832314,-0.007553,-0.029405,-0.002700,15.242176,-78.525444,-11.214245
01173,326826,9.641711,0.590432,1.861386,-0.007961,-0.018898,-0.002349,15.280899,-78.546530,-11.262782
01174,327026,9.677504,0.570649,1.814445,-0.006803,-0.012604,0.000293,15.297260,-78.561456,-11.287152
01175,327226,9.691325,0.550781,1.798916,-0.005712,-0.007514,0.001998,15.297943,-78.571274,-11.294257
01176,327426,9.686974,0.570954,1.797339,-0.001333,-0.012138,0.003585,15.301841,-78.586679,-11.299513
01177,327626,9.654900,0.605065,1.817200,-0.003964,-0.020274,0.001477,15.326567,-78.610437,-11.329090
01178,327826,9.654685,0.617165,1.783910,-0.003422,-0.009266,0.000045,15.343304,-78.621589,-11.349889
01179,328026,9.626714,0.563059,1.741040,-0.012438,-0.007842,0.001794,15.337972,-78.631708,-11.358712
01180,328226,9.646655,0.580184,1.766019,-0.013375,-0.014406,0.002539,15.337412,-78.649316,-11.373494
01181,328426,9.657829,0.607075,1.760158,-0.008314,-0.020113,-0.000085,15.365824,-78.672435,-11.411918
01182,328626,9.692246,0.613992,1.764893,-0.006477,-0.026458,-0.002305,15.418433,-78.701883,-11.472874
01183,328826,9.664390,0.568587,1.767531,-0.008044,-0.027091,-0.002521,15.471703,-78.731956,-11.536312
01184,329026,9.619407,0.570869,1.746281,-0.009073,-0.027127,-0.000843,15.514808,-78.762573,-11.590590
01185,329226,9.655784,0.581016,1.740856,-0.008098,-0.028599,0.003239,15.538848,-78.796066,-11.624288
01186,329426,9.684940,0.598094,1.760573,-0.008526,-0.024495,0.002940,15.557858,-78.824932,-11.653349
01187,329626,9.680348,0.598975,1.774308,-0.009609,-0.017865,0.000676,15.578082,-78.845776,-11.684913
01188,329826,9.677919,0.584566,1.741518,-0.002275,-0.012806,0.000000,15.602677,-78.860826,-11.712366
01189,330026,9.660960,0.560331,1.741546,-0.000310,-0.013660,0.001767,15.621012,-78.877365,-11.731133
01190,330226,9.622226,0.597710,1.728581,0.003418,-0.022724,0.002620,15.653175,-78.904169,-11.759648
01191,330426,9.651958,0.616244,1.715556,0.002877,-0.024671,0.000718,15.698705,-78.932527,-11.802414
01192,330626,9.667239,0.590304,1.707564,0.000609,-0.016131,0.000877,15.727395,-78.951517,-11.830654
01193,330826,9.689000,0.566015,1.738498,-0.001192,-0.012858,0.003537,15.733822,-78.967721,-11.838329
01194,331026,9.672966,0.587322,1.760864,-0.004318,-0.011852,0.005880,15.721787,-78.983534,-11.830827
01195,331226,9.646875,0.604375,1.723977,0.001071,-0.010937,0.004284,15.723543,-78.997843,-11.831097
01196,331426,9.634748,0.588595,1.690370,0.002807,-0.010370,0.001122,15.744361,-79.010548,-11.848756
01197,331626,9.662254,0.540509,1.674815,0.006800,-0.008729,0.001869,15.762895,-79.021688,-11.859424
01198,331826,9.656933,0.557555,1.684068,0.012137,-0.010646,0.003645,15.780558,-79.035504,-11.862971
01199,332026,9.679601,0.580583,1.727583,0.011756,-0.009993,0.003226,15.799133,-79.048467,-11.867908
01200,332226,9.699564,0.584713,1.710709,0.009413,-0.004451,0.006692,15.786337,-79.056399,-11.843615
01201,332426,9.691836,0.582494,1.709789,0.004301,-0.000299,0.008615,15.750010,-79.060353,-11.801322
01202,332626,9.665039,0.566302,1.687841,0.006402,0.002731,0.006443,15.723605,-79.060295,-11.766680
01203,332826,9.670392,0.570674,1.699456,0.010742,0.003155,0.005206,15.708525,-79.059381,-11.738515
01204,333026,9.654047,0.584991,1.697529,0.008036,0.000060,0.007147,15.684281,-79.062490,-11.704168
01205,333226,9.657837,0.608921,1.697045,0.008402,-0.004316,0.009596,15.653450,-79.071175,-11.662689
01206,333426,9.645518,0.601100,1.676447,0.006871,0.002626,0.010166,15.606501,-79.072375,-11.606583
01207,333626,9.662213,0.536840,1.734534,-0.006441,0.001986,0.012245,15.533425,-79.074918,-11.539397
01208,333826,9.650218,0.554700,1.757618,-0.003597,-0.005407,0.017182,15.446942,-79.087101,-11.455248
01209,334026,9.626111,0.575998,1.605215,0.003901,0.006202,0.018179,15.344853,-79.086744,-11.346444
01210,334226,9.640735,0.574117,1.659678,-0.009630,-0.007637,0.019370,15.242169,-79.102029,-11.252836
01211,334426,9.663728,0.621219,1.702467,-0.005554,-0.039458,0.014019,15.224475,-79.150853,-11.241040
01212,334626,9.743308,0.612759,1.711215,0.002025,-0.045556,0.006659,15.267725,-79.204200,-11.282432
01213,334826,9.718834,0.562464,1.675451,0.002644,-0.029985,0.004731,15.298559,-79.239757,-11.310458
01214,335026,9.690954,0.528984,1.703040,-0.001556,-0.020893,0.005678,15.304675,-79.265547,-11.318238
01215,335226,9.657071,0.557272,1.687380,-0.003601,-0.018269,0.007871,15.291474,-79.289097,-11.308728
01216,335426,9.666587,0.542682,1.645386,-0.001810,-0.016386,0.013108,15.246569,-79.312148,-11.264877
01217,335626,9.718938,0.551864,1.665743,-0.006085,-0.017410,0.017271,15.173749,-79.337577,-11.197602
01218,335826,9.737145,0.540806,1.688279,-0.006080,-0.021353,0.017452,15.105767,-79.367400,-11.135246
01219,336026,9.749933,0.556498,1.679664,-0.000468,-0.014706,0.012617,15.061910,-79.388420,-11.090891
01220,336226,9.717048,0.544453,1.646559,0.008873,0.000601,0.009594,15.022156,-79.391596,-11.039839
01221,336426,9.665127,0.501609,1.628344,0.007920,-0.001387,0.011722,14.971827,-79.397607,-10.979130
01222,336626,9.633347,0.553050,1.630615,0.003206,-0.008581,0.012922,14.920298,-79.411931,-10.922700
01223,336826,9.653442,0.589879,1.606479,0.003438,-0.005909,0.010531,14.878932,-79.422589,-10.876344
01224,337026,9.697189,0.550617,1.632466,0.001132,-0.001325,0.009920,14.831278,-79.427989,-10.826277
01225,337226,9.721211,0.499004,1.648995,0.003868,-0.000144,0.011539,14.775220,-79.432552,-10.764470
01226,337426,9.692286,0.525191,1.683383,0.007206,0.000720,0.011647,14.720930,-79.436174,-10.700577
01227,337626,9.721153,0.507561,1.699393,0.008639,-0.000754,0.013188,14.661327,-79.441859,-10.629608
01228,337826,9.731746,0.506045,1.695338,0.014443,0.008625,0.011316,14.604882,-79.436587,-10.555089
01229,338026,9.674436,0.471297,1.632846,0.023007,0.016864,0.009792,14.554615,-79.421734,-10.476871
01230,338226,9.669967,0.486382,1.648291,0.021899,0.012465,0.011259,14.501267,-79.412174,-10.396807
01231,338426,9.687978,0.509471,1.740121,0.020514,0.002613,0.014231,14.443822,-79.414368,-10.314188
01232,338626,9.707522,0.524217,1.772083,0.020436,0.006554,0.012449,14.390823,-79.411645,-10.236188
01233,338826,9.680075,0.505297,1.688033,0.024316,0.016970,0.008902,14.347537,-79.396335,-10.163542
01234,339026,9.669672,0.507411,1.642785,0.019517,0.009443,0.009758,14.305208,-79.389623,-10.097462
01235,339226,9.678787,0.500155,1.657784,0.013143,-0.003935,0.013182,14.255466,-79.398727,-10.031273
01236,339426,9.680926,0.500980,1.687859,0.010363,-0.011642,0.012396,14.218681,-79.416157,-9.981511
01237,339626,9.699546,0.511893,1.689517,0.011532,-0.006154,0.011386,14.180848,-79.427197,-9.929315
01238,339826,9.684924,0.494186,1.659459,0.015324,0.002204,0.010522,14.139856,-79.428704,-9.869501
01239,340026,9.689496,0.477244,1.655606,0.016332,-0.001683,0.011238,14.101522,-79.434727,-9.811211
01240,340226,9.658060,0.516690,1.681727,0.014329,-0.000500,0.012945,14.048895,-79.439897,-9.740714
01241,340426,9.628203,0.560784,1.653658,0.014466,0.002812,0.007692,14.022831,-79.439912,-9.697085
01242,340626,9.653195,0.510254,1.613586,0.012457,-0.005680,0.006410,14.014758,-79.449019,-9.674093
01243,340826,9.667852,0.470980,1.625318,0.009300,-0.015755,0.006167,14.019492,-79.469270,-9.667801
01244,341026,9.668716,0.499986,1.677741,0.011144,-0.023917,0.004080,14.051055,-79.498008,-9.686666
01245,341226,9.688818,0.513957,1.674679,0.012761,-0.030057,0.000445,14.115737,-79.532548,-9.737322
01246,341426,9.673618,0.510631,1.605661,0.008871,-0.023213,0.000231,14.167254,-79.559426,-9.779112
01247,341626,9.673403,0.518564,1.588864,0.005659,-0.028654,-0.002032,14.237353,-79.591711,-9.843540
01248,341826,9.676842,0.511264,1.637216,0.004952,-0.038564,-0.003468,14.331115,-79.634575,-9.932840
01249,342026,9.684936,0.514133,1.643374,0.009738,-0.041991,-0.007285,14.459782,-79.680122,-10.052033
01250,342226,9.705153,0.496012,1.639651,0.007076,-0.029222,-0.007280,14.566122,-79.711457,-10.151633
01251,342426,9.722716,0.488178,1.630117,0.011165,-0.007364,-0.005529,14.632069,-79.719030,-10.205395
01252,342626,9.675115,0.484005,1.585284,0.008103,0.002689,-0.007366,14.689692,-79.714922,-10.254265
01253,342826,9.636753,0.496910,1.617993,-0.000852,-0.022768,-0.008964,14.787768,-79.738546,-10.354684
01254,343026,9.687750,0.533094,1.548509,0.010523,-0.017279,-0.005719,14.870552,-79.757025,-10.426302
01255,343226,9.697968,0.530438,1.569701,0.012071,-0.016263,-0.003774,14.941822,-79.774941,-10.484415
01256,343426,9.665090,0.552024,1.583278,0.009602,-0.037353,-0.006238,15.060529,-79.815453,-10.593600
01257,343626,9.666263,0.533267,1.595978,0.008178,-0.052909,-0.011374,15.236443,-79.871580,-10.762545
01258,343826,9.690174,0.504711,1.553976,0.015397,-0.033592,-0.012105,15.394066,-79.906059,-10.904473
01259,344026,9.660741,0.492377,1.519079,0.008848,-0.022526,-0.007994,15.500456,-79.929521,-11.001988
01260,344226,9.632008,0.545308,1.558625,0.003798,-0.040416,-0.004989,15.613991,-79.973624,-11.112614
01261,344426,9.681051,0.530311,1.561848,0.005526,-0.050429,-0.004087,15.742537,-80.029011,-11.236457
01262,344626,9.708716,0.508485,1.532864,0.005029,-0.044501,-0.001731,15.846424,-80.078558,-11.335829
01263,344826,9.675283,0.521781,1.509545,0.013673,-0.052056,-0.001089,15.970879,-80.136602,-11.446005
01264,345026,9.645284,0.539998,1.490099,0.013425,-0.061563,-0.001948,16.119437,-80.204806,-11.580911
01265,345226,9.617561,0.529738,1.468661,0.010705,-0.060249,-0.002596,16.268529,-80.271300,-11.719499
01266,345426,9.634214,0.505403,1.447802,0.008625,-0.064804,0.000705,16.404542,-80.343819,-11.847204
01267,345626,9.682257,0.516972,1.497207,0.009177,-0.080240,0.003855,16.552506,-80.434268,-11.986360
01268,345826,9.693808,0.547408,1.483413,0.013500,-0.081280,0.003961,16.709543,-80.525827,-12.129656
01269,346026,9.681564,0.566699,1.478297,0.009308,-0.082782,0.004082,16.866923,-80.618999,-12.278137
01270,346226,9.698616,0.528894,1.470346,0.009942,-0.080085,0.002854,17.030771,-80.708729,-12.432389
01271,346426,9.724477,0.502616,1.448151,0.017090,-0.071882,0.004490,17.177697,-80.789955,-12.561174
01272,346626,9.739939,0.523040,1.432027,0.019102,-0.066242,0.006211,17.305684,-80.865538,-12.668407
01273,346826,9.745518,0.520331,1.412733,0.018998,-0.062182,0.004988,17.435151,-80.936224,-12.777239
01274,347026,9.746970,0.519740,1.376997,0.017091,-0.059827,0.006950,17.545580,-81.004977,-12.868989
01275,347226,9.740532,0.530304,1.391979,0.013492,-0.055298,0.010789,17.616724,-81.070085,-12.925125
01276,347426,9.747169,0.551446,1.396660,0.010104,-0.055313,0.010359,17.687970,-81.135042,-12.985285
01277,347626,9.753227,0.524846,1.379744,0.013506,-0.046322,0.008419,17.757453,-81.189491,-13.039712
01278,347826,9.737350,0.513865,1.337387,0.014110,-0.037650,0.008166,17.810454,-81.234382,-13.076749
01279,348026,9.709672,0.525280,1.319611,0.009821,-0.038975,0.008624,17.858791,-81.280879,-13.114032
01280,348226,9.734309,0.545950,1.348455,0.009673,-0.037715,0.008247,17.907204,-81.325858,-13.151571
01281,348426,9.733084,0.553299,1.327217,0.007814,-0.031392,0.005922,17.955956,-81.363115,-13.191593
01282,348626,9.728576,0.521067,1.287452,0.012894,-0.024357,0.003513,18.011839,-81.391854,-13.232941
01283,348826,9.767409,0.511619,1.306809,0.011771,-0.019112,0.006740,18.031111,-81.416020,-13.238560
01284,349026,9.779331,0.539262,1.330210,0.010715,-0.011582,0.008486,18.018871,-81.432593,-13.213537
01285,349226,9.741607,0.553100,1.290818,0.010046,0.000068,0.003944,18.011344,-81.434865,-13.194052
01286,349426,9.756578,0.517973,1.269897,0.008125,0.007692,0.001156,18.003861,-81.427847,-13.176844
01287,349626,9.750395,0.509806,1.309972,0.007774,0.004218,0.002530,17.994191,-81.425102,-13.157823
01288,349826,9.757882,0.514911,1.357659,0.005743,0.004994,0.001431,17.988366,-81.421120,-13.145045
01289,350026,9.784408,0.557896,1.359250,0.010056,0.025816,-0.000401,17.951998,-81.393778,-13.096378
01290,350226,9.767164,0.508781,1.262688,0.010640,0.046926,-0.002516,17.882852,-81.342679,-13.013880
01291,350426,9.717826,0.479529,1.347984,-0.000743,0.036807,0.001512,17.796023,-81.304020,-12.926671
01292,350626,9.726518,0.511249,1.398542,0.004668,0.025150,0.004540,17.721027,-81.279105,-12.845156
01293,350826,9.674768,0.531206,1.262075,0.014291,0.047208,0.004997,17.604579,-81.230252,-12.710530
01294,351026,9.695397,0.508792,1.289259,0.004812,0.044043,0.007827,17.465848,-81.185810,-12.564343
01295,351226,9.693857,0.555215,1.346153,0.001256,0.020828,0.006865,17.382263,-81.166374,-12.478067
01296,351426,9.713545,0.583123,1.374561,0.000349,0.001493,0.001381,17.379046,-81.166181,-12.474179
01297,351626,9.725323,0.577248,1.336745,0.006513,0.006458,-0.004724,17.415011,-81.158472,-12.502788
01298,351826,9.727227,0.480396,1.323490,0.006177,0.021830,-0.005755,17.423848,-81.133608,-12.504335
01299,352026,9.710611,0.464869,1.356797,0.004647,0.021814,-0.000981,17.397435,-81.110396,-12.471969
01300,352226,9.684551,0.504314,1.370090,0.003461,0.015228,0.001734,17.365283,-81.095319,-12.435161
01301,352426,9.697245,0.538188,1.381966,0.001110,0.010783,0.002437,17.335293,-81.085331,-12.403303
01302,352626,9.741952,0.539015,1.353054,0.003317,0.012617,0.001607,17.309732,-81.073053,-12.373341
01303,352826,9.772788,0.484630,1.320198,0.005164,0.012026,0.001649,17.287311,-81.061448,-12.344379
01304,353026,9.748369,0.526880,1.387759,0.004280,0.009121,0.001261,17.272974,-81.052891,-12.324668
01305,353226,9.733912,0.536997,1.380426,0.002699,0.011971,0.001327,17.250209,-81.041228,-12.298239
01306,353426,9.720757,0.532752,1.365479,-0.000351,0.010733,0.001612,17.224772,-81.031021,-12.272658
01307,353626,9.708279,0.515883,1.282587,0.000673,0.004325,-0.000970,17.232037,-81.026946,-12.279011
01308,353826,9.736660,0.528817,1.358523,-0.001679,-0.012344,0.000396,17.263253,-81.041605,-12.312335
01309,354026,9.756016,0.522511,1.408513,-0.000552,-0.012662,0.001004,17.292485,-81.056828,-12.342285
01310,354226,9.747333,0.483268,1.396016,-0.004000,-0.002482,0.004136,17.273669,-81.061945,-12.327673
01311,354426,9.743663,0.485128,1.371783,-0.006133,0.001866,0.006270,17.228169,-81.063039,-12.288476
01312,354626,9.729259,0.524239,1.349975,-0.011893,0.007582,0.007989,17.151958,-81.058472,-12.224893
01313,354826,9.732029,0.563876,1.349027,-0.012925,0.002905,0.007511,17.087866,-81.058835,-12.174785
01314,355026,9.756064,0.561584,1.364751,-0.010514,-0.003307,0.002490,17.074814,-81.064301,-12.173514
01315,355226,9.795574,0.518564,1.390673,-0.009839,-0.003486,-0.000065,17.080952,-81.069129,-12.190818
01316,355426,9.797560,0.479880,1.429626,-0.004749,0.000643,-0.000266,17.085131,-81.069325,-12.200294
01317,355626,9.751853,0.499905,1.405200,-0.005067,0.006188,-0.000617,17.079610,-81.063340,-12.200265
01318,355826,9.692429,0.549051,1.361611,-0.006605,0.009680,-0.002837,17.080250,-81.052767,-12.208290
01319,356026,9.676372,0.554319,1.317234,-0.007596,0.012754,-0.005421,17.091348,-81.037982,-12.228097
01320,356226,9.689666,0.534132,1.324461,-0.011288,0.007388,-0.004990,17.106708,-81.029231,-12.256440
01321,356426,9.715234,0.535013,1.377770,-0.009482,0.003953,-0.006820,17.144269,-81.023636,-12.305267
01322,356626,9.716874,0.533761,1.376467,-0.006016,0.007477,-0.009789,17.198625,-81.013153,-12.367081
01323,356826,9.728834,0.519466,1.322243,0.000331,0.011629,-0.011157,17.260731,-80.997670,-12.429333
01324,357026,9.734006,0.502284,1.333730,-0.002982,0.007792,-0.008665,17.310010,-80.987253,-12.482444
01325,357226,9.737291,0.552504,1.427576,-0.003069,0.004109,-0.005736,17.346712,-80.981830,-12.522913
01326,357426,9.746708,0.590630,1.447507,0.000530,0.008949,-0.006573,17.382721,-80.970787,-12.558491
01327,357626,9.772254,0.559228,1.398726,0.011469,0.023817,-0.006467,17.398542,-80.943528,-12.560962
01328,357826,9.761303,0.518953,1.341558,0.013572,0.037238,-0.005185,17.379275,-80.902050,-12.525474
01329,358026,9.717916,0.495698,1.479133,0.007437,0.022851,-0.000082,17.349031,-80.878038,-12.485950
01330,358226,9.748887,0.567397,1.524769,0.013635,0.018117,0.005342,17.299080,-80.861008,-12.419274
01331,358426,9.718617,0.543456,1.313572,0.022293,0.052505,0.007495,17.172512,-80.807071,-12.264950
01332,358626,9.774043,0.509400,1.398317,0.012458,0.058168,0.012170,16.993283,-80.748457,-12.068663
01333,358826,9.749647,0.566281,1.506484,0.017868,0.044025,0.013013,16.845631,-80.705529,-11.898055
01334,359026,9.769951,0.581406,1.532437,0.022643,0.041288,0.009940,16.730823,-80.664489,-11.755187
01335,359226,9.746033,0.574196,1.463947,0.026461,0.060419,0.005666,16.612121,-80.601000,-11.603910
01336,359426,9.737390,0.490533,1.421290,0.020094,0.078897,0.009674,16.425632,-80.518467,-11.391268
01337,359626,9.691865,0.527690,1.478916,0.015509,0.069073,0.012897,16.234879,-80.447651,-11.179656
01338,359826,9.713501,0.572531,1.532239,0.013005,0.053297,0.014859,16.060976,-80.394697,-10.987951
01339,360026,9.723343,0.584338,1.502207,0.006837,0.042158,0.014014,15.908485,-80.353703,-10.825145
01340,360226,9.715841,0.565732,1.461132,0.003459,0.036446,0.011373,15.780557,-80.318057,-10.691121
01341,360426,9.690209,0.531634,1.480455,0.003112,0.035483,0.007647,15.679107,-80.282292,-10.584272
01342,360626,9.635796,0.502755,1.513921,0.010485,0.028312,0.005463,15.613795,-80.253751,-10.505605
01343,360826,9.642811,0.495954,1.508001,0.011794,0.015940,0.004147,15.580808,-80.238436,-10.458119
01344,361026,9.675062,0.538448,1.516103,0.010220,0.011095,0.002984,15.562314,-80.228114,-10.427189
01345,361226,9.689043,0.548534,1.485991,0.007927,0.013457,0.002981,15.537521,-80.215244,-10.392577
01346,361426,9.693869,0.554137,1.519536,0.009865,0.008241,0.000975,15.536818,-80.207468,-10.380147
01347,361626,9.658349,0.529312,1.517437,0.014259,0.001376,-0.004357,15.587325,-80.205614,-10.414618
01348,361826,9.661988,0.502137,1.522089,0.016649,-0.000386,-0.005186,15.649166,-80.205465,-10.457736
01349,362026,9.686840,0.479163,1.508777,0.017179,0.001392,-0.001832,15.686635,-80.204357,-10.475625
01350,362226,9.701058,0.518008,1.526749,0.012415,-0.000293,0.002607,15.693442,-80.206496,-10.467786
01351,362426,9.703602,0.560173,1.519409,0.009368,0.001184,0.003500,15.688601,-80.207304,-10.451726
01352,362626,9.698155,0.559732,1.516825,0.010549,0.005951,-0.000927,15.704849,-80.201478,-10.455755
01353,362826,9.712382,0.530869,1.510543,0.013613,0.008141,0.000517,15.711260,-80.193658,-10.446117
01354,363026,9.699143,0.512745,1.533260,0.017855,0.004588,-0.001866,15.744359,-80.189051,-10.458639
01355,363226,9.676054,0.544602,1.540608,0.020826,-0.003009,-0.003098,15.802165,-80.192404,-10.492837
01356,363426,9.677685,0.530885,1.530171,0.021483,-0.002789,-0.003334,15.861949,-80.195445,-10.528300
01357,363626,9.686027,0.536234,1.500826,0.021237,0.003751,-0.002652,15.905266,-80.191492,-10.547348
01358,363826,9.680547,0.537145,1.489798,0.017552,0.010833,-0.001273,15.922751,-80.180177,-10.544452
01359,364026,9.690714,0.538767,1.527514,0.013003,0.003693,0.000014,15.939755,-80.177129,-10.546301
01360,364226,9.683056,0.556626,1.542472,0.013522,-0.003634,-0.001186,15.978308,-80.181767,-10.569442
01361,364426,9.661999,0.563682,1.509109,0.010746,-0.006194,-0.002863,16.029086,-80.188690,-10.608237
01362,364626,9.702205,0.519787,1.470702,0.007532,0.002144,0.000136,16.041873,-80.187391,-10.612198
01363,364826,9.647723,0.508368,1.451796,0.007191,0.005472,0.000706,16.044623,-80.182630,-10.606336
01364,365026,9.635171,0.536261,1.550960,0.003131,-0.005427,0.000369,16.064743,-80.189749,-10.622877
01365,365226,9.639390,0.548622,1.563063,-0.002900,-0.020516,0.001482,16.098605,-80.213818,-10.660324
01366,365426,9.677914,0.535231,1.434050,0.002648,0.001910,0.003415,16.085298,-80.213826,-10.643465
01367,365626,9.671360,0.539225,1.409699,-0.000584,-0.003343,0.006146,16.060497,-80.220499,-10.618733
01368,365826,9.686039,0.558051,1.509625,0.004641,-0.023391,0.002606,16.101382,-80.248131,-10.654541
01369,366026,9.683361,0.573148,1.506630,0.004748,-0.037075,-0.002105,16.198444,-80.289316,-10.747233
01370,366226,9.673726,0.548507,1.488148,0.007816,-0.022214,-0.006663,16.301130,-80.312653,-10.842064
01371,366426,9.673637,0.511374,1.447834,0.005130,-0.007174,-0.005688,16.366457,-80.319759,-10.902089
01372,366626,9.687185,0.511865,1.509398,0.002651,-0.012936,-0.002178,16.417281,-80.334321,-10.950299
01373,366826,9.707980,0.542967,1.535333,0.001935,-0.017625,-0.000106,16.462978,-80.354692,-10.994149
01374,367026,9.741521,0.551802,1.505656,0.001696,-0.010536,0.000387,16.491836,-80.367427,-11.021168
01375,367226,9.727060,0.532370,1.457133,0.004073,-0.007138,0.002210,16.505120,-80.377027,-11.029647
01376,367426,9.711259,0.528461,1.481074,0.001249,-0.008252,0.001020,16.525059,-80.387466,-11.048159
01377,367626,9.692965,0.558758,1.518352,0.001314,-0.003297,0.000301,16.540238,-80.392216,-11.061756
01378,367826,9.670549,0.498386,1.471490,0.002378,0.012295,0.002101,16.514920,-80.380431,-11.033047
01379,368026,9.667014,0.524815,1.496117,-0.004179,0.001887,0.006388,16.474298,-80.381471,-10.996437
01380,368226,9.694825,0.563374,1.492992,-0.001549,-0.004881,0.007911,16.439798,-80.390437,-10.962978
01381,368426,9.716775,0.551322,1.514715,-0.000896,-0.011094,0.005997,16.430328,-80.405601,-10.954145
01382,368626,9.736398,0.518466,1.517503,0.000087,-0.002212,0.003957,16.418166,-80.410337,-10.941445
01383,368826,9.745332,0.485582,1.502230,-0.001998,0.007296,0.005953,16.372357,-80.405265,-10.897044
01384,369026,9.731583,0.527618,1.518633,-0.003883,0.007345,0.009436,16.301677,-80.401250,-10.829607
01385,369226,9.686064,0.558247,1.510985,-0.004937,0.005387,0.009553,16.232812,-80.399405,-10.765238
01386,369426,9.698055,0.546053,1.495316,-0.006272,0.013166,0.007239,16.162855,-80.388245,-10.701310
01387,369626,9.699742,0.506529,1.464554,-0.004247,0.015660,0.006612,16.094746,-80.374133,-10.636901
01388,369826,9.695365,0.487324,1.496085,-0.004209,0.010480,0.006888,16.034685,-80.365802,-10.580610
01389,370026,9.695684,0.525206,1.515180,0.001977,0.007828,0.004769,16.000471,-80.359710,-10.543345
01390,370226,9.707720,0.525937,1.513958,0.005907,0.006641,0.001719,15.992768,-80.353956,-10.528401
01391,370426,9.715891,0.484078,1.504834,0.006854,0.011610,0.002880,15.969372,-80.343095,-10.496441
01392,370626,9.687945,0.504548,1.504874,0.004040,0.014911,0.004739,15.924673,-80.329178,-10.446141
01393,370826,9.692214,0.532844,1.487947,-0.000561,0.015229,0.003584,15.881732,-80.314544,-10.402971
01394,371026,9.701006,0.543622,1.490151,-0.003013,0.010330,0.001622,15.857771,-80.304691,-10.381902
01395,371226,9.715826,0.504934,1.493570,-0.002346,0.007234,-0.001000,15.857163,-80.297434,-10.383749
01396,371426,9.717895,0.495756,1.513013,-0.002443,0.003027,-0.000111,15.858377,-80.295093,-10.387559
01397,371626,9.699812,0.501810,1.509377,0.005744,0.010406,0.000355,15.852440,-80.284765,-10.374597
01398,371826,9.722206,0.470075,1.494802,0.000259,0.013111,0.000531,15.834115,-80.271517,-10.355443
01399,372026,9.688119,0.466352,1.608971,-0.009053,0.012519,0.003151,15.789329,-80.259720,-10.320271
01400,372226,9.701770,0.516882,1.500774,0.002105,0.031359,0.006630,15.701094,-80.228224,-10.228036
01401,372426,9.677626,0.509062,1.416601,0.002487,0.030781,0.006738,15.614244,-80.197395,-10.136752
01402,372626,9.660849,0.559657,1.495269,-0.002477,0.005378,0.002034,15.597449,-80.193143,-10.122327
01403,372826,9.697318,0.566308,1.515620,0.008899,-0.014793,-0.007472,15.690551,-80.208211,-10.206197
01404,373026,9.725173,0.505685,1.520469,0.014803,-0.008467,-0.009232,15.790497,-80.215733,-10.290143
01405,373226,9.693920,0.484432,1.510856,0.008931,0.003922,-0.005048,15.834567,-80.210888,-10.324218
01406,373426,9.677998,0.516845,1.538478,0.001945,0.005013,-0.002195,15.850385,-80.205727,-10.337747
01407,373626,9.703166,0.526940,1.538353,-0.001030,0.001317,-0.001718,15.866444,-80.204786,-10.354980
01408,373826,9.720655,0.479851,1.480084,-0.003081,0.003089,0.003111,15.846074,-80.203417,-10.337631
01409,374026,9.714245,0.499887,1.516976,-0.003779,-0.008922,0.006734,15.823488,-80.216425,-10.318846
01410,374226,9.712135,0.537986,1.504267,0.004389,-0.018502,0.002884,15.852305,-80.238792,-10.342723
01411,374426,9.706636,0.545519,1.540907,0.007209,-0.017232,-0.000289,15.902550,-80.258756,-10.385063
01412,374626,9.699237,0.478790,1.506155,0.004604,-0.004108,0.000773,15.919048,-80.264591,-10.396189
01413,374826,9.681214,0.504952,1.521193,0.002840,-0.012237,0.003409,15.931487,-80.280209,-10.405250
01414,375026,9.705401,0.545157,1.528097,0.005819,-0.012807,0.004651,15.940440,-80.296842,-10.407310
01415,375226,9.713759,0.543320,1.481941,0.004447,-0.015492,0.003568,15.959823,-80.316095,-10.421544
01416,375426,9.699912,0.517779,1.484904,0.006212,-0.023078,0.002462,16.002520,-80.343358,-10.457377
01417,375626,9.693514,0.524515,1.519616,0.003586,-0.032137,0.003703,16.051281,-80.380980,-10.502411
01418,375826,9.702316,0.513016,1.513518,0.002642,-0.033732,0.002636,16.109264,-80.420007,-10.557889
01419,376026,9.720680,0.511491,1.469159,0.003694,-0.025223,0.003109,16.149681,-80.449814,-10.594327
01420,376226,9.732176,0.508966,1.469364,0.001397,-0.021493,0.004789,16.169568,-80.476051,-10.612614
01421,376426,9.735086,0.543359,1.470856,-0.001118,-0.021297,0.005799,16.179685,-80.502393,-10.623915
01422,376626,9.703179,0.545917,1.472116,-0.000950,-0.021826,0.004756,16.197975,-80.528980,-10.643307
01423,376826,9.680218,0.558964,1.449013,0.001541,-0.020038,0.001336,16.238465,-80.552505,-10.682308
01424,377026,9.716887,0.521221,1.436763,0.005099,-0.019582,-0.001290,16.299762,-80.574683,-10.738265
01425,377226,9.715599,0.532470,1.453151,0.007818,-0.019222,-0.003223,16.376599,-80.595830,-10.806813
01426,377426,9.740790,0.558393,1.477269,0.008937,-0.018269,-0.005792,16.470287,-80.615075,-10.891138
01427,377626,9.755312,0.534150,1.483611,0.008953,-0.012054,-0.006486,16.556678,-80.627237,-10.968044
01428,377826,9.755716,0.523200,1.468617,0.011160,-0.005083,-0.003389,16.611320,-80.632739,-11.010207
01429,378026,9.742218,0.530559,1.457177,0.010609,-0.008948,-0.001109,16.657898,-80.643224,-11.044837
01430,378226,9.723490,0.525718,1.488736,0.009870,-0.011361,-0.001723,16.712629,-80.656142,-11.088586
01431,378426,9.755304,0.528929,1.482274,0.008685,-0.005680,-0.001835,16.755451,-80.662778,-11.121642
01432,378626,9.764120,0.512977,1.487601,0.006159,-0.000534,0.000186,16.771546,-80.664425,-11.130547
01433,378826,9.780182,0.561170,1.458553,0.009587,0.014507,0.002875,16.743462,-80.650455,-11.090696
01434,379026,9.753904,0.541314,1.419324,0.005184,0.030053,0.000090,16.697970,-80.618509,-11.038312
01435,379226,9.703109,0.506245,1.514742,-0.005656,0.027621,0.000238,16.644193,-80.589263,-10.990118
01436,379426,9.727260,0.454737,1.470693,-0.003330,0.030901,0.005983,16.548902,-80.558287,-10.897137
01437,379626,9.722458,0.490157,1.362450,0.003066,0.056841,0.013169,16.364007,-80.501126,-10.705871
01438,379826,9.696295,0.583106,1.473881,0.001436,0.035109,0.013284,16.220143,-80.467810,-10.558073
01439,380026,9.708607,0.634671,1.508079,0.008091,0.006556,0.005208,16.191912,-80.463282,-10.519784
01440,380226,9.763652,0.589216,1.495090,0.009586,0.013615,-0.001956,16.198995,-80.448692,-10.515564
