PacketCounter,SampleTimeFine,Acc_X,Acc_Y,Acc_Z,Gyr_X,Gyr_Y,Gyr_Z,Roll,Pitch,Yaw
00196,147036,9.554400,0.666773,2.222431,-0.014357,-0.025461,0.025262,16.512590,-76.598594,-16.086513
00197,147236,9.567088,0.601774,2.378303,0.001424,-0.044524,0.032263,16.425192,-76.657784,-15.995043
00198,147436,9.563994,0.642742,2.209376,0.035754,-0.023869,0.037856,16.322243,-76.696024,-15.847182
00199,147636,9.561034,0.650864,2.263717,0.029820,-0.024476,0.040832,16.198694,-76.735775,-15.685166
00200,147836,9.545347,0.671754,2.263618,0.034699,-0.046158,0.038861,16.118481,-76.798643,-15.561954
00201,148036,9.535255,0.742457,2.249944,0.057178,-0.050711,0.029695,16.112747,-76.863528,-15.488802
00202,148236,9.528769,0.748129,2.244599,0.085719,-0.044764,0.024959,16.153944,-76.920300,-15.430259
00203,148436,9.556218,0.704795,2.268767,0.106234,-0.040917,0.023134,16.222105,-76.972198,-15.375271
00204,148636,9.550204,0.756021,2.305397,0.103953,-0.042645,0.029362,16.260541,-77.027909,-15.292463
00205,148836,9.505538,0.878197,2.299645,0.105512,-0.038638,0.030421,16.290349,-77.079443,-15.198962
00206,149036,9.485815,0.867964,2.217995,0.106207,-0.034874,0.029284,16.321352,-77.126400,-15.105864
00207,149236,9.552186,0.796037,2.172154,0.112325,-0.033131,0.031017,16.348649,-77.171963,-15.001775
00208,149436,9.666818,0.713700,2.273403,0.132607,-0.034472,0.032866,16.391973,-77.219540,-14.890303
00209,149636,9.722619,0.705426,2.347191,0.166017,-0.029449,0.032723,16.466927,-77.261473,-14.772028
00210,149836,9.582333,0.695082,2.341516,0.173147,-0.013476,0.032366,16.528673,-77.285658,-14.631852
00211,150036,9.438268,0.729188,2.253397,0.151486,0.004871,0.032771,16.537138,-77.289746,-14.462502
00212,150236,9.365621,0.774552,2.232701,0.141431,0.006940,0.043411,16.479409,-77.294913,-14.237100
00213,150436,9.396456,0.861372,2.164844,0.149148,-0.001506,0.045116,16.434644,-77.309802,-14.015908
00214,150636,9.459922,0.943609,2.089388,0.136695,-0.013721,0.041258,16.412334,-77.336799,-13.832343
00215,150836,9.509862,1.010470,2.023776,0.108830,-0.025895,0.037467,16.394565,-77.375925,-13.686139
00216,151036,9.530347,0.956369,1.998984,0.072855,-0.042007,0.038163,16.355530,-77.432978,-13.560377
00217,151236,9.522138,0.889851,2.074690,0.037650,-0.058529,0.038162,16.299761,-77.508148,-13.458805
00218,151436,9.471621,0.812160,2.125271,0.029631,-0.071544,0.032009,16.283848,-77.595589,-13.407479
00219,151636,9.419843,0.671768,2.166859,0.052162,-0.079713,0.019943,16.366154,-77.688068,-13.430291
00220,151836,9.440244,0.482220,2.153788,0.083439,-0.067806,0.013707,16.498572,-77.765392,-13.467724
00221,152036,9.549407,0.394713,2.087685,0.104071,-0.043177,0.019233,16.589738,-77.817464,-13.438780
00222,152236,9.615165,0.393586,2.048507,0.112356,-0.035231,0.033690,16.604173,-77.865582,-13.321666
00223,152436,9.606665,0.406329,2.196649,0.103317,-0.052456,0.042113,16.590204,-77.935331,-13.186150
00224,152636,9.501783,0.318030,2.319260,0.093390,-0.077465,0.035606,16.635173,-78.030316,-13.122607
00225,152836,9.290029,0.048549,2.146021,0.135223,-0.110383,0.018850,16.865940,-78.155905,-13.200042
00226,153036,9.204545,-0.199393,2.061532,0.216848,-0.133239,0.013794,17.255978,-78.304785,-13.344670
00227,153236,9.385443,-0.232685,2.321004,0.257360,-0.154195,0.018495,17.707720,-78.477899,-13.504904
00228,153436,9.626789,-0.132081,2.759347,0.219062,-0.158711,0.036618,18.031704,-78.661819,-13.579560
00229,153636,9.894609,0.257279,2.855013,0.144351,-0.109695,0.032895,18.206404,-78.790612,-13.589305
00230,153836,10.003120,0.427372,2.739273,0.072496,-0.064497,0.015468,18.313354,-78.863644,-13.613954
00231,154036,10.036405,0.517058,2.700410,0.037924,-0.052953,-0.009706,18.499157,-78.914701,-13.759358
00232,154236,9.763107,0.360756,2.648528,0.068680,-0.091411,-0.032514,18.920677,-78.998686,-14.109025
00233,154436,9.322542,0.134820,2.651626,0.146763,-0.130664,-0.044328,19.580239,-79.119749,-14.609949
00234,154636,8.977706,-0.143382,2.547114,0.199760,-0.131638,-0.041660,20.298460,-79.241521,-15.108643
00235,154836,8.997893,-0.245687,2.493476,0.202896,-0.133405,-0.020655,20.915649,-79.372367,-15.500745
00236,155036,9.187963,-0.148247,2.478203,0.168622,-0.139101,0.005467,21.365802,-79.519225,-15.762785
00237,155236,9.303598,0.008153,2.430254,0.126562,-0.137006,0.014261,21.719386,-79.667019,-15.975577
00238,155436,9.336536,0.104806,2.392940,0.085177,-0.138692,0.011190,22.053922,-79.814870,-16.217152
00239,155636,9.361127,0.138623,2.580882,0.053287,-0.158208,0.001622,22.463752,-79.978702,-16.572255
00240,155836,9.365837,0.191503,2.632578,0.038914,-0.139838,-0.012726,22.907888,-80.115987,-16.978794
00241,156036,9.250218,0.217087,2.605221,0.032373,-0.132052,-0.037295,23.484292,-80.233035,-17.527066
00242,156236,9.317052,0.191002,2.664151,0.026686,-0.152957,-0.067841,24.311312,-80.356323,-18.336060
00243,156436,9.450574,0.160772,2.660815,0.014952,-0.152067,-0.082518,25.231765,-80.469238,-19.253223
00244,156636,9.426859,0.102238,2.772001,0.014079,-0.154841,-0.100495,26.290265,-80.573073,-20.311137
00245,156836,9.375236,-0.047890,2.736272,0.001879,-0.156828,-0.123108,27.501269,-80.663463,-21.537580
00246,157036,9.236199,-0.140876,2.618317,0.003886,-0.147260,-0.131420,28.753576,-80.735161,-22.803352
00247,157236,9.080948,-0.174476,2.483512,0.006715,-0.129136,-0.132241,29.966039,-80.783728,-24.025345
00248,157436,9.124407,-0.238459,2.510625,0.028027,-0.141571,-0.126157,31.220852,-80.843738,-25.265407
00249,157636,9.356743,-0.319478,2.727140,0.081106,-0.148757,-0.115598,32.512539,-80.912538,-26.481096
00250,157836,9.649453,-0.369991,2.892135,0.128432,-0.130618,-0.101484,33.715543,-80.968342,-27.551970
00251,158036,9.962007,-0.353222,3.039481,0.134204,-0.105984,-0.077307,34.688599,-81.012921,-28.383296
00252,158236,10.229161,-0.321549,3.147733,0.101604,-0.075953,-0.046017,35.316170,-81.047799,-28.902707
00253,158436,10.332253,-0.268417,3.201069,0.039744,-0.051828,-0.015834,35.590874,-81.079315,-29.136735
00254,158636,10.379126,-0.310505,3.384438,-0.024340,-0.011510,0.000964,35.517100,-81.084071,-29.092457
00255,158836,10.488261,-0.391428,3.685629,-0.081525,0.064101,0.013619,34.979368,-81.026036,-28.644979
00256,159036,10.459272,-0.552732,3.729190,-0.148659,0.179604,0.036763,33.763379,-80.872343,-27.588613
00257,159236,10.506564,-0.541521,3.557170,-0.224672,0.315573,0.075193,31.761870,-80.606594,-25.824144
00258,159436,11.117216,-0.134177,2.681052,-0.282907,0.427923,0.121033,29.158526,-80.245350,-23.515520
00259,159636,11.766320,0.330608,1.419217,-0.177317,0.365589,0.188885,26.644178,-79.967397,-21.172192
00260,159836,11.372808,0.159720,0.088668,0.144493,0.127358,0.208965,25.149727,-79.932251,-19.488922
00261,160036,10.413963,0.336713,0.217252,0.243532,-0.055673,0.214362,24.231409,-80.084884,-18.275597
00262,160236,9.337118,1.779305,1.042888,0.125207,-0.134719,0.113196,23.977586,-80.270771,-17.874678
00263,160436,8.513278,2.746450,1.387030,-0.226389,-0.134872,0.047094,23.723628,-80.425643,-17.882270
00264,160636,8.131139,3.035911,0.625254,-0.414838,-0.015646,0.037376,22.993211,-80.450743,-17.625420
00265,160836,8.903712,2.870057,-0.485218,-0.433622,-0.017559,0.039878,22.236617,-80.479051,-17.363608
00266,161036,10.332283,1.834664,-0.200462,-0.281165,-0.066367,0.023078,21.889962,-80.552318,-17.340155
00267,161236,11.276127,0.854017,0.624456,0.007368,-0.125182,-0.005889,22.215261,-80.676190,-17.662579
00268,161436,11.004378,0.540253,1.234840,0.124755,-0.161489,-0.046306,23.049242,-80.820427,-18.363942
00269,161636,10.129487,0.938883,1.761870,0.104185,-0.135675,-0.051595,23.845105,-80.933438,-19.050274
00270,161836,9.116946,1.484886,2.033657,0.024345,-0.100687,-0.023295,24.277814,-81.021547,-19.461284
00271,162036,8.232563,1.625711,1.833622,-0.076919,-0.062565,-0.011333,24.409884,-81.074848,-19.685261
00272,162236,7.890266,1.291774,1.484888,-0.129806,-0.078966,0.000133,24.459161,-81.150497,-19.886675
00273,162436,7.910171,0.832131,1.374468,-0.120666,-0.120009,0.019377,24.519294,-81.278047,-20.088382
00274,162636,8.206348,0.578311,1.365975,-0.094730,-0.164883,0.025066,24.717262,-81.455038,-20.399333
00275,162836,8.502609,0.715599,1.367218,-0.093239,-0.206162,0.025922,25.059130,-81.675157,-20.853831
00276,163036,8.603207,1.000575,1.473496,-0.093874,-0.204139,0.019410,25.463767,-81.889478,-21.372183
00277,163236,8.646437,1.131139,1.524759,-0.066116,-0.207744,-0.007104,26.137225,-82.093452,-22.129562
00278,163436,8.885699,1.029439,1.675226,-0.038647,-0.226913,-0.036144,27.174605,-82.300356,-23.222084
00279,163636,9.069591,1.015614,2.054647,-0.055764,-0.244502,-0.052907,28.452365,-82.512763,-24.576349
00280,163836,8.919294,1.093945,2.146478,-0.055055,-0.236074,-0.062142,29.841558,-82.706964,-26.041523
00281,164036,8.637279,1.082950,1.972915,-0.009801,-0.217955,-0.080144,31.415246,-82.867502,-27.639808
00282,164236,8.517814,0.857434,2.104077,0.015074,-0.237013,-0.107102,33.397727,-83.023266,-29.620750
00283,164436,8.537680,0.578544,2.354825,0.034146,-0.182725,-0.094314,35.089377,-83.127577,-31.286206
00284,164636,8.716902,0.633701,2.372974,0.106901,-0.076722,-0.067041,36.098746,-83.146143,-32.180314
00285,164836,9.173480,0.793471,2.444491,0.170612,0.001318,-0.005706,36.271115,-83.132493,-32.157880
00286,165036,9.414857,1.442200,2.133422,0.115596,0.005828,0.035668,36.038207,-83.142172,-31.790726
00287,165236,9.590223,1.893110,1.905781,-0.034649,-0.004523,0.043234,35.633928,-83.165830,-31.424340
00288,165436,9.968852,2.521089,2.005935,-0.270499,0.007395,0.018316,35.089781,-83.160858,-31.189223
00289,165636,10.954729,2.440200,2.935646,-0.415919,0.108570,-0.021152,34.146891,-83.033595,-30.720242
00290,165836,11.667832,1.250686,4.346088,-0.274126,0.347355,-0.009015,32.117776,-82.682368,-28.992614
00291,166036,12.399626,0.114793,5.148280,-0.044780,0.631891,0.051372,28.891975,-82.074715,-25.790763
00292,166236,13.357396,-0.717853,3.526941,0.162063,0.830830,0.133083,25.147021,-81.281486,-21.819339
00293,166436,14.114238,0.322138,1.337377,0.107176,0.789518,0.255542,21.319452,-80.551587,-17.819772
00294,166636,13.664753,2.370479,-1.742268,-0.135270,0.347061,0.144759,19.408677,-80.224184,-16.039596
00295,166836,11.971516,3.002946,-1.956037,-0.333414,0.002642,-0.154294,19.973186,-80.150985,-17.000530
00296,167036,9.926284,1.727810,-0.592256,-0.371676,-0.125791,-0.322389,21.823769,-80.144073,-19.311310
00297,167236,9.250962,-0.330512,0.221886,-0.325838,-0.153925,-0.329838,23.840355,-80.151086,-21.737356
00298,167436,9.430546,-1.597785,1.133038,0.072519,0.028163,-0.241976,25.271856,-79.998382,-23.106740
00299,167636,10.020211,-0.657019,1.026908,0.370288,0.218017,-0.180267,26.111573,-79.676284,-23.529359
00300,167836,10.818906,0.854805,0.982919,0.285926,0.200281,-0.105326,26.457558,-79.410122,-23.548593
00301,168036,10.268197,2.258843,0.861983,0.009136,0.131028,-0.092066,26.599990,-79.221931,-23.683340
00302,168236,8.711256,2.850709,0.478605,-0.311146,0.061391,-0.205373,27.163825,-79.046175,-24.620801
00303,168436,7.460532,2.311238,0.577529,-0.474401,0.029163,-0.326503,28.231763,-78.836179,-26.263004
00304,168636,7.087144,0.983448,0.978170,-0.317777,0.017717,-0.372293,29.686057,-78.605536,-28.117409
00305,168836,7.425623,-0.445355,1.346286,-0.067510,0.029890,-0.301806,30.983945,-78.395392,-29.521112
00306,169036,7.996210,-0.976885,1.532084,-0.014079,0.099458,-0.163163,31.443975,-78.195628,-30.007832
00307,169236,8.130940,-0.180521,1.139066,-0.067456,0.149878,-0.072315,31.266579,-78.000914,-29.906053
00308,169436,8.430182,0.687145,1.129276,-0.112531,0.160713,-0.066814,30.987925,-77.799058,-29.753461
00309,169636,8.682857,1.285955,1.511810,-0.189618,0.094830,-0.099219,30.951326,-77.642815,-29.938856
00310,169836,8.750603,1.187361,2.138500,-0.224718,0.005158,-0.131523,31.256518,-77.555229,-30.515484
00311,170036,8.742284,0.438841,2.582168,-0.184967,-0.038493,-0.145786,31.780506,-77.500749,-31.269798
00312,170236,8.634760,-0.274410,2.657294,-0.101989,-0.049645,-0.137551,32.385804,-77.460538,-32.010295
00313,170436,8.312498,-0.453126,2.600029,-0.001960,-0.090367,-0.127249,33.168191,-77.464078,-32.814999
00314,170636,8.397091,0.055571,2.775812,0.048975,-0.087328,-0.115533,33.947912,-77.469656,-33.557299
00315,170836,8.799131,0.938409,2.950417,0.034408,-0.026756,-0.127983,34.585784,-77.407529,-34.171530
00316,171036,9.440114,1.271355,2.791403,-0.026197,-0.017665,-0.143421,35.185214,-77.325036,-34.817755
00317,171236,9.848776,1.048648,2.620656,-0.043272,0.037978,-0.151246,35.624247,-77.184001,-35.319936
00318,171436,9.880278,0.655746,2.342776,0.014254,0.071471,-0.176875,36.122280,-76.993858,-35.815427
00319,171636,10.205174,0.011655,2.556726,0.019826,0.055188,-0.162031,36.599349,-76.828119,-36.283339
00320,171836,11.155160,-0.453445,3.695320,0.130330,0.307654,-0.116204,36.286814,-76.460757,-35.810315
00321,172036,12.021453,0.182663,5.289446,0.134804,0.642162,-0.042641,34.833364,-75.828378,-34.156234
00322,172236,12.272452,1.408720,5.861440,-0.066902,0.792256,0.039213,32.634112,-75.091786,-31.965716
00323,172436,13.615269,3.365020,3.631421,-0.195631,0.964763,0.063190,30.062152,-74.178039,-29.533151
00324,172636,14.700088,2.743504,-0.263440,-0.072972,0.684262,0.044610,28.478137,-73.513044,-27.972949
00325,172836,12.621852,1.292240,-2.968158,0.139634,0.036234,0.008918,28.523022,-73.477788,-27.854384
00326,173036,9.701131,1.817326,-0.925360,0.151375,-0.125674,-0.013524,28.962103,-73.594145,-28.132585
00327,173236,8.127271,1.934880,-0.082635,0.461610,-0.130075,-0.021413,29.801252,-73.710191,-28.456823
00328,173436,8.946183,2.979827,1.463176,0.433448,-0.186509,0.017613,30.598857,-73.903251,-28.770907
00329,173636,11.421057,3.893746,2.715038,-0.123999,-0.195419,0.128252,30.405190,-74.168610,-28.717752
00330,173836,11.852269,4.028822,1.410337,-0.383497,-0.147900,0.251371,29.375267,-74.456988,-28.104589
00331,174036,10.132249,2.308278,0.432655,-0.373615,-0.008151,0.115628,28.546490,-74.527762,-27.688738
00332,174236,8.260522,0.272732,0.020001,-0.055827,-0.073314,-0.072921,28.894769,-74.560595,-28.116366
00333,174436,7.154512,0.224295,0.876743,0.152973,-0.313306,-0.092412,30.052955,-74.820805,-29.135354
00334,174636,6.887010,0.546568,1.936922,0.174725,-0.354877,-0.023259,31.110257,-75.157058,-30.022711
00335,174836,7.010598,1.318338,2.009841,0.118736,-0.214701,0.103628,31.345493,-75.428497,-30.125234
00336,175036,7.002303,2.157789,1.413466,0.034719,-0.061830,0.186421,30.820643,-75.598769,-29.541933
00337,175236,7.321074,2.385103,1.259490,-0.005091,-0.025548,0.181331,30.176610,-75.728607,-28.882952
00338,175436,7.854586,1.918089,1.374015,0.038402,-0.057387,0.151570,29.761604,-75.871456,-28.409110
00339,175636,8.293949,1.316226,1.504782,0.084031,-0.082742,0.128697,29.539640,-76.026004,-28.080644
00340,175836,8.694288,1.192181,1.781510,0.118698,-0.111283,0.113286,29.479397,-76.200144,-27.878076
00341,176036,8.884792,1.406755,2.532124,0.129443,-0.121525,0.093337,29.533888,-76.372972,-27.781100
00342,176236,8.588682,1.548671,2.987165,0.147941,-0.066894,0.078226,29.543169,-76.482335,-27.615891
00343,176436,8.303359,1.649724,2.969368,0.158687,-0.000090,0.070442,29.438676,-76.520132,-27.321072
00344,176636,8.149146,1.705266,3.017385,0.131929,0.036471,0.045570,29.320699,-76.506766,-27.043939
00345,176836,7.913495,1.553791,3.101193,0.114562,0.071710,0.015713,29.225351,-76.440778,-26.810520
00346,177036,7.872289,1.201338,3.016787,0.148612,0.142172,0.019415,28.993425,-76.305715,-26.396361
00347,177236,8.114197,1.214292,2.760973,0.191904,0.156156,0.064285,28.602003,-76.180533,-25.766714
00348,177436,8.563370,1.703686,2.640793,0.150588,0.093716,0.116664,28.094766,-76.145344,-25.066302
00349,177636,9.206100,2.472767,2.520877,0.006883,0.048220,0.134541,27.451378,-76.163809,-24.395135
00350,177836,10.319419,3.191271,2.598065,-0.237406,0.043095,0.060157,26.848431,-76.146477,-24.053768
00351,178036,11.208918,2.378419,3.419911,-0.339946,0.214594,0.003465,26.014704,-75.922800,-23.595437
00352,178236,11.659902,0.722530,5.571144,-0.183267,0.446917,0.006132,24.923744,-75.457441,-22.685815
00353,178436,11.624107,-0.090448,6.581773,0.119436,0.666718,0.086086,23.544262,-74.794256,-21.116700
00354,178636,11.785367,-0.183981,4.725231,0.176837,0.912023,0.233165,21.437922,-73.923520,-18.718926
00355,178836,12.718506,1.180120,2.018377,0.326474,0.868950,0.366673,19.309879,-73.129707,-16.109520
00356,179036,12.631184,2.624154,-0.909239,0.458169,0.325019,0.219704,18.667151,-72.854595,-14.887743
00357,179236,12.042734,2.372957,-2.070124,0.217510,-0.260515,-0.134670,19.723137,-73.082875,-15.730522
00358,179436,10.890639,0.964827,-0.514729,0.148157,-0.414606,-0.232564,21.287773,-73.432904,-17.186083
00359,179636,10.970366,-0.169858,1.429746,0.052072,-0.320161,-0.157376,22.388569,-73.705429,-18.270633
00360,179836,12.553078,0.481762,3.558250,-0.084804,-0.057595,-0.014494,22.439523,-73.759212,-18.424177
00361,180036,11.872975,2.711682,3.042562,-0.044504,0.214112,-0.041627,22.232138,-73.513122,-18.260277
00362,180236,9.922581,3.303554,1.723680,0.063790,0.150196,-0.172475,22.710859,-73.277570,-18.682364
00363,180436,8.210560,2.513407,1.464093,0.119796,-0.086886,-0.312471,24.087204,-73.225787,-19.974949
00364,180636,6.697510,1.716584,1.592267,0.013336,-0.165202,-0.349121,25.587348,-73.228439,-21.524341
00365,180836,5.615616,1.112306,1.285535,-0.293268,-0.203799,-0.291509,26.606790,-73.290043,-22.938379
00366,181036,5.650243,0.885944,1.031081,-0.549871,-0.292225,-0.197891,27.178970,-73.484998,-24.191592
00367,181236,6.589638,0.935900,1.478923,-0.573603,-0.262031,-0.081594,27.287558,-73.708072,-24.988573
00368,181436,7.702959,0.606732,1.819074,-0.421886,-0.164513,0.062652,26.895809,-73.907589,-25.082738
00369,181636,8.827682,0.362128,1.629653,-0.377281,-0.173519,0.140321,26.287490,-74.156715,-24.898462
00370,181836,9.599376,0.465146,1.816263,-0.504206,-0.199371,0.059379,25.864130,-74.391508,-25.057744
00371,182036,9.381934,0.598295,2.269881,-0.595430,-0.198335,-0.071547,25.818132,-74.560089,-25.717096
00372,182236,8.845845,0.372123,3.025787,-0.524212,-0.232211,-0.129798,26.141416,-74.733694,-26.674360
00373,182436,8.439743,-0.034097,3.234637,-0.345953,-0.217977,-0.116212,26.603597,-74.897620,-27.563300
00374,182636,8.088121,0.013197,2.990462,-0.250410,-0.206877,-0.072555,26.999875,-75.070810,-28.270108
00375,182836,8.069736,0.359176,3.203059,-0.254716,-0.155491,-0.038786,27.169138,-75.207972,-28.746776
00376,183036,8.588097,0.789764,3.543085,-0.205811,-0.083398,-0.045237,27.278927,-75.267552,-29.103873
00377,183236,9.299784,0.735611,3.170305,-0.132227,-0.036914,-0.071477,27.481420,-75.265527,-29.469682
00378,183436,9.415714,0.318895,2.810408,-0.150360,0.050122,-0.109270,27.630762,-75.154740,-29.802213
00379,183636,9.148312,0.119497,2.634170,-0.224527,0.026072,-0.146935,27.881299,-75.047999,-30.327691
00380,183836,9.336783,0.062001,3.134278,-0.152653,0.056958,-0.157489,28.183545,-74.903615,-30.821888
00381,184036,10.453037,1.066537,4.040648,0.081673,0.369618,-0.173507,28.183352,-74.434028,-30.724880
00382,184236,11.124573,2.072391,6.012339,-0.143631,0.542222,-0.141823,27.499408,-73.805274,-30.185264
00383,184436,12.481203,2.906403,6.617693,-0.626761,0.769768,-0.051239,25.629932,-72.985370,-28.984319
00384,184636,14.298480,3.897552,3.279643,-0.840300,0.736489,-0.027435,23.634982,-72.200462,-27.902887
00385,184836,15.294536,2.786625,-1.689504,-0.568786,-0.187663,-0.031095,23.356922,-72.380835,-28.294901
00386,185036,12.442671,2.034971,-2.812943,-0.486374,-0.844883,-0.270481,24.994996,-73.136675,-30.592941
00387,185236,8.386629,1.419708,-1.220384,-0.121091,-0.502428,-0.492556,27.395808,-73.404577,-33.243937
00388,185436,8.933853,1.151568,0.765400,0.490630,-0.198186,-0.469643,29.914142,-73.346573,-35.284535
00389,185636,11.719399,1.716953,3.827192,0.248686,-0.048497,-0.090828,30.602060,-73.342605,-35.704359
00390,185836,11.354288,2.734128,3.380852,-0.429148,-0.262612,0.212189,29.922453,-73.725189,-35.507674
00391,186036,10.677033,3.734175,1.223995,-0.720991,-0.180125,0.281617,28.482621,-74.063022,-34.867908
00392,186236,9.006418,2.287503,0.097390,-0.420069,-0.011932,0.055501,27.842972,-74.105820,-34.702073
00393,186436,8.120420,0.308998,0.603509,0.155420,-0.079429,-0.249794,29.070702,-74.050704,-35.792360
00394,186636,7.986493,-0.818344,1.759340,0.362939,-0.227817,-0.301656,31.006773,-74.105216,-37.372144
00395,186836,7.640623,-0.390565,2.379727,0.178139,-0.207458,-0.097229,31.995335,-74.251263,-38.186617
00396,187036,6.761318,1.603981,1.731882,-0.012496,-0.072809,0.148924,31.632163,-74.413496,-37.823436
00397,187236,6.598278,2.613409,1.122325,0.056227,-0.086801,0.229430,31.086147,-74.636447,-37.189022
00398,187436,7.235164,2.195082,1.280350,0.218252,-0.147137,0.149674,31.132163,-74.870526,-36.976405
00399,187636,7.805316,1.373815,1.334585,0.321439,-0.248730,0.049760,31.890931,-75.144480,-37.379493
00400,187836,8.053664,0.641125,1.376301,0.340959,-0.307959,0.033286,32.895106,-75.464211,-38.012666
00401,188036,8.157400,0.852496,1.750078,0.349490,-0.305690,0.084182,33.747417,-75.811215,-38.478096
00402,188236,8.128474,1.592749,2.275666,0.388317,-0.285313,0.101214,34.558327,-76.147873,-38.854330
00403,188436,8.157172,2.155711,2.647464,0.441591,-0.268560,0.095111,35.438012,-76.462921,-39.238002
00404,188636,8.035567,2.368163,2.782566,0.419458,-0.214509,0.057754,36.313847,-76.700678,-39.643355
00405,188836,8.087926,2.033105,2.667323,0.369073,-0.110935,0.041096,36.914503,-76.830070,-39.825051
00406,189036,8.487306,1.723205,2.631586,0.332569,0.006267,0.099729,36.901192,-76.891839,-39.419199
00407,189236,8.686696,1.717485,2.811679,0.299177,0.063176,0.172316,36.390945,-76.950113,-38.542601
00408,189436,8.805430,1.806175,2.733183,0.310673,0.115795,0.212977,35.571427,-76.984281,-37.335222
00409,189636,9.236479,2.194142,2.575554,0.250112,0.154797,0.265833,34.351560,-77.011305,-35.788314
00410,189836,10.233222,3.036794,2.993423,0.006118,0.119437,0.280295,32.883091,-77.072495,-34.273416
00411,190036,10.919847,2.797582,3.840944,-0.105587,0.229568,0.248382,31.124942,-76.996957,-32.592542
00412,190236,11.334229,1.570821,4.935405,0.069816,0.506918,0.181776,29.207978,-76.595412,-30.540543
00413,190436,12.584927,0.060281,5.414578,0.335650,0.856497,0.227363,26.786418,-75.846558,-27.650622
00414,190636,14.861248,-0.182847,3.617831,0.517514,1.091343,0.435376,23.614164,-74.923067,-23.759024
00415,190836,15.994351,1.638300,0.402903,0.576747,0.632786,0.555680,21.122627,-74.492205,-20.490128
00416,191036,13.667441,2.999887,-0.698527,0.275086,0.062680,0.250729,20.391528,-74.525725,-19.403239
00417,191236,11.055547,2.270311,0.431971,0.063565,-0.226100,-0.143370,21.375357,-74.708748,-20.346785
00418,191436,9.594301,0.429701,0.007380,0.009499,-0.368923,-0.223353,22.868411,-75.004278,-21.880987
00419,191636,9.771695,-0.988087,0.451232,0.054279,-0.294438,-0.080179,23.768332,-75.278793,-22.746564
00420,191836,9.752974,0.439202,1.732396,0.104392,-0.000459,-0.001125,23.908969,-75.280008,-22.767228
00421,192036,9.359964,1.865698,1.710957,0.165087,0.006183,0.025930,24.000629,-75.286878,-22.665267
00422,192236,9.149207,2.499800,1.520817,0.184523,-0.077111,-0.039163,24.525678,-75.350235,-22.988183
00423,192436,8.634494,2.057587,1.119434,0.058863,-0.141421,-0.140074,25.434450,-75.430640,-23.856241
00424,192636,7.550058,1.504269,0.941056,-0.221072,-0.191374,-0.215710,26.431085,-75.521087,-25.146038
00425,192836,6.314986,1.333851,0.776418,-0.400024,-0.279265,-0.267180,27.623448,-75.668308,-26.848897
00426,193036,5.934747,0.679456,0.983108,-0.412008,-0.343842,-0.252783,28.916660,-75.879334,-28.668628
00427,193236,6.852493,0.267267,1.536835,-0.324333,-0.326124,-0.158689,29.938654,-76.116576,-30.103595
00428,193436,7.964457,0.233279,1.579162,-0.235571,-0.270891,-0.043334,30.503186,-76.360926,-30.961473
00429,193636,8.727828,0.352218,1.346963,-0.299800,-0.267062,-0.004355,30.848159,-76.622865,-31.668398
00430,193836,9.116683,0.414423,1.473624,-0.417345,-0.290229,-0.051629,31.334662,-76.878529,-32.658421
00431,194036,9.074629,0.394318,1.786673,-0.468087,-0.304805,-0.111222,32.081832,-77.110111,-33.974752
00432,194236,8.913604,0.287085,2.116350,-0.425476,-0.297368,-0.119051,32.926504,-77.325505,-35.339921
00433,194436,8.825009,0.024576,2.446654,-0.348797,-0.250969,-0.080853,33.596748,-77.516339,-36.435386
00434,194636,8.828260,-0.241595,2.670823,-0.260474,-0.172105,-0.041253,33.988147,-77.654988,-37.141153
00435,194836,8.903053,0.022578,3.018297,-0.217770,-0.125798,-0.027383,34.239091,-77.757534,-37.652905
00436,195036,9.079065,0.497894,3.249216,-0.189206,-0.082078,-0.043207,34.464006,-77.807669,-38.104503
00437,195236,9.389324,0.755662,3.122359,-0.188637,0.046825,-0.088388,34.498418,-77.706172,-38.360635
00438,195436,9.312435,0.604032,2.877436,-0.193482,0.128376,-0.097956,34.323647,-77.521216,-38.408511
00439,195636,9.254024,0.453012,2.464837,-0.213800,0.094167,-0.089224,34.187479,-77.374243,-38.519898
00440,195836,9.637527,0.226876,2.309743,-0.142542,0.045039,-0.070470,34.192530,-77.285986,-38.692476
00441,196036,10.893208,0.144383,3.180932,0.057596,0.313287,-0.086797,33.740268,-76.932409,-38.160932
00442,196236,11.646352,1.237784,5.291512,0.015471,0.606927,-0.094585,32.537069,-76.289710,-36.906183
00443,196436,12.241466,2.479502,6.950464,-0.326059,0.715457,-0.108060,30.860431,-75.524617,-35.563185
00444,196636,14.069014,3.633660,4.660069,-0.445230,0.957017,-0.123709,28.768163,-74.499417,-33.925805
00445,196836,15.515321,2.532380,-0.654813,-0.246615,0.633971,0.082191,26.989921,-73.899407,-32.371528
00446,197036,12.781170,1.158508,-4.367124,-0.211668,-0.301361,0.042991,27.147016,-74.229833,-32.786915
00447,197236,10.109940,1.117634,-2.007718,0.063108,-0.541653,-0.130629,28.747426,-74.709838,-34.372489
00448,197436,9.290447,1.738486,0.150198,0.326011,-0.430824,-0.156631,30.610503,-75.052155,-35.914844
00449,197636,10.579750,2.781045,3.039775,0.079847,-0.333826,-0.050440,31.646664,-75.351477,-36.891312
00450,197836,11.634510,3.365061,3.282871,-0.420840,-0.251582,0.160503,31.148528,-75.694547,-36.874220
00451,198036,10.844559,3.482739,1.035561,-0.582612,-0.173844,0.298821,29.723017,-76.040966,-36.091819
00452,198236,9.307506,0.859919,-0.078124,-0.377502,-0.086923,0.171736,28.807187,-76.225912,-35.593175
00453,198436,7.736358,-1.305514,0.009075,-0.009041,-0.243027,-0.063829,29.631556,-76.435894,-36.451466
00454,198636,6.582838,-0.977760,0.883395,0.133132,-0.508821,-0.127829,31.578155,-76.866149,-38.294660
00455,198836,6.083761,0.218703,1.791949,0.061447,-0.500836,-0.012793,33.054015,-77.346089,-39.735881
00456,199036,5.868072,1.868254,1.734239,-0.100761,-0.321116,0.217187,32.912571,-77.792486,-39.708688
00457,199236,6.390049,2.759569,0.982156,-0.123605,-0.188830,0.308368,31.930233,-78.166509,-38.848462
00458,199436,7.333038,2.203368,0.478831,0.007998,-0.149411,0.217194,31.367843,-78.444744,-38.264027
00459,199636,8.334024,1.315727,0.771642,0.154210,-0.209960,0.082813,31.787148,-78.701382,-38.510744
00460,199836,9.111063,0.929995,1.584195,0.202311,-0.252466,0.014276,32.750352,-78.956631,-39.255492
00461,200036,9.241704,1.165044,2.130029,0.163948,-0.212735,0.018288,33.556524,-79.173781,-39.884514
00462,200236,8.818739,1.383427,2.593990,0.127999,-0.136399,0.045732,33.949740,-79.333975,-40.134786
00463,200436,8.789808,1.450108,2.856399,0.136407,-0.055922,0.079866,33.909374,-79.438822,-39.934062
00464,200636,8.440426,1.349537,2.887725,0.153258,-0.030840,0.086633,33.763440,-79.523530,-39.606434
00465,200836,7.973135,1.165777,2.842322,0.125033,-0.023497,0.063576,33.674316,-79.585948,-39.369591
00466,201036,7.954783,1.246417,2.457785,0.141589,0.046468,0.060535,33.376449,-79.579058,-38.901268
00467,201236,8.689869,1.404237,2.164879,0.162529,0.074247,0.108965,32.755608,-79.574793,-38.080151
00468,201436,9.605990,1.360808,2.393515,0.128305,0.060783,0.203967,31.635624,-79.639043,-36.791534
00469,201636,10.284546,1.564334,2.434174,0.100904,0.142753,0.246541,29.979425,-79.641652,-34.989872
00470,201836,11.078654,2.304771,2.762358,-0.085262,0.201946,0.209240,28.142709,-79.553864,-33.221284
00471,202036,11.422468,2.698988,4.459122,-0.354465,0.338836,0.134503,26.071091,-79.275593,-31.526474
00472,202236,11.506910,1.999823,5.833165,-0.282630,0.635011,0.087768,23.722446,-78.653834,-29.463049
00473,202436,13.020528,0.251992,4.962441,0.207674,0.998336,0.172022,21.024249,-77.666248,-26.462684
00474,202636,15.988965,-0.379488,1.078327,0.492884,0.966708,0.381353,18.147333,-76.765346,-22.933102
00475,202836,14.968430,0.904122,-3.382096,0.353723,0.151768,0.332793,16.800244,-76.712906,-21.131969
00476,203036,11.914865,1.262461,-3.270613,-0.124521,-0.274422,-0.152256,17.785367,-76.962062,-22.289353
00477,203236,10.102868,0.409943,-0.508279,-0.180421,-0.209790,-0.297591,19.330039,-77.082956,-24.085800
00478,203436,10.613690,-1.028526,0.137467,-0.015648,-0.263307,-0.174205,20.605757,-77.300614,-25.411682
00479,203636,12.082214,-0.255110,1.721553,0.302135,-0.041702,0.051477,20.795422,-77.368697,-25.250533
00480,203836,11.245015,1.496830,2.241371,0.351936,0.327782,0.046230,20.412667,-77.038231,-24.443744
00481,204036,10.771413,2.021902,1.727112,0.358942,0.317136,-0.067764,20.605562,-76.673171,-24.218617
00482,204236,9.539341,1.759402,1.293754,0.291619,0.086756,-0.208580,21.740135,-76.496729,-25.040544
00483,204436,8.164189,0.772720,1.289162,0.044061,-0.005451,-0.328358,23.257194,-76.361125,-26.548281
00484,204636,6.691908,0.447509,1.121472,-0.192400,0.018438,-0.393002,24.700894,-76.161374,-28.260508
00485,204836,5.593062,-0.106629,1.070500,-0.214707,0.062303,-0.312447,25.652617,-75.947032,-29.493718
00486,205036,5.223393,0.173706,1.325222,-0.151815,0.029591,-0.114535,25.904923,-75.861922,-29.932336
00487,205236,6.203065,1.071598,1.149281,-0.177107,-0.055790,0.006615,25.800458,-75.925215,-30.032971
00488,205436,7.175650,1.561156,0.761076,-0.261823,-0.124446,0.000103,25.764591,-76.056204,-30.304250
00489,205636,7.538186,1.447611,0.942117,-0.337321,-0.220719,-0.092200,26.229905,-76.239790,-31.180593
00490,205836,8.270581,0.592398,1.602041,-0.417518,-0.335288,-0.168262,27.190981,-76.498876,-32.660835
00491,206036,8.712738,-0.377179,2.428475,-0.428653,-0.344448,-0.162893,28.182253,-76.764077,-34.183743
00492,206236,8.438214,-0.551068,2.543847,-0.410430,-0.273525,-0.094769,28.775518,-76.990076,-35.275146
00493,206436,8.315485,-0.176348,2.503095,-0.385869,-0.259941,-0.037308,29.138233,-77.232121,-36.100259
00494,206636,8.908547,0.288594,3.020786,-0.299729,-0.203995,-0.029609,29.444420,-77.421185,-36.765659
00495,206836,9.978824,0.783352,3.467956,-0.226750,-0.072887,-0.075108,29.713389,-77.452698,-37.307046
00496,207036,10.625065,0.866012,3.500967,-0.241435,0.009870,-0.162497,30.139902,-77.350968,-38.027256
00497,207236,10.272411,0.616943,3.260173,-0.233918,-0.018913,-0.220304,30.890060,-77.242127,-39.070781
00498,207436,9.611804,-0.147251,2.749893,-0.166262,-0.028578,-0.222365,31.734121,-77.138293,-40.131652
00499,207636,10.004087,-0.738222,2.695810,0.001218,0.045811,-0.203493,32.472785,-76.970618,-40.888183
00500,207836,10.851276,-0.819759,4.008982,0.274154,0.352302,-0.142116,32.445548,-76.543162,-40.537717
00501,208036,12.035732,0.277620,6.275282,0.152493,0.538249,-0.003999,31.293788,-76.016671,-39.172769
00502,208236,13.686921,2.465137,5.594161,-0.145866,0.681284,0.127402,29.080193,-75.414070,-37.061647
00503,208436,14.903453,3.304938,0.831051,-0.240513,0.452337,0.239423,26.954639,-75.084669,-35.149028
00504,208636,14.160621,1.998034,-3.201211,0.035047,-0.112257,0.026131,27.113740,-75.213965,-35.272150
00505,208836,10.677701,1.682041,-1.884085,0.416314,-0.391906,-0.197055,29.165959,-75.505715,-36.900017
00506,209036,8.958701,2.108242,-0.714618,0.720615,-0.375927,-0.239945,31.773656,-75.740324,-38.739213
00507,209236,10.958203,2.676230,0.610677,0.655891,-0.398162,-0.144866,34.073919,-76.035976,-40.335564
00508,209436,12.533534,2.561293,1.627993,0.054750,-0.282289,0.150901,34.304337,-76.403598,-40.507639
00509,209636,12.188524,3.323413,0.841325,-0.264193,-0.254773,0.327698,33.386408,-76.858159,-39.874606
00510,209836,10.626643,2.419135,0.537792,-0.127548,-0.121523,0.256215,32.516632,-77.137842,-39.131147
00511,210036,8.353164,0.362619,0.848504,0.183675,-0.058705,0.094173,32.500672,-77.255969,-38.898178
00512,210236,6.679574,-0.731911,1.216656,0.280591,-0.317757,0.022590,33.628177,-77.578843,-39.723333
00513,210436,6.332414,-0.156133,1.302733,0.216112,-0.464936,0.069054,34.976652,-78.067161,-40.848922
00514,210636,6.020834,1.323687,1.034085,0.001734,-0.286261,0.171433,35.124742,-78.451901,-40.997573
00515,210836,5.394465,2.446524,0.663649,-0.109854,-0.102931,0.301588,33.934466,-78.748053,-39.911115
00516,211036,5.734099,2.161442,0.564488,-0.008513,-0.105624,0.326380,32.688356,-79.057532,-38.650506
00517,211236,7.143038,0.957800,0.752396,0.167183,-0.164222,0.269610,32.057421,-79.384880,-37.812541
00518,211436,8.453498,0.089833,1.199550,0.240355,-0.183348,0.206030,31.868317,-79.691225,-37.339548
00519,211636,9.318008,0.784314,1.410444,0.296407,-0.179458,0.142795,32.058857,-79.955400,-37.187474
00520,211836,9.430725,1.620258,1.855519,0.339641,-0.153904,0.093902,32.484722,-80.164757,-37.224127
00521,212036,9.044652,1.854808,2.541204,0.287887,-0.064910,0.082686,32.602065,-80.280679,-37.007880
00522,212236,8.548135,1.503268,2.710402,0.190807,0.014152,0.098564,32.229849,-80.329259,-36.407920
00523,212436,7.931208,0.964804,2.579959,0.068182,0.076366,0.114667,31.398869,-80.325480,-35.485208
00524,212636,7.712778,0.937365,2.579444,0.044211,0.146991,0.138113,30.165733,-80.262680,-34.182316
00525,212836,8.267681,1.107598,2.584445,0.153676,0.164039,0.175272,28.803122,-80.198439,-32.620540
00526,213036,9.259445,1.285309,2.463760,0.192960,0.127044,0.213705,27.391551,-80.185583,-30.963223
00527,213236,10.159052,1.456863,2.452075,0.111469,0.112945,0.228405,25.844903,-80.187106,-29.263561
00528,213436,11.078898,1.858154,2.585463,0.020404,0.083255,0.191963,24.496587,-80.193976,-27.871071
00529,213636,11.491480,2.222796,3.385514,-0.124231,0.099177,0.122330,23.364071,-80.146056,-26.865687
00530,213836,11.347069,1.917823,4.582307,-0.146668,0.282157,0.082354,22.008186,-79.882392,-25.659130
00531,214036,11.156307,1.279737,5.183355,-0.036582,0.531731,0.088287,20.265550,-79.347867,-23.929659
00532,214236,11.885460,0.401609,4.653819,0.153952,0.805515,0.184465,17.886107,-78.541231,-21.325126
00533,214436,13.812626,0.529674,1.793211,0.385640,0.830025,0.355926,15.186786,-77.742542,-18.115022
00534,214636,14.515258,1.685190,-2.565389,0.225143,0.203461,0.282359,13.758776,-77.596685,-16.388549
00535,214836,12.900176,0.789174,-4.139824,-0.057683,-0.515657,-0.071956,14.758411,-78.150156,-17.477834
00536,215036,10.463547,0.092258,-2.210418,-0.172095,-0.700230,-0.269869,17.123186,-78.839147,-20.091530
00537,215236,11.767930,-1.827403,-0.429769,-0.278429,-0.472683,-0.092955,18.198935,-79.325997,-21.511411
00538,215436,13.538641,-0.456693,2.848262,-0.030624,-0.044669,0.125534,17.532440,-79.421765,-20.868470
00539,215636,12.448174,1.645855,1.891151,0.138892,0.210429,0.041476,17.086657,-79.208598,-20.252288
00540,215836,10.903673,1.880598,0.848921,0.262688,0.138123,-0.174733,18.147966,-79.000204,-21.025871
00541,216036,8.725420,1.484717,0.604893,0.233439,0.014227,-0.348638,20.335106,-78.856255,-22.981158
00542,216236,7.060799,0.608563,0.828885,-0.011781,-0.100134,-0.360233,22.501126,-78.815376,-25.201928
00543,216436,5.598633,0.065442,0.984370,-0.371013,-0.120765,-0.307695,24.009443,-78.806208,-27.172085
00544,216636,4.951974,-0.473287,0.934451,-0.364888,-0.129888,-0.195475,24.954258,-78.851678,-28.560635
00545,216836,5.470579,-0.378987,1.016059,-0.203373,-0.072128,-0.029133,25.070044,-78.915284,-28.915479
00546,217036,6.588014,0.374009,0.968398,-0.142901,-0.029483,0.019756,24.891007,-78.958300,-28.899262
00547,217236,7.462030,0.527315,0.881930,-0.232627,-0.068877,-0.012219,24.877131,-79.026904,-29.156060
00548,217436,7.984031,0.301712,1.105381,-0.344718,-0.146092,-0.036609,25.062627,-79.163896,-29.746639
00549,217636,8.567440,0.326862,1.378819,-0.359660,-0.164178,-0.051290,25.367791,-79.311984,-30.476207
00550,217836,8.739872,0.014618,1.754124,-0.336835,-0.173897,-0.062652,25.801473,-79.463550,-31.309613
00551,218036,8.923128,-0.296280,2.309549,-0.307907,-0.149773,-0.040921,26.096052,-79.600012,-31.967546
00552,218236,9.102299,-0.309514,2.538296,-0.294305,-0.095231,-0.005477,26.062739,-79.697708,-32.276159
00553,218436,9.201639,-0.109640,2.867095,-0.318727,-0.018347,-0.003034,25.773370,-79.717227,-32.352997
00554,218636,9.664270,0.101174,3.323592,-0.263616,0.118524,-0.050481,25.441113,-79.571456,-32.322133
00555,218836,10.072194,0.297818,3.194494,-0.187334,0.191923,-0.110051,25.335417,-79.320035,-32.432855
00556,219036,9.969851,-0.083656,2.885201,-0.161311,0.198608,-0.139076,25.395351,-79.047226,-32.682016
00557,219236,9.627719,-0.553032,2.370829,-0.101577,0.124571,-0.132212,25.662966,-78.854201,-33.073321
00558,219436,10.006250,-0.896192,2.340255,0.046849,0.077235,-0.099107,26.033865,-78.726175,-33.396852
00559,219636,10.964106,-0.383517,3.224684,0.287382,0.289044,-0.085647,26.073796,-78.386473,-33.101857
00560,219836,12.108112,0.782403,5.541128,0.136494,0.550417,-0.049685,25.171955,-77.793238,-32.020711
00561,220036,13.069745,1.968442,6.395699,-0.274046,0.711303,0.018173,23.264764,-77.057341,-30.388888
00562,220236,14.630856,2.848409,2.224691,-0.436671,0.540027,0.081631,21.388455,-76.519447,-28.975908
00563,220436,14.510635,2.185785,-3.216324,-0.124321,-0.148518,0.017408,21.427269,-76.685863,-29.162342
00564,220636,11.816533,1.461526,-3.795336,-0.143785,-0.574372,-0.025057,22.443794,-77.288037,-30.374640
00565,220836,8.701665,1.001304,-1.810211,-0.043252,-0.540226,-0.000779,23.499167,-77.860886,-31.505838
00566,221036,8.912819,1.975212,0.284753,0.147985,-0.431362,-0.004245,24.653136,-78.313587,-32.511554
00567,221236,12.200248,2.820773,2.578743,-0.068217,-0.273489,0.092499,24.755093,-78.645583,-32.694970
00568,221436,13.347509,3.326175,2.168627,-0.458434,-0.144841,0.316446,22.906879,-78.946690,-31.345868
00569,221636,12.210613,2.469011,0.800871,-0.707421,-0.025464,0.330871,20.349052,-79.116554,-29.565579
00570,221836,9.494080,-0.300239,0.129603,-0.426305,0.105495,0.084452,19.191607,-79.039036,-28.883744
00571,222036,7.111199,-1.968082,0.228844,0.130374,-0.027064,-0.051696,19.694468,-79.052545,-29.243332
00572,222236,5.897795,-1.544518,0.971915,0.342853,-0.159721,-0.009874,20.479071,-79.224666,-29.641874
00573,222436,5.709726,-0.217160,1.521105,0.190549,-0.135146,0.135132,20.220377,-79.427673,-29.156157
00574,222636,5.857554,1.189200,1.438118,0.064553,-0.089442,0.272438,18.896286,-79.632486,-27.734141
00575,222836,6.261922,1.573462,0.726416,0.073077,-0.029089,0.243411,17.590347,-79.755131,-26.321347
00576,223036,6.590720,0.740604,0.243267,0.214082,-0.064110,0.115319,17.266950,-79.868633,-25.743176
00577,223236,7.265541,0.147821,0.824427,0.336876,-0.200398,0.044009,17.782368,-80.106692,-25.874240
00578,223436,7.955651,0.491858,1.389948,0.408401,-0.280494,0.038252,18.603033,-80.429510,-26.231745
00579,223636,8.817429,1.229420,1.619084,0.452690,-0.297504,0.021866,19.665406,-80.763358,-26.782441
00580,223836,9.097292,1.308257,2.256843,0.422081,-0.231350,0.010979,20.658364,-81.019700,-27.297887
00581,224036,8.956737,1.197612,3.039916,0.297892,-0.139582,0.033033,21.151656,-81.185154,-27.451334
00582,224236,8.706671,1.192276,3.518029,0.143622,-0.018137,0.056146,20.989235,-81.229473,-27.120129
00583,224436,8.690555,0.946182,3.152574,0.122250,0.109159,0.096679,20.188247,-81.152551,-26.167521
00584,224636,9.099391,0.898598,2.582912,0.195554,0.138636,0.122882,19.234837,-81.051333,-24.975389
00585,224836,9.572098,0.913660,2.390346,0.221068,0.068469,0.110665,18.577765,-81.018759,-24.053443
00586,225036,10.102943,1.136874,2.558256,0.144939,0.016554,0.098040,18.042080,-81.036277,-23.342682
00587,225236,11.028729,1.534573,2.957514,-0.028197,-0.006247,0.113023,17.251417,-81.082167,-22.574689
00588,225436,11.693787,1.591960,4.087635,-0.231199,0.123657,0.130443,15.835195,-80.988003,-21.408838
00589,225636,11.686742,1.032319,5.030419,-0.186255,0.378309,0.137585,14.004158,-80.607911,-19.769840
00590,225836,12.780968,-0.095838,4.829323,0.069258,0.694615,0.198985,11.767431,-79.880324,-17.419541
00591,226036,15.243734,-0.857669,1.908700,0.322997,0.749921,0.411992,8.810242,-79.116868,-14.035393
00592,226236,15.167947,0.458356,-2.171654,0.409875,0.110363,0.463362,6.470804,-79.061719,-11.174258
00593,226436,12.929920,0.203719,-3.530502,0.167289,-0.311530,0.169521,5.856483,-79.438873,-10.353501
00594,226636,11.006300,-0.826254,-2.414692,0.011329,-0.381547,-0.004678,6.158016,-79.875759,-10.646519
00595,226836,10.903792,-2.041373,-0.506047,0.004284,-0.348795,0.107995,5.700510,-80.289423,-10.176915
00596,227036,11.858240,-0.675127,2.109762,0.235610,-0.039894,0.211442,4.582737,-80.359945,-8.769012
00597,227236,11.726450,0.950186,1.462755,0.529242,0.106305,0.120143,4.334917,-80.252554,-7.902203
00598,227436,11.064921,1.686527,0.977232,0.605342,0.043781,-0.065129,5.442635,-80.199728,-8.322122
00599,227636,9.732636,1.827784,0.837430,0.384577,0.090332,-0.213624,7.227214,-80.073453,-9.685844
00600,227836,7.801041,1.357859,1.252066,0.110666,0.129974,-0.245509,8.825647,-79.890175,-11.179846
00601,228036,5.679687,1.035600,1.430260,-0.030544,0.092549,-0.269104,10.397990,-79.737323,-12.812471
00602,228236,4.556901,-0.039116,1.084708,0.081979,-0.015651,-0.252747,12.090848,-79.701459,-14.437018
00603,228436,4.389712,-0.668723,1.025372,0.181535,-0.048738,-0.185862,13.522789,-79.711600,-15.680542
00604,228636,5.241870,-0.392550,1.175937,0.147080,-0.048657,-0.143987,14.659729,-79.728278,-16.664360
00605,228836,6.517724,-0.080188,1.030144,0.011247,-0.070751,-0.144978,15.687104,-79.765783,-17.694948
00606,229036,7.439623,0.355556,0.901019,-0.200248,-0.138171,-0.178487,16.808215,-79.863324,-19.066783
00607,229236,8.335140,0.400599,1.106161,-0.337211,-0.257626,-0.237757,18.405419,-80.065058,-21.080846
00608,229436,8.939741,-0.165857,1.660236,-0.303526,-0.334924,-0.260918,20.439513,-80.330251,-23.497690
00609,229636,9.318189,-0.793278,2.059992,-0.222503,-0.347826,-0.212439,22.411543,-80.614874,-25.755558
00610,229836,9.846098,-1.215786,2.895226,-0.133221,-0.340767,-0.163663,24.273897,-80.901330,-27.796901
00611,230036,10.313297,-0.898306,3.602875,-0.071242,-0.189146,-0.146267,25.725653,-81.028714,-29.349499
00612,230236,10.393114,-0.041809,3.506474,-0.072658,-0.001911,-0.176267,26.789676,-80.942623,-30.511140
00613,230436,10.161284,0.646345,3.303403,-0.125268,0.105680,-0.216134,27.665279,-80.722454,-31.543526
00614,230636,9.735384,1.036612,2.794334,-0.140352,0.093882,-0.282381,28.914761,-80.474797,-32.973105
00615,230836,9.997352,0.514464,1.772805,-0.031177,0.051424,-0.346740,30.730979,-80.226466,-34.851708
00616,231036,11.234553,-0.494061,1.664693,0.166466,0.129491,-0.349982,32.422708,-79.890678,-36.375706
00617,231236,12.743207,-0.445989,4.022997,0.197429,0.220792,-0.290390,33.420067,-79.497875,-37.159756
00618,231436,14.949301,1.232132,5.989868,-0.050520,0.341847,-0.136474,32.909525,-79.084041,-36.699504
00619,231636,15.954630,1.968987,2.102202,-0.095731,0.235900,-0.015190,32.119622,-78.846431,-36.006883
00620,231836,14.228020,2.050122,-2.886320,0.305263,-0.082195,-0.045192,32.943651,-78.898842,-36.490393
00621,232036,11.490767,2.331247,-3.222819,0.380699,-0.372312,-0.100506,35.106707,-79.189872,-38.249224
00622,232236,9.670360,3.293492,-1.282629,0.133259,-0.538256,-0.090432,37.668569,-79.627083,-40.699893
00623,232436,9.661221,3.975663,-0.477959,-0.244296,-0.502445,-0.134129,40.075270,-79.980839,-43.429222
00624,232636,10.592226,3.502280,-0.417325,-0.542809,-0.248046,-0.053222,40.788738,-80.159373,-44.784474
00625,232836,11.254369,2.636064,-0.075485,-0.716490,-0.118703,0.105071,39.967570,-80.342725,-44.783716
00626,233036,10.719098,1.629652,0.043776,-0.570483,-0.015782,0.092582,38.920836,-80.426013,-44.384444
00627,233236,9.433267,-0.062945,-0.764831,-0.328062,-0.029136,0.070153,38.318222,-80.504795,-44.153920
00628,233436,7.805912,-0.464248,-0.406329,-0.200188,-0.183353,0.108873,38.307884,-80.750000,-44.375307
00629,233636,6.415123,0.102107,0.373334,-0.132560,-0.257658,0.170595,38.365736,-81.105969,-44.587115
00630,233836,5.535934,0.781082,1.082902,-0.213010,-0.134152,0.235383,37.374602,-81.395852,-43.830716
00631,234036,5.100624,1.175584,1.032461,-0.247342,0.006117,0.273927,35.398742,-81.579197,-42.118896
00632,234236,5.332044,1.048995,0.638462,-0.175499,0.034577,0.273688,33.304659,-81.726192,-40.205123
00633,234436,6.148895,0.663599,0.515328,-0.065402,-0.023866,0.228229,31.824731,-81.892815,-38.785148
00634,234636,7.392199,0.377293,0.828041,0.074080,-0.131204,0.176044,31.268843,-82.129330,-38.137609
00635,234836,8.541887,0.463999,1.176465,0.168888,-0.211661,0.145023,31.368652,-82.425697,-38.042580
00636,235036,9.250844,0.928068,1.644299,0.159722,-0.226509,0.153865,31.458834,-82.741654,-37.948530
00637,235236,9.457096,1.474456,2.325869,0.108793,-0.182232,0.188873,30.992139,-83.034505,-37.352188
00638,235436,9.375254,1.884619,2.957823,0.120383,-0.127882,0.207543,30.067944,-83.282973,-36.282054
00639,235636,9.108804,1.951808,3.265007,0.114404,-0.076649,0.198617,28.889951,-83.472140,-34.963816
00640,235836,9.012007,1.231240,3.027170,0.057266,0.002666,0.208122,27.111236,-83.581562,-33.107319
00641,236036,9.402004,0.861005,2.777598,0.062140,0.125851,0.243138,24.419278,-83.572533,-30.326403
00642,236236,9.917058,0.982146,2.389228,0.130418,0.188796,0.259580,21.431477,-83.488588,-27.168759
00643,236436,10.582581,1.451826,2.080853,0.164116,0.156619,0.270219,18.570589,-83.425106,-24.099504
00644,236636,11.264748,2.334797,2.089639,0.074144,0.179482,0.266054,15.654081,-83.317263,-21.077467
00645,236836,12.266724,3.079781,3.160135,-0.212015,0.221000,0.241981,12.656646,-83.138041,-18.303185
00646,237036,13.233046,2.133079,5.019394,-0.240744,0.428228,0.167342,10.120872,-82.692518,-16.025408
00647,237236,14.935649,0.570882,4.495268,0.167758,0.759780,0.167326,7.938737,-81.859847,-13.628813
00648,237436,16.825722,-0.324418,0.834963,0.189676,0.899623,0.249607,5.516397,-80.867273,-10.958348
00649,237636,14.654924,-0.174863,-4.312355,-0.100684,0.306179,0.263289,3.420661,-80.540946,-8.950987
00650,237836,12.049529,-0.728790,-4.290360,0.093684,-0.434816,0.086020,3.119512,-81.045820,-8.536532
00651,238036,10.469513,-2.325889,-2.924171,0.219144,-0.510519,0.023698,3.432433,-81.634467,-8.598555
00652,238236,10.538105,-4.362931,-0.421335,0.078875,-0.236900,0.257866,1.573883,-81.922236,-6.629117
00653,238436,10.258571,-1.690240,1.953655,0.150281,0.239973,0.407968,-1.487003,-81.650983,-3.362365
00654,238636,9.334968,0.990684,1.628042,0.445887,0.323066,0.276867,-2.983447,-81.272047,-1.332284
00655,238836,9.234965,1.935058,1.308227,0.640343,0.122048,0.068605,-2.701327,-81.131906,-0.874969
00656,239036,8.305980,2.235469,0.953946,0.522177,0.113110,-0.141462,-1.030183,-81.011117,-1.960520
00657,239236,6.485514,1.203622,0.495353,0.205921,0.144110,-0.234934,0.910204,-80.849756,-3.686068
00658,239436,5.323011,0.085922,0.685571,-0.077258,0.108747,-0.278196,2.777854,-80.718337,-5.667358
00659,239636,4.783196,-0.908377,0.673755,-0.118055,0.019037,-0.256799,4.443284,-80.681333,-7.491615
00660,239836,5.209645,-0.986281,0.840614,-0.045670,-0.040152,-0.167150,5.594486,-80.713618,-8.710796
00661,240036,6.523738,-0.142244,0.647881,-0.012914,-0.066227,-0.143822,6.648844,-80.774724,-9.793669
00662,240236,7.544185,0.542733,0.540128,-0.050427,-0.074514,-0.202241,8.093447,-80.832956,-11.315206
00663,240436,8.179929,0.401315,1.061657,-0.167944,-0.110798,-0.280955,10.020140,-80.910868,-13.461096
00664,240636,8.712377,-0.124975,1.813143,-0.259210,-0.188587,-0.311208,12.207005,-81.057149,-15.975644
00665,240836,9.091749,-0.506788,2.345719,-0.242901,-0.201640,-0.297306,14.409310,-81.206187,-18.485924
00666,241036,9.076631,-0.586510,2.486938,-0.165932,-0.190007,-0.261855,16.494286,-81.338326,-20.787365
00667,241236,8.970442,-0.457858,2.711835,-0.128076,-0.126344,-0.261100,18.524298,-81.388173,-22.988830
00668,241436,9.071663,-0.483353,2.843711,-0.046365,-0.040875,-0.309049,20.776576,-81.314554,-25.320527
00669,241636,9.949339,-0.382830,3.332839,0.040935,0.065016,-0.327359,22.902553,-81.106730,-27.424135
00670,241836,10.766203,0.101135,3.957433,0.018288,0.138773,-0.327187,24.679876,-80.810282,-29.202494
00671,242036,11.131791,0.359249,3.231231,-0.063116,0.056816,-0.301065,26.340615,-80.602904,-30.958553
00672,242236,10.986346,0.111938,1.806430,0.048430,0.008162,-0.298021,28.188910,-80.438150,-32.776151
00673,242436,12.057062,-0.498165,2.107407,0.288108,0.191340,-0.307255,29.693627,-80.076023,-33.967953
00674,242636,13.972326,-0.328398,5.832151,0.176485,0.516388,-0.235175,29.566705,-79.427939,-33.633676
00675,242836,15.571658,1.660654,6.478619,-0.163505,0.619518,-0.093810,28.083623,-78.752693,-32.314449
00676,243036,17.000131,3.026523,1.157261,-0.186177,0.477172,-0.033325,26.793515,-78.248638,-31.215839
00677,243236,13.690708,1.948161,-4.563657,0.216437,0.175007,-0.189078,27.522849,-77.971775,-31.707681
00678,243436,10.277180,1.352830,-3.581058,0.363892,-0.297256,-0.192620,29.632744,-78.167036,-33.437757
00679,243636,8.727938,1.373835,-1.124156,0.266705,-0.451782,-0.109110,31.749860,-78.550635,-35.286978
00680,243836,8.538106,1.417358,0.231525,0.005858,-0.319255,-0.031715,32.897654,-78.842667,-36.450270
00681,244036,9.691058,1.629775,0.391155,-0.337129,-0.153478,0.098078,32.524305,-79.053802,-36.463079
00682,244236,10.097428,2.842909,0.033442,-0.603332,-0.132457,0.190008,31.299787,-79.300235,-35.919760
00683,244436,10.208547,2.589807,0.028821,-0.505842,-0.167963,0.137838,30.541235,-79.549121,-35.737165
00684,244636,9.384040,0.582106,-0.332099,-0.100571,-0.130159,-0.037533,31.061810,-79.658211,-36.382977
00685,244836,8.095316,-1.213499,-0.242451,0.111492,-0.256407,-0.014910,32.141348,-79.903024,-37.349529
00686,245036,7.244683,-1.428236,0.608631,0.199691,-0.272865,0.095688,32.815757,-80.229489,-37.801414
00687,245236,6.776560,-0.637463,1.183682,0.247576,-0.186477,0.231328,32.475120,-80.556292,-37.167800
00688,245436,6.713813,0.701995,1.294033,0.238446,-0.177655,0.311098,31.569779,-80.921680,-35.973297
00689,245636,7.012697,1.756206,1.243136,0.162985,-0.140685,0.264057,30.652164,-81.219545,-34.855001
00690,245836,7.136316,1.996267,1.058303,0.187902,-0.099936,0.158030,30.241470,-81.413269,-34.221334
00691,246036,7.417921,1.289139,1.008120,0.277249,-0.114089,0.072817,30.537360,-81.571330,-34.198875
00692,246236,7.762417,0.808399,1.319858,0.276089,-0.165840,0.059310,31.137933,-81.772246,-34.485712
00693,246436,8.195700,0.995566,1.870787,0.244767,-0.220947,0.072547,31.867591,-82.034142,-34.939039
00694,246636,8.578596,1.332492,2.499392,0.204292,-0.222314,0.085308,32.504254,-82.303900,-35.345043
00695,246836,8.624246,1.572257,2.776430,0.138566,-0.144684,0.108402,32.563665,-82.511978,-35.244466
00696,247036,8.628558,1.729780,2.894445,0.056946,-0.074414,0.122172,32.087434,-82.659782,-34.698109
00697,247236,8.877695,1.636997,2.814227,-0.010158,0.000628,0.136388,31.050210,-82.741329,-33.663858
00698,247436,9.343942,1.438909,2.643457,-0.023931,0.111267,0.146248,29.401308,-82.715422,-32.028956
00699,247636,9.948540,1.391976,2.314751,0.004262,0.127835,0.148918,27.707756,-82.667900,-30.316333
00700,247836,11.011012,1.321859,2.544777,0.021363,0.114936,0.135116,26.216702,-82.619974,-28.787949
00701,248036,12.087261,1.535084,2.903068,-0.053325,0.177446,0.147157,24.338143,-82.506988,-26.954803
00702,248236,12.654443,1.892866,3.665648,-0.311930,0.293086,0.150046,21.828744,-82.263745,-24.783421
00703,248436,12.437327,1.471644,4.415363,-0.382726,0.525697,0.144375,18.810101,-81.753853,-22.177785
00704,248636,13.365864,0.206556,3.845384,-0.043660,0.885103,0.175513,15.559487,-80.841358,-18.939747
00705,248836,15.420744,-0.384819,0.826149,0.219183,0.976673,0.258338,12.540500,-79.825186,-15.622313
00706,249036,13.810957,0.626094,-3.387490,0.142280,0.596153,0.154853,11.024810,-79.192307,-13.914635
00707,249236,10.772984,-0.596149,-4.281275,0.113155,-0.052720,-0.089206,11.755538,-79.232729,-14.526052
00708,249436,10.456747,-1.836529,-2.340893,0.073303,-0.384788,-0.094166,12.920967,-79.642970,-15.625729
00709,249636,11.323429,-2.850132,-0.316951,-0.203797,-0.284824,0.140427,12.215183,-79.999793,-15.145690
00710,249836,11.776022,-0.505559,1.413954,-0.145597,-0.003826,0.229206,10.594139,-80.059437,-13.669004
00711,250036,10.972985,1.326047,1.076471,0.232808,-0.007933,0.079082,10.367938,-80.088380,-13.168309
00712,250236,9.738575,2.029155,0.763937,0.488895,-0.148337,-0.163592,12.188852,-80.222011,-14.447520
00713,250436,8.476924,1.300275,1.124933,0.476731,-0.144565,-0.296848,14.900710,-80.306894,-16.644353
00714,250636,6.511630,0.791956,1.633065,0.424338,-0.050596,-0.330647,17.619020,-80.259623,-18.908491
00715,250836,4.848519,0.298293,1.511201,0.241628,0.033326,-0.326119,19.883007,-80.106155,-20.924715
00716,251036,4.568024,-0.301779,1.004177,0.021171,0.040260,-0.207824,21.098153,-79.982292,-22.133424
00717,251236,5.329047,0.313268,0.695249,-0.069716,-0.005944,-0.133546,21.848613,-79.935295,-22.976301
00718,251436,6.707668,0.995951,0.511385,-0.060297,-0.050413,-0.161816,22.881811,-79.920853,-24.095423
00719,251636,8.117231,0.507885,0.412015,-0.088793,-0.089877,-0.184852,24.118496,-79.933655,-25.454366
00720,251836,9.018728,0.070317,0.759429,-0.221441,-0.219177,-0.177948,25.527003,-80.078948,-27.141798
00721,252036,9.214746,-0.053863,1.535131,-0.331779,-0.333882,-0.174182,27.180242,-80.336087,-29.204882
00722,252236,9.008764,-0.296831,2.209564,-0.308629,-0.301775,-0.136093,28.620017,-80.571416,-31.023154
00723,252436,8.991980,-0.387226,2.404106,-0.187189,-0.197224,-0.114132,29.776613,-80.707359,-32.412478
00724,252636,9.239846,-0.263096,2.722379,-0.093522,-0.117238,-0.118826,30.812563,-80.756858,-33.570506
00725,252836,9.922766,0.006335,2.955685,-0.069045,-0.002236,-0.135891,31.561647,-80.680301,-34.409551
00726,253036,10.538557,0.216075,3.029442,-0.074487,0.066793,-0.137923,32.047059,-80.533559,-34.987992
00727,253236,10.630948,0.333833,3.090154,-0.090126,0.107285,-0.137358,32.346216,-80.346965,-35.396068
00728,253436,10.303542,0.271297,2.232783,-0.037723,0.136653,-0.147644,32.642438,-80.125215,-35.740523
00729,253636,10.679449,0.043828,1.673640,0.134857,0.191928,-0.173906,33.066969,-79.833662,-36.014758
00730,253836,12.022518,0.203014,2.740718,0.330309,0.316057,-0.194397,33.375600,-79.409874,-35.943841
00731,254036,13.338042,1.036740,5.948360,-0.012786,0.469236,-0.156345,32.611221,-78.861754,-35.180691
00732,254236,14.272466,3.319931,6.251906,-0.433354,0.666226,-0.082012,30.534642,-78.161396,-33.568728
00733,254436,14.358517,4.363372,1.323973,-0.452121,0.708236,-0.105898,28.650739,-77.394972,-32.171411
00734,254636,12.353924,1.994136,-3.624277,-0.070135,0.325396,-0.273287,28.987119,-76.917873,-32.598764
00735,254836,9.538305,0.454462,-3.973264,0.109487,-0.449882,-0.233624,31.253451,-77.231412,-34.795028
00736,255036,8.444258,0.650709,-1.717771,0.086467,-0.774393,-0.028493,33.650152,-77.965443,-37.147144
00737,255236,9.527174,1.486171,-1.121746,0.004870,-0.595254,0.021416,35.428447,-78.544313,-38.957310
00738,255436,11.159850,2.379839,0.182674,-0.122319,-0.374349,0.052529,36.318428,-78.930278,-40.007165
00739,255636,12.008003,3.019094,0.766884,-0.371529,-0.212165,0.123838,36.058781,-79.213253,-40.175731
00740,255836,11.700200,2.552431,0.584472,-0.360566,-0.155527,0.116458,35.643823,-79.438837,-40.173261
00741,256036,9.779545,0.738926,-0.036776,-0.224260,-0.125308,0.036751,35.673367,-79.583323,-40.463989
00742,256236,7.780627,-0.829039,-0.069401,-0.063577,-0.241101,0.071180,36.148232,-79.858613,-41.020019
00743,256436,6.725398,-1.227816,0.634359,0.005852,-0.267782,0.190823,36.197921,-80.239329,-41.063125
00744,256636,6.086112,-0.480841,1.234957,0.084698,-0.204148,0.306997,35.429224,-80.638871,-40.184729
00745,256836,6.044552,0.713913,1.265828,0.168351,-0.156319,0.368968,34.117584,-81.031015,-38.660319
00746,257036,6.471112,1.612046,0.965867,0.190776,-0.100447,0.333034,32.706355,-81.340922,-37.010604
00747,257236,6.979167,1.674275,0.804431,0.208342,-0.075346,0.231118,31.778745,-81.558762,-35.830737
00748,257436,7.662945,1.378163,1.098096,0.201706,-0.110729,0.110344,31.750671,-81.736547,-35.568336
00749,257636,8.274631,1.093958,1.344880,0.232550,-0.173523,0.035372,32.533737,-81.929617,-36.089808
00750,257836,8.707290,1.154900,1.543683,0.253849,-0.215451,0.032874,33.581659,-82.159966,-36.853799
00751,258036,8.868642,1.391504,1.990117,0.252890,-0.178321,0.077901,34.184539,-82.381856,-37.169376
00752,258236,8.749171,1.705589,2.503980,0.246495,-0.080196,0.096858,34.183644,-82.522199,-36.883176
00753,258436,8.542661,1.791477,2.907172,0.160129,-0.031475,0.100812,33.806809,-82.618052,-36.317757
00754,258636,8.366076,1.625990,3.114107,0.033319,0.057371,0.125684,32.653404,-82.642739,-35.115927
00755,258836,9.019558,1.594082,2.841433,-0.065704,0.175552,0.160017,30.579899,-82.567819,-33.100654
00756,259036,9.648360,1.640374,2.318102,-0.095667,0.206106,0.170309,28.311133,-82.458020,-30.922642
00757,259236,10.645192,1.670672,2.262503,-0.087710,0.178929,0.159698,26.302551,-82.359459,-28.997380
00758,259436,11.736398,1.767815,2.367981,-0.153058,0.217921,0.163032,24.112518,-82.212509,-26.964004
00759,259636,12.650744,2.309531,3.262776,-0.400256,0.271695,0.171247,21.498128,-82.000530,-24.787289
00760,259836,12.755389,2.025050,4.909474,-0.442575,0.465213,0.132499,18.754450,-81.550391,-22.527159
00761,260036,12.962567,1.003038,5.362863,-0.018647,0.729526,0.157157,16.032436,-80.803799,-19.793850
00762,260236,15.025022,-0.322251,2.710131,0.299596,0.874052,0.243622,13.308406,-79.902955,-16.682220
00763,260436,15.215957,-0.210095,-0.913766,0.170053,0.602364,0.324909,10.747856,-79.304087,-13.880416
00764,260636,11.816074,-0.107177,-3.768834,-0.104492,0.170943,0.203660,9.255136,-79.152138,-12.482314
00765,260836,10.363083,-0.324849,-3.182112,-0.060137,-0.247190,0.088779,8.905066,-79.449665,-12.195683
00766,261036,9.941325,-1.962055,-1.461150,-0.034534,-0.279072,0.100643,8.519280,-79.785879,-11.843310
00767,261236,11.080447,-2.891711,0.356370,-0.054159,-0.166470,0.231040,7.137854,-80.014067,-10.502935
00768,261436,11.139823,0.263383,2.138597,-0.067929,0.156222,0.196827,5.690725,-79.864410,-9.112034
00769,261636,10.004845,2.151888,1.657046,0.253628,0.161398,-0.016189,5.988522,-79.681531,-9.118997
00770,261836,9.331713,2.993539,1.012316,0.417718,0.061072,-0.288958,8.228290,-79.574096,-10.908894
00771,262036,7.726130,2.000322,0.852155,0.317434,0.068432,-0.416821,11.077109,-79.419583,-13.435737
00772,262236,5.952205,0.425288,0.990095,0.048804,0.016915,-0.369838,13.334007,-79.313777,-15.674573
00773,262436,4.902017,-0.473352,1.018213,-0.190872,-0.103482,-0.311395,15.121234,-79.343638,-17.715262
00774,262636,4.950697,-1.219810,0.917675,-0.195788,-0.175140,-0.182697,16.279666,-79.482774,-19.121503
00775,262836,5.833746,-0.875830,0.916867,-0.028388,-0.146388,-0.093212,17.075383,-79.615405,-19.963286
00776,263036,7.359522,-0.075367,0.768091,0.104481,-0.123307,-0.094710,18.008552,-79.720094,-20.789719
00777,263236,8.523229,0.071384,1.152244,0.070496,-0.075566,-0.122598,18.989074,-79.760335,-21.703678
00778,263436,9.123546,-0.207990,1.880870,-0.060306,-0.081774,-0.141613,19.952537,-79.797191,-22.752534
00779,263636,9.499468,-0.250072,2.272358,-0.113869,-0.145837,-0.123151,20.896253,-79.906992,-23.843489
00780,263836,9.500597,-0.020819,2.314377,-0.007408,-0.183797,-0.069102,21.748178,-80.076649,-24.716920
00781,264036,9.182148,0.103932,2.467221,-0.000658,-0.155264,-0.022448,22.276514,-80.233965,-25.253683
00782,264236,8.932818,0.179017,2.931700,-0.018051,-0.118615,-0.028842,22.744474,-80.348528,-25.749239
00783,264436,9.405649,0.600096,3.152802,-0.015154,-0.041078,-0.083982,23.361467,-80.355382,-26.392542
00784,264636,10.206786,0.821035,3.227622,-0.048806,0.045663,-0.130396,23.987545,-80.248269,-27.084302
00785,264836,10.487933,0.698948,3.164096,-0.068590,0.038037,-0.154375,24.740280,-80.136032,-27.927864
00786,265036,10.787224,0.422552,2.889607,-0.041896,0.003275,-0.173686,25.715773,-80.048009,-28.966798
00787,265236,10.953623,0.007376,2.122277,0.067720,0.064012,-0.205312,26.802632,-79.878336,-29.991717
00788,265436,11.893925,-0.021875,3.016304,0.137993,0.211598,-0.233026,27.655995,-79.540621,-30.698355
00789,265636,12.783749,1.055027,6.176670,-0.155608,0.409978,-0.249658,27.660012,-78.990902,-30.884072
00790,265836,13.841004,3.053969,4.871724,-0.606968,0.454039,-0.162964,26.605138,-78.441185,-30.517784
00791,266036,14.036277,3.901076,-0.187830,-0.776010,0.171456,-0.210584,26.337554,-78.156588,-31.152575
00792,266236,12.416841,2.104464,-4.621951,-0.409306,-0.160739,-0.385375,28.145523,-78.118480,-33.478982
00793,266436,9.859563,1.021669,-3.809133,-0.127334,-0.356176,-0.360199,30.689054,-78.272737,-36.226093
00794,266636,8.665114,0.031266,-1.020766,-0.192087,-0.476839,-0.190084,32.792569,-78.624869,-38.597291
00795,266836,9.749619,0.283145,-0.349714,0.027980,-0.461192,-0.061915,34.619943,-79.027543,-40.426811
00796,267036,11.503582,1.427404,-0.243067,-0.029413,-0.431339,-0.004395,36.126022,-79.430324,-41.993679
00797,267236,11.995839,2.549767,0.189645,-0.276439,-0.336131,0.064474,36.749976,-79.786745,-42.949502
00798,267436,11.508580,2.284925,0.393319,-0.192381,-0.197617,0.043192,37.090615,-80.000172,-43.518795
00799,267636,10.144984,0.196150,0.328820,0.045415,-0.160478,-0.015781,37.883831,-80.137997,-44.270617
00800,267836,8.546133,-1.190433,0.938052,0.048133,-0.208643,0.070146,38.449421,-80.378824,-44.787971
00801,268036,7.048416,-1.221110,1.399674,-0.003313,-0.152835,0.196904,38.049180,-80.659375,-44.385589
00802,268236,5.883517,-0.571213,1.033367,0.097749,-0.105242,0.323172,36.808323,-80.983661,-43.014802
00803,268436,5.493079,0.360639,0.686631,0.274542,-0.156652,0.391562,35.481257,-81.396749,-41.353206
00804,268636,6.085063,1.065457,0.778589,0.405635,-0.143598,0.365158,34.275076,-81.774400,-39.663705
00805,268836,6.976372,1.251390,1.031743,0.467558,-0.070355,0.261457,33.392874,-82.011395,-38.231100
00806,269036,7.715142,1.033440,1.148106,0.476370,-0.062096,0.135284,33.302763,-82.159114,-37.588695
00807,269236,8.408182,0.770559,1.310889,0.480512,-0.105658,0.071584,33.857211,-82.308273,-37.592269
00808,269436,9.012073,1.157398,1.904328,0.458488,-0.132562,0.081369,34.457302,-82.488938,-37.667365
00809,269636,8.889460,1.593000,2.581232,0.427219,-0.068517,0.094441,34.618894,-82.617079,-37.336359
00810,269836,8.386962,2.062534,2.932479,0.382086,0.059105,0.109079,33.977374,-82.633035,-36.247758
00811,270036,8.002692,2.120952,3.038708,0.280466,0.099556,0.111498,33.002884,-82.609213,-34.940826
00812,270236,8.264624,1.802597,2.952259,0.134604,0.169625,0.094880,31.670665,-82.503387,-33.441511
00813,270436,8.621173,1.446540,2.097533,0.057426,0.237185,0.101518,29.952579,-82.329475,-31.641660
00814,270636,9.034097,1.341778,1.667819,0.022651,0.166508,0.122211,28.402819,-82.230931,-30.051301
00815,270836,9.835174,1.552733,2.029876,-0.034022,0.053035,0.116181,27.305466,-82.238939,-28.982896
00816,271036,11.566344,2.071718,2.600043,-0.263122,-0.001774,0.108860,26.204571,-82.296074,-28.175922
00817,271236,13.255268,2.374607,3.827699,-0.484268,0.105442,0.103508,24.494454,-82.236211,-27.009862
00818,271436,14.147188,1.911294,5.239095,-0.268480,0.383287,0.079521,22.351406,-81.867113,-25.156419
00819,271636,15.554503,0.426139,4.674255,0.129924,0.734363,0.132651,19.548212,-81.132662,-22.171390
00820,271836,16.268084,-0.490326,1.067754,0.060030,0.732330,0.259351,16.294340,-80.423254,-18.805057
00821,272036,14.522774,0.330049,-2.358693,-0.425228,0.282203,0.331345,13.184534,-80.206249,-16.144306
00822,272236,11.703480,0.442081,-2.692256,-0.255187,-0.096852,0.134349,12.170345,-80.348688,-15.411654
00823,272436,10.380927,-0.673913,-1.383594,0.138158,-0.240118,-0.022020,12.843116,-80.613014,-15.932941
00824,272636,10.352086,-2.627728,-0.364275,0.152515,-0.167595,0.068139,12.821583,-80.819388,-15.733793
00825,272836,10.198406,-1.576674,0.934723,-0.014771,0.144272,0.192502,11.271505,-80.705764,-14.180336
00826,273036,9.463688,0.485300,1.050625,0.064429,0.203210,0.121851,10.258843,-80.505194,-13.078906
00827,273236,9.331590,1.905785,0.709330,0.296306,0.039740,-0.075833,11.065045,-80.446579,-13.551853
00828,273436,8.646455,2.760513,0.777957,0.271366,0.071091,-0.275783,13.109295,-80.302908,-15.309538
00829,273636,7.287557,1.548680,1.172063,0.129853,0.102804,-0.332111,15.240842,-80.097477,-17.321227
00830,273836,5.623868,0.356111,1.505578,-0.021140,0.050316,-0.323163,17.159253,-79.940535,-19.293295
00831,274036,4.758430,-0.852367,1.065292,0.055905,-0.081514,-0.289853,19.176909,-79.927398,-21.277054
00832,274236,4.902788,-1.407174,0.776425,0.156744,-0.134878,-0.145145,20.547697,-80.018000,-22.486398
00833,274436,5.636429,-0.592067,0.812429,0.132817,-0.062376,-0.084731,21.369803,-80.051812,-23.166301
00834,274636,6.999451,0.523958,0.823647,0.046309,0.043655,-0.127653,22.097151,-79.952988,-23.850703
00835,274836,8.397250,0.535562,1.021519,-0.026553,0.073428,-0.201002,23.084750,-79.788658,-24.884563
00836,275036,9.456224,0.308053,1.456494,-0.073032,-0.033909,-0.214653,24.342120,-79.727150,-26.247059
00837,275236,10.118141,-0.197482,2.194103,-0.077687,-0.188470,-0.188099,25.850708,-79.833075,-27.870192
00838,275436,10.105211,-0.381751,2.942198,-0.007267,-0.189757,-0.138544,27.189052,-79.958295,-29.237917
00839,275636,9.959599,-0.024273,3.611547,0.076050,-0.110366,-0.099163,28.181456,-80.018638,-30.157084
00840,275836,9.662232,0.199774,3.822821,0.140219,0.030378,-0.109584,28.872263,-79.928781,-30.695418
00841,276036,9.849290,0.240614,3.547613,0.207805,0.133192,-0.120501,29.366828,-79.728584,-30.956002
00842,276236,9.871352,0.772606,3.598293,0.155662,0.231481,-0.126322,29.518336,-79.426351,-30.928788
00843,276436,10.098159,0.772756,3.210073,0.004940,0.216087,-0.095744,29.381054,-79.156402,-30.783460
00844,276636,9.890430,0.595753,1.866565,0.012236,0.116330,-0.105118,29.593518,-78.980696,-30.985739
00845,276836,10.603855,-0.441469,1.340377,0.308755,0.157707,-0.136088,30.170945,-78.746219,-31.213865
00846,277036,11.946506,0.021474,3.921410,0.388326,0.390220,-0.118332,30.080441,-78.291073,-30.667757
00847,277236,14.222197,1.622340,6.505644,-0.146504,0.607043,-0.048396,28.531740,-77.656118,-29.256398
00848,277436,16.247258,3.875564,2.942479,-0.505028,0.557876,0.137420,26.008757,-77.158585,-27.264563
00849,277636,14.539384,3.401304,-3.247725,-0.155667,0.160703,-0.068000,25.784334,-76.958652,-27.217378
00850,277836,11.086236,1.988447,-4.350932,0.063793,-0.170641,-0.232758,27.270963,-77.015582,-28.667999
00851,278036,8.826513,1.766137,-0.840052,-0.072305,-0.443724,-0.151917,28.923398,-77.383701,-30.447226
00852,278236,8.978406,1.245753,-0.798517,-0.090456,-0.462100,-0.050240,30.243851,-77.817757,-31.904981
00853,278436,11.008702,0.725198,0.154172,-0.232564,-0.276455,0.063883,30.440135,-78.130468,-32.377774
00854,278636,11.812099,1.339487,1.063803,-0.391918,-0.156103,0.170578,29.616452,-78.385651,-31.994800
00855,278836,11.415297,1.790448,0.820747,-0.445883,-0.285586,0.175678,29.040604,-78.772194,-31.928157
00856,279036,9.917255,1.004370,0.369808,-0.286252,-0.265762,0.066389,29.140867,-79.078150,-32.364119
00857,279236,8.035279,-0.229038,0.349909,-0.126853,-0.279164,0.073779,29.442299,-79.401608,-32.818490
00858,279436,6.394293,-0.442137,0.818447,-0.033099,-0.261300,0.158741,29.352200,-79.754966,-32.765077
00859,279636,5.362983,-0.134781,0.887866,0.028093,-0.258721,0.259110,28.741103,-80.161522,-32.111459
00860,279836,5.281373,0.355720,0.764956,0.049042,-0.278247,0.333736,27.706848,-80.626528,-31.005210
00861,280036,5.745638,0.742681,0.986302,0.108740,-0.305387,0.302164,26.927082,-81.099451,-30.088942
00862,280236,6.505963,0.844382,1.288430,0.154454,-0.287285,0.200164,26.748125,-81.499669,-29.728587
00863,280436,7.232912,0.854188,1.304776,0.153051,-0.254955,0.100487,27.136994,-81.815040,-29.944099
00864,280636,7.716481,1.089999,1.199146,0.158062,-0.265380,0.030704,28.107419,-82.103374,-30.740971
00865,280836,8.363926,1.234438,1.219338,0.214854,-0.367209,0.019804,29.723999,-82.485073,-32.123557
00866,281036,8.862881,1.423745,2.297444,0.200710,-0.350265,0.027188,31.344528,-82.848547,-33.525288
00867,281236,9.069508,1.452003,3.174963,0.118305,-0.205047,0.039430,32.184978,-83.073385,-34.235290
00868,281436,9.021503,1.329014,3.430379,0.021182,-0.031783,0.069578,31.822373,-83.147165,-33.845398
00869,281636,9.224269,1.137487,3.263559,-0.058919,0.121920,0.111345,30.262884,-83.093362,-32.342434
00870,281836,9.636006,1.134965,2.765950,-0.113636,0.202712,0.131146,28.143083,-82.963615,-30.337879
00871,282036,10.012962,1.263112,1.973913,-0.100169,0.225201,0.111314,26.187373,-82.791737,-28.482481
00872,282236,10.776449,1.536319,1.719894,-0.100347,0.230715,0.072878,24.611521,-82.588066,-27.009466
00873,282436,11.920235,1.593911,2.711323,-0.345163,0.205860,0.062621,23.006482,-82.400225,-25.789308
00874,282636,12.222710,1.589964,4.099444,-0.506061,0.225643,0.052760,21.303636,-82.181953,-24.655934
00875,282836,12.677480,0.661546,4.307046,-0.250105,0.439693,0.082257,19.166148,-81.739631,-22.786522
00876,283036,15.254669,-0.828340,2.489278,0.202544,0.733699,0.191803,16.335657,-81.003679,-19.688810
00877,283236,16.492140,-0.157709,-1.788477,-0.173933,0.710851,0.310754,12.803830,-80.303781,-16.311366
00878,283436,13.050742,1.362409,-5.163317,-0.354679,-0.150087,0.069138,12.170471,-80.489747,-16.080913
00879,283636,11.595421,0.050143,-3.104719,0.062395,-0.649867,-0.183347,14.587518,-81.167796,-18.456459
00880,283836,11.415044,-3.172238,-1.864895,0.189891,-0.543492,-0.030637,16.139123,-81.762058,-19.805156
00881,284036,12.202834,-3.446220,1.464473,0.337562,-0.162239,0.282733,14.682002,-82.030646,-17.942533
00882,284236,10.621189,-0.010704,2.460346,0.377685,0.288144,0.264453,12.498262,-81.783818,-15.299638
00883,284436,9.627384,1.957750,1.106859,0.526348,0.279303,0.075136,12.068803,-81.492296,-14.255838
00884,284636,8.879944,3.119456,0.637073,0.523125,0.131141,-0.150767,13.569378,-81.310284,-15.167000
00885,284836,7.194046,2.647236,0.951048,0.455801,0.077847,-0.315818,16.219682,-81.133679,-17.319916
00886,285036,5.641452,0.999049,0.990156,0.302532,0.038565,-0.336875,18.833512,-80.977709,-19.614639
00887,285236,4.836968,-0.395830,0.927669,0.158528,-0.043284,-0.310021,21.227185,-80.904954,-21.854268
00888,285436,4.861793,-1.122645,0.845590,0.081705,-0.063462,-0.203009,22.846826,-80.887413,-23.399474
00889,285636,5.509857,-0.354850,0.932731,0.111536,-0.016729,-0.133115,23.901997,-80.846792,-24.338489
00890,285836,6.717846,0.725616,0.544778,0.162291,0.025677,-0.165670,25.088511,-80.743606,-25.351810
00891,286036,8.137176,0.842422,0.322786,0.059826,0.026541,-0.207678,26.393383,-80.615242,-26.604364
00892,286236,9.265334,0.574343,1.367967,-0.124175,-0.037140,-0.251947,27.925221,-80.523635,-28.301123
00893,286436,9.741849,0.144109,2.195989,-0.210189,-0.052247,-0.248661,29.356587,-80.441737,-29.996406
00894,286636,9.832051,-0.136327,2.546278,-0.133184,-0.060221,-0.218061,30.696339,-80.378393,-31.509696
00895,286836,9.680193,-0.101637,2.838761,0.009012,-0.081393,-0.214412,32.231710,-80.331416,-33.056433
00896,287036,9.522553,-0.110012,3.190484,0.067325,-0.035985,-0.223223,33.695684,-80.228257,-34.463353
00897,287236,9.961221,-0.055465,3.083730,0.021868,0.069102,-0.205629,34.586731,-80.031678,-35.342317
00898,287436,10.362319,0.665630,3.147387,-0.068697,0.142233,-0.196235,35.021259,-79.770423,-35.863663
00899,287636,10.303841,1.190757,3.109765,-0.180960,0.164507,-0.213448,35.310820,-79.476038,-36.368908
00900,287836,10.084964,0.814673,2.382591,-0.158578,0.067611,-0.238539,36.067813,-79.254109,-37.324114
00901,288036,10.532214,-0.204236,1.110556,0.114874,0.016353,-0.246024,37.318055,-79.071387,-38.463153
00902,288236,11.989831,-0.824490,2.282038,0.364265,0.269663,-0.172773,37.573038,-78.706686,-38.297832
00903,288436,13.363647,0.568853,6.339583,0.050452,0.529853,-0.020374,35.933660,-78.206525,-36.566016
00904,288636,15.017034,3.123122,4.352581,-0.457114,0.501535,0.163865,33.135430,-77.839215,-34.241417
00905,288836,14.884296,4.437420,-1.498144,-0.436407,-0.086594,0.043832,32.686357,-77.950014,-34.293753
00906,289036,12.035981,4.223219,-5.010263,-0.080152,-0.282640,-0.158639,34.155980,-78.121477,-35.889727
00907,289236,9.018558,2.924935,-3.568811,-0.041209,-0.313550,-0.153724,35.797400,-78.316865,-37.614308
00908,289436,8.417296,1.393634,-1.642104,0.022750,-0.352333,-0.091504,37.425213,-78.580812,-39.248662
00909,289636,10.760394,0.367156,0.995097,0.085630,-0.265137,0.058321,38.204410,-78.864358,-39.942670
00910,289836,12.206028,0.456791,2.242963,-0.189619,-0.299544,0.269947,37.830112,-79.327861,-39.782371
00911,290036,12.025986,2.735689,1.048336,-0.380287,-0.250768,0.311371,36.813250,-79.775176,-39.191050
00912,290236,10.064900,2.529216,-0.456231,-0.373319,-0.048615,0.166901,35.723816,-79.935838,-38.518382
00913,290436,7.721909,0.614908,-0.244948,-0.143688,-0.087796,0.064499,35.567753,-80.063524,-38.526576
00914,290636,6.463265,-0.266936,0.442010,-0.051994,-0.239403,0.121373,35.797177,-80.370495,-38.819349
00915,290836,5.771628,-0.518416,1.255134,-0.093615,-0.255005,0.255037,35.295554,-80.781176,-38.419183
00916,291036,5.611653,0.280317,1.734527,-0.116546,-0.148078,0.389226,33.460513,-81.175952,-36.696031
00917,291236,6.123254,1.539060,1.192711,-0.066470,-0.100100,0.420449,31.122978,-81.533030,-34.408341
00918,291436,6.851664,1.978807,0.480342,0.037956,-0.123930,0.322590,29.488790,-81.844785,-32.712490
00919,291636,7.623875,1.852224,0.882284,0.048014,-0.044227,0.146296,28.705029,-81.973040,-31.864892
00920,291836,8.043981,0.953869,1.053169,0.124952,-0.102845,0.002699,29.255274,-82.079986,-32.275544
00921,292036,8.781762,0.578117,1.758857,0.205407,-0.272524,0.003936,30.620836,-82.355000,-33.415870
00922,292236,9.196066,0.927163,2.593934,0.178564,-0.208617,0.053726,31.375910,-82.593331,-33.970779
00923,292436,8.944232,1.497814,2.987379,0.151309,-0.155721,0.083574,31.657857,-82.796663,-34.079926
00924,292636,8.543091,1.817981,3.238747,0.088232,-0.089662,0.126070,31.218954,-82.960191,-33.535441
00925,292836,8.558704,1.643550,3.084170,0.032637,0.038635,0.150151,29.886528,-83.009500,-32.155024
00926,293036,8.984118,1.511004,2.309919,0.013392,0.150171,0.156479,27.969390,-82.945255,-30.207677
00927,293236,9.475905,1.467234,1.891422,-0.045643,0.147580,0.162117,25.986478,-82.878253,-28.261934
00928,293436,10.459622,1.697059,2.274013,-0.103224,0.111613,0.148046,24.228155,-82.833597,-26.608785
00929,293636,11.643623,2.117693,2.641747,-0.093424,0.121832,0.111628,22.772910,-82.755402,-25.249561
00930,293836,12.714126,2.472292,3.404854,-0.205852,0.189726,0.059053,21.435594,-82.577758,-24.138720
00931,294036,12.567535,1.923491,4.343041,-0.257285,0.436779,0.030148,19.614656,-82.118798,-22.598566
00932,294236,12.784059,0.562684,4.471845,0.017919,0.762589,0.118511,16.885182,-81.328442,-19.819341
00933,294436,14.929796,-0.664333,2.583618,0.342067,1.031488,0.268849,13.542183,-80.265620,-16.035476
00934,294636,15.491261,0.073189,-0.909227,0.294857,0.840323,0.340211,10.643139,-79.403901,-12.746599
00935,294836,12.500616,0.359157,-3.839281,-0.123470,0.499485,0.143239,9.161310,-78.868340,-11.381284
00936,295036,10.485931,0.293964,-2.659754,-0.020613,0.152257,-0.122048,9.703862,-78.674497,-11.957926
00937,295236,9.686074,-1.577392,-1.643447,0.038165,-0.117627,-0.092077,10.400626,-78.790838,-12.623267
00938,295436,10.563250,-2.728220,0.250834,-0.077739,-0.056059,0.162546,9.447617,-78.888761,-11.742298
00939,295636,10.320503,-0.162568,1.593681,0.060675,0.105254,0.225320,8.138004,-78.811677,-10.336270
00940,295836,9.944260,1.669812,1.400040,0.382267,0.064094,0.034462,8.336420,-78.747352,-10.091558
00941,296036,9.986509,2.478432,1.169022,0.423396,-0.066494,-0.197195,10.019284,-78.789275,-11.312120
00942,296236,8.729569,1.729021,1.650271,0.269433,0.043342,-0.308577,12.037333,-78.675449,-13.054431
00943,296436,6.632484,0.838335,1.593716,0.122392,0.098361,-0.284073,13.640910,-78.495561,-14.546669
00944,296636,5.225075,-0.101046,1.160490,0.028179,0.067262,-0.246103,14.929339,-78.353510,-15.828285
00945,296836,4.792996,-0.664584,0.952568,-0.059117,-0.031812,-0.165987,15.811249,-78.340443,-16.797363
00946,297036,5.300701,-0.083073,1.208209,-0.082140,-0.101174,-0.145830,16.667490,-78.407129,-17.767099
00947,297236,6.620581,0.631792,1.100483,0.048853,-0.120768,-0.166605,17.829428,-78.484737,-18.895384
00948,297436,7.720349,0.822569,0.932062,-0.022277,-0.098913,-0.210225,19.117627,-78.517966,-20.235453
00949,297636,8.717903,0.349903,1.443100,-0.100742,-0.184603,-0.261432,20.765465,-78.616669,-22.033868
00950,297836,9.247772,-0.295561,2.146988,-0.181915,-0.291307,-0.263909,22.596648,-78.817049,-24.113197
00951,298036,9.219478,-0.460943,2.583218,-0.181452,-0.311975,-0.199413,24.198871,-79.056105,-25.957188
00952,298236,9.045277,-0.294500,2.880673,-0.093953,-0.291881,-0.121690,25.498517,-79.302436,-27.389608
00953,298436,9.003570,-0.281820,3.195409,-0.041062,-0.201624,-0.083979,26.461122,-79.469081,-28.416563
00954,298636,9.711221,-0.024131,3.135089,-0.035151,-0.041438,-0.081641,26.991376,-79.470251,-28.996658
00955,298836,10.470710,0.448190,3.382601,0.041055,0.049265,-0.111250,27.511204,-79.362208,-29.477462
00956,299036,11.030206,0.743099,3.747979,0.107275,0.011469,-0.113080,28.212473,-79.290168,-30.065876
00957,299236,11.103242,0.737539,3.027413,0.090837,-0.022672,-0.101823,28.925185,-79.257108,-30.685246
00958,299436,10.910755,0.359526,2.318915,0.206659,0.048895,-0.129053,29.695027,-79.135750,-31.227855
00959,299636,11.494761,0.384867,3.578868,0.308274,0.156674,-0.141192,30.306899,-78.899021,-31.491325
00960,299836,13.182482,1.504700,5.302727,0.085111,0.323619,-0.073749,29.837223,-78.534778,-30.913041
00961,300036,15.518809,3.240756,2.771987,-0.230332,0.387134,0.084492,28.117869,-78.192429,-29.427128
00962,300236,14.742506,2.674396,-2.138849,0.117029,-0.002448,-0.009289,28.306729,-78.189601,-29.482923
00963,300436,12.449677,1.589823,-3.021950,0.432763,-0.320201,-0.126917,30.290918,-78.439187,-31.002408
00964,300636,10.456275,1.865109,-0.136738,0.345753,-0.392245,-0.107455,32.376978,-78.760100,-32.725907
00965,300836,9.557572,1.500763,0.646020,0.082501,-0.488927,-0.010813,34.114222,-79.222957,-34.399003
00966,301036,9.809862,1.960139,-0.009809,-0.510802,-0.230039,0.116733,33.734131,-79.517503,-34.607392
00967,301236,10.075407,2.350517,-0.873576,-0.712012,-0.059509,0.225452,31.951463,-79.716372,-33.624012
00968,301436,10.274731,1.967242,-0.521479,-0.526037,-0.149942,0.197040,30.790066,-79.982386,-33.055946
00969,301636,9.996560,0.590603,-0.350902,-0.133110,-0.196665,0.068293,30.934657,-80.218130,-33.356968
00970,301836,9.016029,-0.753765,-0.195997,0.056111,-0.308375,0.065482,31.724798,-80.561564,-34.092585
00971,302036,7.788770,-0.723691,0.932735,0.089776,-0.372972,0.171876,32.211258,-81.031107,-34.480679
00972,302236,6.917358,0.148524,1.618111,-0.025630,-0.267076,0.300617,31.343731,-81.475259,-33.632236
00973,302436,6.234191,1.099325,1.323297,-0.153768,-0.136900,0.367830,29.245078,-81.825782,-31.688802
00974,302636,5.881516,1.302240,0.846179,-0.176236,-0.112630,0.355118,26.945897,-82.133654,-29.570473
00975,302836,6.162007,1.041933,0.646441,-0.113747,-0.148415,0.268747,25.349570,-82.424375,-28.090701
00976,303036,7.030114,0.723360,1.017010,0.002023,-0.193497,0.170162,24.737986,-82.710058,-27.471231
00977,303236,7.831227,0.595749,1.274607,0.113076,-0.234478,0.085086,25.086141,-82.996944,-27.691174
00978,303436,8.401599,0.625510,1.299115,0.192908,-0.298656,0.049705,26.134740,-83.332145,-28.524307
00979,303636,8.803006,0.757597,1.780310,0.214875,-0.327988,0.051146,27.433254,-83.695763,-29.583057
00980,303836,9.039177,1.142574,2.370979,0.182771,-0.292878,0.068432,28.485593,-84.030191,-30.430525
00981,304036,8.979326,1.515165,2.788209,0.095102,-0.169769,0.091690,28.625901,-84.251942,-30.461754
00982,304236,8.675970,1.406867,2.918508,-0.009040,-0.039276,0.115031,27.687831,-84.353938,-29.529194
00983,304436,8.703279,1.003487,2.508015,-0.034433,0.148763,0.134369,25.522934,-84.270210,-27.393010
00984,304636,9.201978,0.829651,2.059475,0.020193,0.287586,0.135450,22.867363,-84.032715,-24.700063
00985,304836,10.163522,1.130806,2.296750,0.012218,0.302218,0.125478,20.457016,-83.763201,-22.261672
00986,305036,11.388987,2.060828,2.624301,-0.063177,0.276998,0.088136,18.604239,-83.496767,-20.469967
00987,305236,12.364628,3.189505,2.491639,-0.277617,0.312241,0.035713,17.042310,-83.167279,-19.217365
00988,305436,12.351076,2.971037,3.489442,-0.369185,0.394858,-0.024830,15.833292,-82.723337,-18.425021
00989,305636,12.385882,1.494986,4.337679,-0.226552,0.650747,-0.039875,14.476040,-81.989109,-17.317136
00990,305836,13.944394,-0.153536,3.061028,0.170031,0.910612,0.015989,12.923923,-80.976990,-15.550311
00991,306036,15.220495,-0.332151,-0.227958,0.195998,0.765685,0.099734,11.385393,-80.141466,-13.762516
00992,306236,12.795438,-0.677851,-4.310032,0.011408,0.255500,0.001896,11.081866,-79.854583,-13.440479
00993,306436,10.739946,-1.350582,-4.361860,0.237755,-0.458355,-0.138066,12.883464,-80.336886,-14.992210
00994,306636,10.750956,-3.111376,-1.784758,0.086475,-0.557305,-0.012691,13.984610,-80.956881,-16.007331
00995,306836,11.814452,-4.016240,1.133618,-0.090791,-0.245717,0.373848,11.609203,-81.328987,-13.708321
00996,307036,11.973850,-0.133633,1.982569,0.087390,0.132009,0.445499,8.260090,-81.270601,-10.218731
00997,307236,11.053087,2.177952,1.313005,0.338074,0.332741,0.180693,7.023605,-80.922801,-8.574785
00998,307436,9.734363,2.674515,0.458802,0.443359,0.239473,-0.124392,8.191189,-80.634677,-9.242596
00999,307636,7.793645,1.182320,0.709660,0.449785,0.084858,-0.252034,10.342024,-80.494939,-10.900037
01000,307836,5.801186,0.090964,1.153742,0.313145,-0.009545,-0.235927,12.307835,-80.455168,-12.529066
01001,308036,4.725624,-0.603704,1.223026,0.088962,-0.012823,-0.134562,13.335597,-80.437715,-13.467529
01002,308236,4.561915,-0.449337,0.998872,-0.041798,-0.037109,-0.060235,13.757957,-80.465236,-13.944042
01003,308436,5.338047,0.335310,0.941004,-0.047470,-0.071672,-0.069438,14.295866,-80.527899,-14.544240
01004,308636,6.728688,0.858527,0.647318,-0.070551,-0.122459,-0.143379,15.401804,-80.623699,-15.746887
01005,308836,7.905947,0.689969,0.585282,-0.165129,-0.190748,-0.214020,17.036958,-80.767386,-17.595195
01006,309036,8.775751,0.005181,1.121440,-0.289741,-0.190967,-0.244540,18.787899,-80.891695,-19.704738
01007,309236,8.998359,-0.589980,1.709521,-0.346368,-0.182577,-0.217129,20.315661,-81.007736,-21.653326
01008,309436,9.208349,-0.941765,2.442377,-0.276935,-0.173597,-0.150924,21.489126,-81.133807,-23.162143
01009,309636,9.502708,-0.793940,2.906897,-0.163445,-0.147885,-0.109203,22.468017,-81.245772,-24.342035
01010,309836,9.650062,-0.397779,2.971818,-0.095866,-0.063022,-0.133588,23.463048,-81.253881,-25.459768
01011,310036,10.083614,-0.017154,3.052558,-0.085544,0.057453,-0.175686,24.383584,-81.113082,-26.490388
01012,310236,10.250807,0.175832,3.366287,-0.151204,0.150400,-0.185137,24.974640,-80.868549,-27.264181
01013,310436,10.309315,0.627548,3.297825,-0.201353,0.204832,-0.213206,25.484510,-80.552360,-28.014582
01014,310636,10.187800,0.034707,2.275806,-0.052964,0.158584,-0.238217,26.405927,-80.269714,-29.010598
01015,310836,10.564484,-0.477917,1.669027,0.229599,0.139512,-0.271331,27.838618,-79.985997,-30.197798
01016,311036,11.994713,-0.431874,3.124976,0.296018,0.320349,-0.282977,28.789447,-79.509264,-30.819445
01017,311236,13.478937,0.638218,6.151057,-0.123837,0.564282,-0.195132,28.059787,-78.833686,-30.221279
01018,311436,14.552849,3.580912,4.457888,-0.449462,0.581210,-0.080876,26.444320,-78.198056,-29.098597
01019,311636,14.879719,3.655097,-1.231128,-0.227580,0.153718,-0.139003,26.487013,-77.968913,-29.408776
01020,311836,12.857947,1.721569,-4.750883,0.278776,-0.156006,-0.338016,28.807883,-77.948470,-31.455031
01021,312036,9.894375,0.890641,-2.200704,0.280612,-0.368956,-0.174536,30.955433,-78.217148,-33.320956
01022,312236,8.638380,0.663801,-0.313960,-0.006437,-0.300630,-0.022219,31.933038,-78.499811,-34.326306
01023,312436,10.322735,0.554926,0.740676,0.052795,-0.162312,0.041491,32.291453,-78.684867,-34.629910
01024,312636,11.693728,1.056849,0.727977,-0.013636,-0.087308,0.159098,31.772425,-78.868848,-34.116364
01025,312836,12.000063,2.600793,0.317245,-0.230550,-0.137193,0.204775,30.908426,-79.127774,-33.504922
01026,313036,10.894860,2.083502,0.136057,-0.275161,-0.059997,0.123871,30.147967,-79.261880,-33.051274
01027,313236,8.717322,0.157314,0.231355,-0.144334,-0.119830,0.050659,30.094330,-79.412836,-33.164539
01028,313436,7.138166,-0.755439,1.000306,-0.072183,-0.148705,0.116040,29.860178,-79.630072,-33.010138
01029,313636,6.076154,-0.564713,1.471729,-0.029087,-0.103712,0.203912,29.034741,-79.851616,-32.204834
01030,313836,5.572447,0.394207,1.194644,0.023081,-0.121106,0.289790,27.788851,-80.134784,-30.912543
01031,314036,5.747997,1.290302,0.905179,0.103280,-0.147307,0.308251,26.529958,-80.449207,-29.514993
01032,314236,6.447392,1.259643,0.762708,0.196034,-0.102275,0.215042,25.745189,-80.665898,-28.491411
01033,314436,7.296516,0.606905,1.018123,0.252199,-0.097503,0.084388,25.808470,-80.811444,-28.262411
01034,314636,8.180520,-0.034455,1.326660,0.281806,-0.086527,-0.003356,26.433499,-80.901639,-28.568128
01035,314836,8.772006,0.125195,1.472094,0.340260,-0.157629,-0.009139,27.406219,-81.060760,-29.157981
01036,315036,8.978455,1.121380,2.207348,0.363268,-0.153035,0.019170,28.231955,-81.228606,-29.572139
01037,315236,9.014927,1.651706,2.940873,0.332320,-0.019331,0.055775,28.324061,-81.280391,-29.279804
01038,315436,8.609915,1.827383,3.421520,0.271652,0.091892,0.104968,27.631426,-81.245219,-28.263873
01039,315636,8.336348,1.579542,3.544311,0.163003,0.188781,0.136784,26.292854,-81.124275,-26.720081
01040,315836,8.551878,1.327354,3.122282,0.096997,0.311718,0.157061,24.418254,-80.878892,-24.709408
01041,316036,9.125844,1.385931,2.711747,0.024489,0.309289,0.163800,22.528714,-80.628589,-22.766382
01042,316236,9.905184,1.542966,2.548365,-0.086393,0.233504,0.161973,20.809462,-80.448240,-21.123583
01043,316436,10.711892,1.989368,2.442067,-0.131911,0.162310,0.123402,19.505222,-80.321937,-19.953834
01044,316636,11.919804,2.388215,3.152793,-0.254639,0.161966,0.066333,18.454469,-80.170372,-19.183463
01045,316836,12.479910,1.940902,5.083423,-0.372590,0.388917,0.014331,17.179328,-79.749632,-18.321803
01046,317036,12.416497,0.823981,5.886814,-0.042581,0.662500,0.048068,15.709599,-79.034853,-16.875928
01047,317236,14.370745,-0.408748,3.960482,0.360920,0.820695,0.221700,13.723817,-78.187318,-14.428204
01048,317436,16.085688,-0.672144,-0.150916,0.379601,0.531496,0.385070,11.526694,-77.687958,-11.736455
01049,317636,13.791878,-0.281368,-3.841113,0.033574,-0.092809,0.237293,10.434053,-77.844414,-10.578766
01050,317836,11.569100,0.819435,-1.603878,-0.151223,-0.263839,0.008889,10.479529,-78.144716,-10.802078
01051,318036,10.043624,-1.412178,-0.458923,-0.111637,-0.194800,0.023501,10.425444,-78.370869,-10.877218
01052,318236,10.417856,-3.398519,0.206347,0.014494,-0.214995,0.272490,9.135398,-78.669014,-9.543769
01053,318436,10.042410,-1.044247,1.515935,0.120256,-0.060551,0.359824,7.274768,-78.798978,-7.506019
01054,318636,9.592585,0.865807,1.447945,0.448324,-0.070815,0.193291,6.724044,-78.908979,-6.421013
01055,318836,9.874842,2.345676,1.036242,0.536489,0.013625,-0.053792,7.644271,-78.888339,-6.732126
01056,319036,8.686908,2.555200,0.863018,0.380506,0.117097,-0.223683,9.268262,-78.720530,-7.942858
01057,319236,6.971312,1.602352,1.199911,0.170567,0.114399,-0.271965,10.883963,-78.539450,-9.391188
01058,319436,5.482703,0.423253,1.193677,0.030417,0.018951,-0.249433,12.282524,-78.463193,-10.782463
01059,319636,5.150978,-0.515038,0.981982,0.016909,-0.121543,-0.181946,13.462357,-78.554909,-11.966322
01060,319836,5.847207,-0.545545,0.989887,0.051461,-0.157646,-0.147065,14.558580,-78.691781,-13.024061
01061,320036,7.065983,0.090255,1.104334,0.022647,-0.069367,-0.160264,15.583284,-78.723182,-14.042235
01062,320236,7.837308,0.234200,1.357719,-0.061187,0.000533,-0.216753,16.712293,-78.655887,-15.264815
01063,320436,8.450044,0.234022,1.536257,-0.157009,-0.110047,-0.265043,18.174464,-78.687486,-16.939239
01064,320636,8.905661,-0.008523,2.001963,-0.228188,-0.213806,-0.277968,19.835223,-78.817651,-18.898848
01065,320836,8.997079,-0.276391,2.439113,-0.205870,-0.204165,-0.240827,21.337768,-78.941699,-20.670337
01066,321036,9.220874,-0.441739,2.857958,-0.124597,-0.183316,-0.174689,22.558512,-79.063563,-22.059195
01067,321236,9.442685,-0.505606,3.425176,-0.032272,-0.115015,-0.152669,23.626739,-79.117720,-23.184647
01068,321436,9.766861,-0.337409,3.484384,0.020220,0.023610,-0.156413,24.440563,-79.021253,-23.989885
01069,321636,10.016051,0.352281,3.603307,-0.000754,0.123331,-0.193337,25.162119,-78.800920,-24.726075
01070,321836,10.011799,0.687494,3.815943,-0.051858,0.182948,-0.206133,25.714782,-78.510635,-25.350432
01071,322036,9.928960,0.834575,3.266865,-0.091202,0.123344,-0.201059,26.313822,-78.282773,-26.068767
01072,322236,9.967965,0.110198,2.103243,0.059888,0.027904,-0.206795,27.323204,-78.147578,-27.029923
01073,322436,10.692086,-0.683767,1.723414,0.375118,0.137617,-0.201209,28.361860,-77.900952,-27.652475
01074,322636,12.271743,-0.067599,4.862316,0.255027,0.333716,-0.132606,28.425798,-77.492436,-27.419134
01075,322836,14.682453,1.821315,6.466750,-0.215291,0.623354,-0.025033,26.827925,-76.845627,-26.033806
01076,323036,16.034585,3.705447,1.930511,-0.315246,0.553123,0.066539,25.012989,-76.308324,-24.539608
01077,323236,13.896342,2.895971,-3.399460,0.068688,0.109222,-0.154262,25.524284,-76.120329,-24.985087
01078,323436,11.090976,1.975142,-2.714275,0.140592,-0.232210,-0.211264,27.049275,-76.253296,-26.389476
01079,323636,8.768031,1.859327,-0.254466,0.068065,-0.371166,-0.150411,28.581686,-76.550961,-27.885610
01080,323836,8.507821,1.524418,0.170841,0.143447,-0.447791,-0.061949,30.082455,-76.965641,-29.258205
01081,324036,10.281893,1.360444,0.891063,-0.176174,-0.225890,0.056929,30.207802,-77.224478,-29.593591
01082,324236,11.244031,2.094986,0.917782,-0.330017,-0.086816,0.147451,29.405615,-77.397145,-29.158583
01083,324436,11.293191,1.802774,0.571178,-0.344192,-0.153651,0.162256,28.671684,-77.643914,-28.810423
01084,324636,10.001100,0.645289,0.187352,-0.223988,-0.225560,0.093619,28.561188,-77.925114,-28.959543
01085,324836,8.345906,-0.006156,0.611958,-0.022080,-0.381184,0.079245,29.170585,-78.354622,-29.607664
01086,325036,7.217408,0.132801,1.251913,0.043714,-0.394821,0.160445,29.534776,-78.842225,-29.927700
01087,325236,6.404436,0.430770,1.745230,0.012453,-0.270508,0.278587,28.899201,-79.271570,-29.265483
01088,325436,5.956237,0.894421,1.518620,-0.031820,-0.181244,0.356656,27.462128,-79.650480,-27.840532
01089,325636,6.147126,1.042011,1.249399,-0.003230,-0.169486,0.336360,26.036531,-80.000103,-26.395622
01090,325836,6.542164,1.093433,1.275775,0.053331,-0.184884,0.235115,25.235421,-80.310241,-25.520217
01091,326036,7.079256,1.013178,1.337835,0.086661,-0.190527,0.117571,25.172758,-80.567582,-25.355671
01092,326236,7.426131,0.867209,1.253016,0.194184,-0.308153,0.061302,25.951651,-80.918762,-25.919092
01093,326436,8.185776,0.987897,1.576916,0.251767,-0.383257,0.050891,27.175404,-81.339794,-26.865368
01094,326636,8.667357,1.353389,2.443301,0.227062,-0.298139,0.057467,28.118297,-81.674714,-27.555359
01095,326836,8.747170,1.529243,3.126778,0.163022,-0.151112,0.083011,28.303235,-81.873455,-27.553213
01096,327036,8.548803,1.625369,3.447540,0.045985,-0.030997,0.115036,27.664737,-81.967266,-26.854859
01097,327236,8.670283,1.409563,3.267751,-0.050230,0.068712,0.148187,26.292008,-81.974216,-25.526456
01098,327436,9.030448,1.288246,2.557632,-0.054425,0.143103,0.172946,24.478970,-81.910789,-23.758125
01099,327636,9.645521,1.349450,2.163054,-0.017499,0.174170,0.177441,22.609430,-81.808594,-21.889600
01100,327836,10.669883,1.447996,2.400853,-0.048500,0.158083,0.139902,21.073579,-81.699432,-20.393635
01101,328036,11.987370,1.811220,2.931456,-0.172665,0.115536,0.097291,19.860334,-81.613410,-19.367143
01102,328236,12.749039,2.138768,4.054270,-0.372069,0.161348,0.061336,18.591998,-81.460466,-18.515635
01103,328436,12.710615,1.652607,5.123464,-0.290029,0.419241,0.057474,16.914621,-81.020776,-17.154483
01104,328636,13.344738,0.424527,4.451024,0.011970,0.752626,0.136802,14.606382,-80.230576,-14.800903
01105,328836,15.419629,-0.072526,1.610334,0.109485,0.797617,0.245504,12.044787,-79.403604,-12.070642
01106,329036,14.714383,0.583255,-2.729021,-0.092161,0.424963,0.204642,10.252677,-78.970240,-10.353301
01107,329236,11.893376,0.459117,-4.228448,0.023644,-0.294210,-0.080822,11.091157,-79.284984,-11.179080
01108,329436,10.417694,-0.849520,-2.049561,0.151777,-0.501435,-0.184127,13.046674,-79.804272,-12.990322
01109,329636,10.562322,-3.539265,-0.112710,-0.082837,-0.378642,0.073870,13.048195,-80.248072,-13.087978
01110,329836,11.183168,-1.830852,2.098221,-0.014827,-0.035696,0.318007,10.999573,-80.366061,-11.026755
01111,330036,10.253000,1.699945,1.543083,0.194284,0.134479,0.193500,9.788608,-80.256512,-9.572201
01112,330236,9.627459,3.111899,0.697356,0.309173,0.090436,-0.098876,10.691935,-80.136485,-10.129063
01113,330436,8.440882,2.999969,0.461601,0.299691,-0.054655,-0.326493,13.227847,-80.122333,-12.354064
01114,330636,6.784994,1.658022,1.016153,0.238928,-0.115047,-0.410548,16.325161,-80.131739,-15.219534
01115,330836,5.456413,0.423452,1.254733,0.051089,-0.091352,-0.434251,19.300507,-80.080822,-18.179864
01116,331036,4.931240,-0.853004,0.837946,-0.107311,-0.100805,-0.326189,21.424347,-80.060642,-20.460379
01117,331236,5.300759,-0.918029,0.777789,-0.179100,-0.122621,-0.189496,22.686268,-80.110943,-21.949363
01118,331436,6.590018,0.105547,0.955604,-0.143650,-0.098132,-0.136413,23.615620,-80.154461,-23.059352
01119,331636,7.970184,0.902530,0.880090,-0.204337,-0.031624,-0.157240,24.426754,-80.115769,-24.119911
01120,331836,9.153508,0.520724,1.087254,-0.308879,-0.018007,-0.189445,25.262764,-80.044854,-25.327512
01121,332036,9.669941,0.119395,1.684371,-0.401454,-0.037660,-0.218272,26.201356,-79.976659,-26.747269
01122,332236,9.615761,-0.239768,2.396542,-0.401779,-0.023041,-0.209626,27.028784,-79.894026,-28.054880
01123,332436,9.306136,-0.442800,2.727473,-0.290273,-0.013496,-0.174391,27.736595,-79.817041,-29.111556
01124,332636,9.239885,-0.355830,2.898323,-0.100331,-0.036224,-0.141605,28.532211,-79.778121,-30.036551
01125,332836,9.149394,-0.043809,3.133218,0.018537,0.029905,-0.157913,29.339864,-79.661298,-30.835633
01126,333036,9.522478,0.081329,3.327625,-0.058759,0.140206,-0.171696,29.773069,-79.424928,-31.344530
01127,333236,9.954120,0.792752,3.440873,-0.146978,0.191911,-0.174242,29.942336,-79.134902,-31.688170
01128,333436,10.373921,0.951160,3.316240,-0.151219,0.143792,-0.177074,30.248018,-78.890398,-32.176071
01129,333636,10.515683,0.387595,2.361901,-0.006959,0.143448,-0.177201,30.700807,-78.645523,-32.645859
01130,333836,11.069994,-0.115956,1.994402,0.225566,0.263532,-0.203900,31.178389,-78.266303,-32.869559
01131,334036,12.282989,0.109496,4.660721,0.172152,0.474694,-0.199758,30.973651,-77.681862,-32.458722
01132,334236,12.873773,1.152003,6.972829,-0.192352,0.620106,-0.119923,29.677455,-76.997875,-31.356492
01133,334436,12.949474,3.655003,3.781976,-0.481593,0.528759,-0.069472,28.174931,-76.427375,-30.379976
01134,334636,13.637725,4.067638,-0.980117,-0.555127,0.247007,-0.124967,27.515418,-76.109089,-30.355962
01135,334836,12.177251,2.540997,-5.250484,-0.326856,-0.165255,-0.211811,28.373113,-76.162961,-31.624968
01136,335036,9.514719,1.307260,-3.906320,-0.043365,-0.483729,-0.109184,29.894653,-76.587687,-33.241297
01137,335236,8.961786,0.325630,-1.782489,0.136183,-0.293897,-0.024287,30.882960,-76.866253,-34.095943
01138,335436,11.217635,0.511113,0.975044,0.302781,-0.147604,0.013943,31.557359,-77.021585,-34.431629
01139,335636,13.191516,0.911631,2.466219,0.077540,-0.153425,0.137413,31.468544,-77.256231,-34.248983
01140,335836,12.595016,3.127057,1.608262,-0.377620,-0.245696,0.251752,30.586893,-77.648585,-33.788597
01141,336036,10.861891,3.118240,0.382518,-0.581669,-0.085664,0.202026,29.233956,-77.851592,-33.085643
01142,336236,8.287738,0.981970,0.106293,-0.233257,-0.057713,0.073905,28.783879,-77.953228,-32.898115
01143,336436,6.584188,-0.605750,0.599651,0.097642,-0.207232,0.129026,28.836296,-78.235502,-32.836793
01144,336636,5.630362,-1.200421,1.282566,0.245919,-0.241447,0.237175,28.614138,-78.611799,-32.321923
01145,336836,5.474472,-0.848737,1.485322,0.269289,-0.195085,0.395971,27.436351,-79.025436,-30.806447
01146,337036,5.788469,0.525360,1.571601,0.233606,-0.114253,0.470631,25.485566,-79.385965,-28.547713
01147,337236,6.200355,1.258110,1.131880,0.303546,-0.066900,0.375879,23.900687,-79.638448,-26.581859
01148,337436,6.894476,1.119148,0.985788,0.435831,-0.082439,0.216901,23.360855,-79.827452,-25.525380
01149,337636,7.812939,0.541870,1.160463,0.551704,-0.120621,0.107093,23.679180,-80.005976,-25.206276
01150,337836,8.736907,0.700128,1.809955,0.600591,-0.222742,0.102311,24.357616,-80.289511,-25.196054
01151,338036,8.905231,1.361678,2.528234,0.540142,-0.219411,0.106422,24.950246,-80.571208,-25.169081
01152,338236,8.899629,1.770690,3.221218,0.508171,-0.143880,0.136015,25.106463,-80.788333,-24.737011
01153,338436,8.516023,2.116529,3.664607,0.421662,-0.020609,0.164417,24.600895,-80.890098,-23.735222
01154,338636,8.419890,1.741547,3.755211,0.273701,0.129797,0.187132,23.329656,-80.841819,-22.129747
01155,338836,8.950699,1.399831,3.311843,0.144729,0.254302,0.213621,21.432708,-80.665644,-20.039566
01156,339036,9.509946,1.366824,2.935538,0.095723,0.231526,0.219412,19.570965,-80.504963,-18.040980
01157,339236,10.422562,1.527353,3.135759,0.080849,0.144226,0.183771,18.169450,-80.416137,-16.525617
01158,339436,11.213131,2.001015,3.208109,0.012684,0.114423,0.164035,16.904058,-80.346869,-15.227158
01159,339636,12.221738,2.431918,3.492249,-0.295546,0.174478,0.155882,15.253266,-80.202969,-13.895580
01160,339836,12.469186,2.055828,4.709790,-0.384856,0.442806,0.100733,13.481175,-79.738226,-12.543498
01161,340036,12.940987,0.916332,4.742554,0.067321,0.662626,0.081198,12.187531,-79.016252,-11.148460
01162,340236,15.465911,-0.712436,2.485723,0.414791,0.581949,0.212614,10.810782,-78.409302,-9.259533
01163,340436,15.406532,-0.616559,-1.475781,0.088000,0.169335,0.303049,9.100723,-78.277390,-7.410130
01164,340636,12.458615,-0.417538,-2.486663,-0.068236,-0.253871,0.162941,8.345948,-78.593633,-6.719150
01165,340836,10.598786,-0.120566,-1.533441,-0.009549,-0.296697,-0.026907,8.752743,-78.926442,-7.144677
01166,341036,9.984700,-1.594391,-0.771582,-0.129359,-0.203329,0.013890,8.714363,-79.160961,-7.256258
01167,341236,10.516416,-1.392754,0.697639,-0.125813,-0.073780,0.178786,7.574587,-79.275809,-6.242517
01168,341436,9.993526,0.797156,1.211760,0.126420,-0.129469,0.113604,7.140545,-79.441860,-5.653217
01169,341636,9.985057,2.068491,1.051214,0.301654,-0.183070,-0.120278,8.388823,-79.633420,-6.570754
01170,341836,9.631376,2.046398,0.942230,0.334920,-0.128324,-0.318041,10.892698,-79.719713,-8.725314
01171,342036,8.130018,1.123325,1.161444,0.272593,-0.032973,-0.365164,13.512256,-79.670429,-11.069878
01172,342236,6.486107,0.334456,1.324701,0.127262,-0.050956,-0.343080,15.835478,-79.629387,-13.282828
01173,342436,5.697102,-0.676915,1.234596,-0.010755,-0.101230,-0.234464,17.426948,-79.665606,-14.912745
01174,342636,5.600373,-0.577236,1.081654,-0.085587,-0.158518,-0.147355,18.536227,-79.788177,-16.139388
01175,342836,6.231492,0.175946,1.109592,-0.114286,-0.113911,-0.129050,19.432875,-79.865354,-17.183040
01176,343036,7.283422,0.790864,0.938507,-0.123886,-0.078476,-0.170836,20.505563,-79.884831,-18.416520
01177,343236,8.089487,0.644900,0.939461,-0.183892,-0.068914,-0.219673,21.782127,-79.869491,-19.926929
01178,343436,8.725752,0.341219,1.160899,-0.300173,-0.163216,-0.233170,23.239609,-79.941778,-21.756311
01179,343636,8.934840,-0.111179,1.663254,-0.347938,-0.261926,-0.209105,24.793125,-80.120159,-23.738090
01180,343836,8.720952,-0.219122,2.376406,-0.279509,-0.248802,-0.146346,26.071393,-80.307143,-25.359937
01181,344036,8.880596,-0.271526,2.745702,-0.212607,-0.202743,-0.084524,26.961136,-80.473052,-26.509179
01182,344236,9.166484,0.037134,3.074862,-0.188641,-0.091128,-0.084936,27.554692,-80.522249,-27.329962
01183,344436,9.608410,0.444296,3.070605,-0.177243,0.013931,-0.118486,28.029350,-80.445442,-28.017019
01184,344636,10.020495,0.803117,3.404611,-0.164635,0.048979,-0.165146,28.670027,-80.306415,-28.858065
01185,344836,10.378787,0.632442,3.539661,-0.163309,0.134740,-0.179673,29.096806,-80.071634,-29.481013
01186,345036,10.313057,0.177306,2.632548,-0.155998,0.189918,-0.196842,29.427793,-79.771262,-29.998713
01187,345236,10.350567,-0.384454,1.742970,-0.014329,0.207647,-0.214607,29.933499,-79.442642,-30.529554
01188,345436,11.493127,-0.052384,2.480641,0.208487,0.319167,-0.220791,30.355020,-78.999212,-30.715504
01189,345636,13.303643,0.845396,5.352190,-0.044372,0.442174,-0.183971,29.938122,-78.454553,-30.342410
01190,345836,14.449286,2.890706,6.079820,-0.512693,0.625974,-0.108355,28.206426,-77.765826,-29.173353
01191,346036,14.457461,4.081006,1.843549,-0.468029,0.653640,-0.132186,26.725181,-77.029876,-28.205200
01192,346236,12.697737,1.715746,-3.313425,-0.103050,0.262577,-0.244975,27.097198,-76.634195,-28.708436
01193,346436,10.264075,0.424905,-3.608304,0.011528,-0.332360,-0.207612,28.764613,-76.860143,-30.407674
01194,346636,8.512432,0.798742,-1.116753,0.052630,-0.564860,-0.068020,30.527506,-77.385580,-32.153872
01195,346836,9.206970,1.002831,-0.659351,0.074499,-0.508559,-0.009036,32.040707,-77.880053,-33.615263
01196,347036,11.161223,1.482258,-0.032027,-0.207993,-0.276422,0.020997,32.512669,-78.162790,-34.340979
01197,347236,12.049757,2.575970,0.865904,-0.315222,-0.201737,0.066588,32.450630,-78.400888,-34.646062
01198,347436,12.191269,2.575567,1.159696,-0.318310,-0.260153,0.070126,32.555003,-78.697575,-35.124202
01199,347636,10.699460,0.749082,0.747236,-0.239207,-0.160013,0.031025,32.641348,-78.873484,-35.491158
01200,347836,8.480362,-0.415817,0.466545,0.007951,-0.170848,0.065540,32.882799,-79.081320,-35.727380
01201,348036,6.973867,-0.816017,0.789253,0.177880,-0.220258,0.162293,32.999023,-79.397027,-35.637773
01202,348236,6.048368,-0.332050,1.090755,0.229584,-0.234298,0.268717,32.656129,-79.792385,-35.021290
01203,348436,5.798635,0.544693,1.230414,0.232950,-0.252980,0.327548,32.012579,-80.240818,-34.096462
01204,348636,6.141551,1.189502,1.276183,0.232564,-0.219589,0.283912,31.432872,-80.628481,-33.237998
01205,348836,6.512227,1.183163,1.195518,0.285242,-0.177659,0.173798,31.378047,-80.908417,-32.850977
01206,349036,6.994274,0.901299,1.095152,0.325982,-0.115852,0.042119,31.943593,-81.049034,-33.045059
01207,349236,7.558108,0.721249,0.979141,0.411124,-0.283050,-0.000511,33.561967,-81.323745,-34.205700
01208,349436,8.293854,1.150962,1.654435,0.417559,-0.355348,0.000949,35.592077,-81.661636,-35.774273
01209,349636,8.500449,1.432191,2.162198,0.425546,-0.257476,-0.001806,37.318281,-81.899306,-37.025391
01210,349836,8.394673,1.694992,2.345288,0.441180,-0.119946,0.025969,38.267408,-82.027299,-37.473078
01211,350036,8.077163,1.813546,2.562351,0.385212,-0.066350,0.047404,38.756476,-82.121291,-37.520930
01212,350236,8.157953,1.713249,3.057665,0.244433,-0.031570,0.062571,38.807564,-82.194601,-37.289507
01213,350436,8.965437,1.678237,3.171640,0.171054,0.073035,0.096670,38.002302,-82.197425,-36.278679
01214,350636,9.669603,1.658307,2.883326,0.127050,0.165958,0.117152,36.545044,-82.126634,-34.660545
01215,350836,10.581518,1.684638,2.709578,0.025110,0.212625,0.129880,34.696507,-82.014107,-32.764959
01216,351036,11.494984,1.894208,2.523179,-0.099576,0.272433,0.131145,32.493214,-81.835862,-30.654672
01217,351236,12.068676,2.228667,3.109815,-0.214970,0.268509,0.121755,30.332311,-81.644133,-28.719890
01218,351436,12.549881,1.856490,4.675441,-0.140373,0.370447,0.130115,27.928171,-81.343495,-26.451510
01219,351636,12.344715,0.921930,5.356093,0.109690,0.643175,0.187802,24.756557,-80.775369,-23.113564
01220,351836,13.238538,-0.187429,3.263482,0.301318,0.844135,0.332275,20.814695,-80.027599,-18.765562
01221,352036,14.808698,0.671314,-0.530038,0.072630,0.666351,0.361978,17.361730,-79.439296,-15.171688
01222,352236,12.522635,1.333927,-4.484723,-0.163920,0.100265,0.135374,16.213123,-79.373400,-14.193922
01223,352436,10.925880,0.937189,-4.410437,0.221799,-0.499885,-0.138116,18.232526,-79.874340,-15.988068
01224,352636,11.086332,-1.096300,-2.316105,-0.008493,-0.394764,-0.064153,19.469690,-80.280235,-17.253487
01225,352836,12.556149,-3.437272,0.880154,-0.151985,-0.116715,0.211686,18.204394,-80.487185,-16.146535
01226,353036,12.680934,-0.624542,2.189170,0.076371,0.032360,0.317626,16.149722,-80.561352,-13.974507
01227,353236,10.900116,2.341804,0.974923,0.362948,0.086105,0.102666,15.734227,-80.500937,-13.131347
01228,353436,9.937154,2.818964,0.656267,0.414011,0.071553,-0.168267,17.180812,-80.369834,-14.116856
01229,353636,8.302345,1.923010,1.148794,0.431606,0.063836,-0.290523,19.401940,-80.197890,-15.868104
01230,353836,6.349368,0.764831,1.525333,0.267675,0.079904,-0.322650,21.523097,-79.984600,-17.709565
01231,354036,5.059157,-0.559729,1.343476,0.072044,0.059851,-0.287963,23.184214,-79.797300,-19.312610
01232,354236,5.140663,-0.863407,0.891625,-0.080054,-0.024137,-0.124000,23.888004,-79.767593,-20.120588
01233,354436,6.000817,0.178132,1.087873,-0.166117,-0.085572,0.022627,23.797380,-79.869402,-20.221564
01234,354636,6.769921,1.601763,1.203598,-0.142025,-0.067439,0.060502,23.463872,-79.969489,-20.047751
01235,354836,7.425259,1.612183,1.020894,-0.176784,-0.029606,-0.011605,23.420335,-79.996740,-20.208849
01236,355036,8.083178,0.995762,1.139225,-0.305003,-0.113663,-0.079622,23.858189,-80.080848,-21.007845
01237,355236,8.691535,0.437890,1.612277,-0.369878,-0.171248,-0.146629,24.793610,-80.191734,-22.387107
01238,355436,8.869237,-0.034144,2.138551,-0.329927,-0.137702,-0.162523,25.796733,-80.255947,-23.788287
01239,355636,9.222275,-0.161737,2.564576,-0.282767,-0.070613,-0.125429,26.443087,-80.266240,-24.772545
01240,355836,9.401748,-0.063549,2.651492,-0.255388,-0.048837,-0.109506,26.959463,-80.260568,-25.593134
01241,356036,10.108906,0.141529,3.109418,-0.265370,0.005919,-0.118521,27.346328,-80.193000,-26.294053
01242,356236,10.424194,0.345750,3.513742,-0.308912,0.085010,-0.136766,27.538277,-80.034432,-26.848057
01243,356436,10.239108,0.427115,3.221968,-0.333187,0.068527,-0.160345,27.872747,-79.879312,-27.575361
01244,356636,10.120491,-0.259362,2.345641,-0.180874,0.049321,-0.168059,28.463549,-79.738381,-28.386157
01245,356836,10.357716,-0.894171,2.111796,0.132027,0.151341,-0.152062,28.993757,-79.502463,-28.771377
01246,357036,11.710288,-0.778008,3.627611,0.225306,0.406112,-0.098748,28.589311,-79.039908,-28.097063
01247,357236,13.067095,0.833951,6.317339,-0.197054,0.659188,-0.030564,26.758103,-78.353656,-26.460150
01248,357436,13.865406,3.377988,4.054281,-0.581251,0.602727,0.060880,24.381766,-77.759237,-24.712232
01249,357636,14.126989,3.997229,-0.610799,-0.565137,0.182150,-0.068899,23.676320,-77.535477,-24.652990
01250,357836,12.299404,3.429869,-3.603507,-0.135941,-0.082669,-0.294053,25.088230,-77.482700,-26.258429
01251,358036,9.643657,2.325202,-3.127042,-0.141870,-0.339561,-0.265437,26.953165,-77.699834,-28.334003
01252,358236,8.906670,1.067450,-1.506610,-0.272562,-0.457843,-0.110893,28.312835,-78.107143,-30.043473
01253,358436,11.075657,0.925659,0.317630,-0.144157,-0.285071,-0.032990,29.072748,-78.377225,-30.987894
01254,358636,13.108682,1.222113,1.853550,-0.103043,-0.179221,0.051233,29.206371,-78.586912,-31.244266
01255,358836,12.472709,2.739047,1.060813,-0.206388,-0.192347,0.072947,29.157356,-78.821841,-31.434891
01256,359036,11.085340,2.249162,0.126559,-0.230003,-0.041066,-0.054999,29.305614,-78.834038,-31.854033
01257,359236,8.857333,0.024270,0.313837,-0.119053,-0.034340,-0.088890,29.732782,-78.820267,-32.427885
01258,359436,6.982505,-1.052584,0.882143,-0.039044,-0.159234,0.010879,30.112078,-78.986995,-32.859433
01259,359636,5.706987,-1.260796,1.234567,-0.003487,-0.157100,0.168434,29.718084,-79.241762,-32.461805
01260,359836,5.008585,-0.528622,1.142677,0.058549,-0.123808,0.353201,28.272281,-79.564590,-30.922248
01261,360036,5.321443,0.869366,1.049779,0.083293,-0.186890,0.422613,26.543197,-79.980144,-29.067873
01262,360236,6.192373,1.651234,1.088995,0.142433,-0.229517,0.336398,25.381934,-80.387728,-27.723321
01263,360436,6.930188,1.508280,1.074072,0.229111,-0.187349,0.178821,25.096611,-80.671529,-27.167477
01264,360636,7.585048,1.022433,1.020509,0.331277,-0.181784,0.059515,25.662022,-80.891140,-27.355292
01265,360836,8.267287,0.994498,1.253480,0.390509,-0.276476,0.012607,26.933507,-81.183633,-28.189061
01266,361036,8.713891,1.298696,2.334398,0.390759,-0.346275,-0.002515,28.632051,-81.535050,-29.453788
01267,361236,8.998971,1.631090,3.230568,0.320385,-0.249912,0.029355,29.769897,-81.802547,-30.232354
01268,361436,8.887000,2.030981,3.525610,0.203658,-0.126173,0.074624,30.005936,-81.970951,-30.234705
01269,361636,9.020942,1.822017,3.647638,0.072410,0.022212,0.127259,29.114572,-82.020595,-29.250465
01270,361836,9.623376,1.443137,3.177740,-0.015080,0.136247,0.173940,27.338903,-81.976719,-27.474496
01271,362036,9.945809,1.501764,2.381285,-0.035067,0.135722,0.191576,25.434671,-81.934153,-25.591627
01272,362236,10.242149,1.703531,2.123147,0.015394,0.087367,0.158129,24.014455,-81.918050,-24.139057
01273,362436,11.082232,2.222724,2.278912,-0.081412,0.063384,0.123244,22.825156,-81.906303,-23.031699
01274,362636,12.362118,2.576809,3.604282,-0.365153,0.152071,0.092516,21.285124,-81.782838,-21.898288
01275,362836,12.793302,2.263283,4.845042,-0.393059,0.424293,0.016681,19.590719,-81.331581,-20.640295
01276,363036,14.111303,0.862914,4.013932,-0.089047,0.653975,0.060360,17.588273,-80.640595,-18.715767
01277,363236,16.412853,0.104642,1.080330,-0.078745,0.578218,0.226252,14.956591,-80.074981,-16.137524
01278,363436,14.048136,0.812280,-3.019947,-0.299257,0.123598,0.143351,13.528541,-79.977394,-15.035222
01279,363636,11.142213,0.245032,-3.471992,-0.101969,-0.425234,-0.108926,14.822656,-80.419781,-16.466511
01280,363836,10.785603,-1.586570,-1.537688,0.033674,-0.555117,-0.130444,16.818209,-80.992039,-18.449017
01281,364036,11.331731,-3.837555,0.486867,-0.047660,-0.368922,0.099512,16.864752,-81.431275,-18.551019
01282,364236,11.199851,-1.594813,1.574560,0.002533,0.014849,0.257109,14.960260,-81.497363,-16.621994
01283,364436,10.058358,0.945716,0.796064,0.221863,0.180635,0.132175,13.912929,-81.336467,-15.305398
01284,364636,9.571286,2.253180,0.376667,0.332887,0.152884,-0.101839,14.761502,-81.139766,-15.777663
01285,364836,8.570073,2.432675,0.407525,0.294879,0.075419,-0.263343,16.813548,-80.976400,-17.512451
01286,365036,7.093170,1.352764,0.914141,0.276607,-0.041520,-0.306638,19.338716,-80.914331,-19.748032
01287,365236,5.800527,0.691797,1.123619,0.205258,-0.044712,-0.329103,21.902980,-80.830967,-22.106458
01288,365436,5.412987,-0.671063,0.815047,0.153406,0.027741,-0.249779,23.643884,-80.692322,-23.691674
01289,365636,5.439326,-0.698975,0.727957,0.106493,0.044047,-0.147699,24.594127,-80.578594,-24.530633
01290,365836,6.345152,0.148973,0.810047,0.086878,0.062664,-0.139283,25.393777,-80.447578,-25.239999
01291,366036,7.343397,0.494394,0.592737,0.039805,0.078181,-0.151422,26.146660,-80.293019,-25.956932
01292,366236,8.283921,0.425190,0.846068,-0.000325,-0.029429,-0.170526,27.267733,-80.236919,-27.094314
01293,366436,9.133637,0.085616,1.747698,-0.061776,-0.149425,-0.180546,28.744911,-80.292465,-28.664476
01294,366636,9.485656,-0.399067,2.608274,-0.066656,-0.155301,-0.138970,30.008075,-80.370760,-30.022961
01295,366836,9.491442,-0.295028,2.882397,0.022283,-0.115473,-0.119792,31.139855,-80.415970,-31.144644
01296,367036,9.260454,0.031899,2.993898,0.112506,-0.070817,-0.118465,32.213524,-80.414582,-32.102529
01297,367236,9.231676,0.280551,2.992105,0.123318,-0.000483,-0.118192,33.035806,-80.342590,-32.793030
01298,367436,9.668327,0.365539,2.840754,0.105731,0.060227,-0.111661,33.564613,-80.214997,-33.206481
01299,367636,10.232089,0.537886,2.963206,0.074965,0.075294,-0.085014,33.844493,-80.089278,-33.403268
01300,367836,10.665176,0.982081,2.967227,0.009636,0.077993,-0.064230,33.921492,-79.973915,-33.470183
01301,368036,10.795592,0.570447,2.118067,0.070280,0.106567,-0.099540,34.149713,-79.808714,-33.620170
01302,368236,11.233283,-0.383943,1.754942,0.315354,0.212186,-0.106121,34.311468,-79.539302,-33.417287
01303,368436,12.220186,-0.159115,3.765969,0.351167,0.332790,-0.037847,33.764752,-79.198864,-32.451700
01304,368636,13.094944,0.635474,6.280759,-0.075650,0.522241,0.048071,31.773591,-78.724582,-30.511590
01305,368836,13.170451,3.113239,4.743949,-0.441991,0.799512,0.131536,28.397370,-78.005668,-27.581984
01306,369036,13.346356,3.952874,-0.367568,-0.399554,0.729733,0.130693,25.592170,-77.327197,-25.179315
01307,369236,11.799861,1.940767,-5.084556,-0.034440,0.173448,0.023473,25.073012,-77.159284,-24.687333
01308,369436,9.115722,1.144830,-4.002133,-0.028681,-0.409697,0.015754,25.875097,-77.592242,-25.542668
01309,369636,8.435050,1.321452,-1.573245,0.214182,-0.593153,0.033996,27.388408,-78.219206,-26.838923
01310,369836,10.064146,1.473498,-0.233482,0.117653,-0.471220,-0.017736,28.867612,-78.688000,-28.210629
01311,370036,12.563208,2.102794,2.205975,-0.195056,-0.175141,-0.004303,29.168113,-78.863087,-28.744415
01312,370236,12.927940,2.962982,2.080125,-0.466241,0.044228,0.060758,28.213666,-78.853837,-28.315669
01313,370436,11.628882,2.148498,0.731375,-0.551387,0.101980,0.082752,26.897514,-78.796028,-27.617578
01314,370636,9.269284,0.095009,-0.230059,-0.345485,0.007918,0.016613,26.409994,-78.798821,-27.523608
01315,370836,7.389298,-1.145933,0.042951,-0.091316,-0.213817,0.057820,26.574207,-79.050410,-27.797057
01316,371036,6.251150,-1.129740,1.067381,0.099139,-0.294626,0.167875,26.589411,-79.441285,-27.696455
01317,371236,5.820016,0.042021,1.639408,0.100202,-0.234761,0.284452,25.765005,-79.829254,-26.741256
01318,371436,5.964495,1.116221,1.874703,0.060163,-0.119011,0.321631,24.283202,-80.111267,-25.166078
01319,371636,6.082555,1.505985,1.321302,0.084280,-0.023314,0.281055,22.745859,-80.266596,-23.507536
01320,371836,6.441864,1.219507,0.944633,0.140286,-0.023081,0.164467,21.957168,-80.365046,-22.543969
01321,372036,7.114705,0.588992,1.054511,0.207981,-0.115992,0.066121,22.087433,-80.518967,-22.433998
01322,372236,7.749835,0.441917,1.091836,0.272441,-0.261213,0.037564,22.867049,-80.814266,-22.907323
01323,372436,8.381952,0.845238,1.743487,0.344819,-0.340112,0.056338,23.878431,-81.199741,-23.530875
01324,372636,8.752426,1.164901,2.703184,0.385742,-0.247383,0.080624,24.544965,-81.497846,-23.757625
01325,372836,8.820853,1.568775,3.211770,0.359350,-0.109649,0.077045,24.783449,-81.650001,-23.582118
01326,373036,8.698731,1.614570,3.210877,0.301664,-0.001555,0.090339,24.505933,-81.695413,-22.951975
01327,373236,9.030836,1.240717,3.008485,0.200539,0.086770,0.155344,23.360374,-81.676964,-21.561720
01328,373436,9.482172,1.227966,2.814755,0.117383,0.134467,0.199900,21.665083,-81.622226,-19.712031
01329,373636,10.024681,1.572798,2.611097,0.060093,0.114685,0.208783,19.917116,-81.583919,-17.875226
01330,373836,11.058985,1.795709,2.395548,-0.039103,0.067917,0.206650,18.203115,-81.587136,-16.187558
01331,374036,12.366885,2.227397,2.980927,-0.294840,0.096050,0.186453,16.286392,-81.544508,-14.591094
01332,374236,12.971978,2.309275,4.606237,-0.396220,0.257962,0.119614,14.455657,-81.294358,-13.198445
01333,374436,13.765661,1.198661,5.283838,-0.107083,0.532834,0.099447,12.742816,-80.725588,-11.588183
01334,374636,15.679262,0.186709,2.997400,0.036970,0.669450,0.193928,10.603217,-80.017170,-9.374694
01335,374836,15.578365,0.449722,-0.576580,-0.174234,0.398926,0.259759,8.365687,-79.614155,-7.303765
01336,375036,12.711699,1.074215,-2.760648,-0.271402,-0.167714,0.083611,7.697177,-79.817882,-6.939900
01337,375236,10.860507,0.046858,-2.138481,-0.096353,-0.365930,-0.135553,8.820011,-80.211471,-8.191589
01338,375436,10.245498,-2.578953,-1.310896,-0.199977,-0.275747,-0.033568,9.120270,-80.519198,-8.728149
01339,375636,10.817481,-3.703915,0.645159,-0.092183,-0.084918,0.216406,7.630607,-80.653570,-7.324935
01340,375836,9.951516,-0.278726,1.144371,0.101563,0.116804,0.209729,6.217138,-80.551760,-5.774005
01341,376036,9.634981,1.380999,0.807242,0.246343,0.099331,0.008394,6.378243,-80.441931,-5.650828
01342,376236,9.345735,2.135396,0.816133,0.231355,0.069585,-0.178494,7.797363,-80.339860,-6.820875
01343,376436,8.063934,1.784146,0.717313,0.122761,0.058359,-0.273198,9.701229,-80.228421,-8.609279
01344,376636,6.727246,0.869118,1.106919,0.003730,0.015062,-0.288895,11.585160,-80.152467,-10.516347
01345,376836,5.846603,-0.265005,1.093867,-0.063188,0.023715,-0.262819,13.181899,-80.063372,-12.210219
01346,377036,5.640416,-0.832748,0.932841,-0.078469,0.014975,-0.185903,14.260456,-79.998176,-13.396176
01347,377236,6.017086,-0.615312,1.111505,-0.030204,0.060875,-0.131508,14.962112,-79.894630,-14.143520
01348,377436,6.773261,0.056537,0.994013,-0.011663,0.039314,-0.128493,15.688369,-79.814230,-14.894491
01349,377636,7.640780,0.236472,1.025744,-0.063666,0.017154,-0.161302,16.582383,-79.745956,-15.876651
01350,377836,8.452452,0.067237,1.558541,-0.185310,0.057971,-0.190377,17.421232,-79.620553,-16.944734
01351,378036,8.790232,-0.363818,2.010602,-0.213340,0.056596,-0.191122,18.210934,-79.493610,-17.995966
01352,378236,9.017628,-0.681543,2.668737,-0.132760,0.029031,-0.162983,18.960893,-79.404168,-18.913269
01353,378436,9.180126,-0.681467,2.907231,-0.036802,0.015190,-0.123097,19.604333,-79.342558,-19.610604
01354,378636,8.969405,-0.419940,2.893068,0.047262,-0.041388,-0.123066,20.453729,-79.339992,-20.419618
01355,378836,8.947376,-0.319228,3.128012,0.108408,0.005456,-0.138741,21.356114,-79.278321,-21.211392
01356,379036,9.450152,0.484413,3.199500,0.026708,0.018435,-0.136933,22.114954,-79.201172,-21.952563
01357,379236,10.041088,1.143377,3.434097,-0.093274,0.062709,-0.151566,22.704024,-79.068729,-22.661140
01358,379436,10.611509,1.111286,3.011736,-0.136462,0.011574,-0.170223,23.448090,-78.980021,-23.578286
01359,379636,10.937539,0.234724,2.102165,0.017171,-0.054274,-0.204118,24.693656,-78.941378,-24.827240
01360,379836,11.701825,-0.662179,2.108035,0.246446,0.036347,-0.225726,26.072332,-78.792986,-25.944546
01361,380036,12.670499,-0.442767,5.003822,0.174530,0.296594,-0.186990,26.475524,-78.393125,-26.151960
01362,380236,13.330205,0.876302,7.117541,-0.222342,0.521489,-0.082490,25.378361,-77.813231,-25.291354
01363,380436,13.885825,3.135674,3.704226,-0.471624,0.520796,0.015748,23.638847,-77.276217,-24.063601
01364,380636,13.787621,3.108808,-1.612190,-0.305719,0.222369,-0.084359,23.233012,-77.003282,-24.006691
01365,380836,11.716860,1.800395,-4.270235,-0.009105,-0.041464,-0.203034,24.229503,-76.953747,-25.040032
01366,381036,8.947890,0.793745,-2.139349,-0.030103,-0.266425,-0.085390,25.142781,-77.191667,-26.012199
01367,381236,8.828001,0.394271,-0.149342,0.051725,-0.256193,0.029248,25.632787,-77.473031,-26.453406
01368,381436,11.221962,1.015397,0.784524,0.225367,-0.108490,0.062994,25.847187,-77.618392,-26.408199
01369,381636,12.674519,1.813369,1.206487,0.100288,0.004760,0.120839,25.388418,-77.675541,-25.820566
01370,381836,12.466570,2.396274,0.271262,-0.362457,-0.001127,0.211883,23.970414,-77.780599,-24.794036
01371,382036,10.951852,1.807459,0.184332,-0.042764,-0.110006,0.107362,23.645249,-77.948398,-24.511075
01372,382236,9.512612,-0.767010,0.371237,0.187931,-0.259237,0.075533,24.064865,-78.258280,-24.719380
01373,382436,7.998296,-1.637711,1.350756,0.166083,-0.261864,0.206775,23.798807,-78.632048,-24.253226
01374,382636,6.578459,-0.978611,1.788514,0.113015,-0.189631,0.360496,22.444110,-78.997507,-22.740032
01375,382836,5.626417,0.544471,1.467423,0.150677,-0.207827,0.473702,20.427333,-79.420878,-20.510973
01376,383036,5.487179,1.636755,1.267845,0.195124,-0.200775,0.463453,18.338787,-79.817292,-18.160140
01377,383236,5.725251,1.746652,1.005318,0.308391,-0.183627,0.346124,16.920901,-80.140923,-16.361166
01378,383436,6.055830,1.077036,0.976152,0.411357,-0.172129,0.189434,16.519034,-80.395155,-15.474897
01379,383636,6.939671,0.334926,1.112876,0.472639,-0.193742,0.092371,16.843084,-80.641036,-15.254069
